timestamp,android_nano_timestamp,temperature,calib_mag,calib_accel,calib_gyro,calib_sys,acc_x,acc_y,acc_z,lacc_x,lacc_y,lacc_z,gyro_x,gyro_y,gyro_z,quat_w,quat_x,quat_y,quat_z,mag_x,mag_y,mag_z,gravity_x,gravity_y,gravity_z,label
5.45,1145244.431159080,29,3,3,3,0,-3.3900,0.5800,-1.1100,5.2300,-0.8800,3.3100,-5.3125,7.1250,5.0625,0.45996093750000,0.52612304687500,0.67022705078125,-0.24987792968750,39.5625,55.3750,70.0000,-8.6200,1.4600,-4.4300,moving
5.46,1145244.431159080,29,3,3,3,0,-3.6600,0.4800,-0.8900,4.9600,-0.9800,3.5400,-6.0000,4.1875,3.3750,0.46008300781250,0.52612304687500,0.67034912109375,-0.24920654296875,38.8750,55.0000,69.5625,-8.6200,1.4700,-4.4300,moving
5.47,1145244.446281273,29,3,3,3,0,-4.9700,0.1200,-0.3900,3.6400,-1.3500,4.0300,-5.5000,-1.8750,2.1875,0.46051025390625,0.52600097656250,0.67028808593750,-0.24884033203125,38.8750,55.0000,69.5625,-8.6200,1.4700,-4.4300,moving
5.48,1145244.446281273,29,3,3,3,0,-5.9500,0.0500,-0.6000,2.6700,-1.4200,3.8000,-3.8750,-12.0625,1.1250,0.46142578125000,0.52569580078125,0.66986083984375,-0.24914550781250,38.8750,55.0000,69.5625,-8.6300,1.4800,-4.4100,moving
5.49,1145244.460257184,29,3,3,3,0,-5.9500,0.0500,-0.6000,2.6700,-1.4200,3.8000,-3.8750,-12.0625,1.1250,0.46142578125000,0.52569580078125,0.66986083984375,-0.24914550781250,38.8750,55.0000,69.5625,-8.6300,1.4800,-4.4100,moving
5.49,1145244.460257184,29,3,3,3,0,-7.4300,0.0600,-1.1300,1.2200,-1.4200,3.2200,-3.0000,-32.1250,0.1250,0.46343994140625,0.52484130859375,0.66864013671875,-0.25042724609375,38.8750,55.0000,69.5625,-8.6500,1.4800,-4.3600,moving
5.50,1145244.476929913,29,3,3,3,0,-9.3200,0.1500,-1.7400,-0.6200,-1.3300,2.5200,-4.6250,-61.3125,-2.3125,0.46716308593750,0.52319335937500,0.66632080078125,-0.25305175781250,38.8750,55.0000,69.5625,-8.7000,1.4800,-4.2700,moving
5.51,1145244.476929913,29,3,3,3,0,-13.1200,0.6000,-3.9600,-4.3500,-0.8700,0.1600,-6.5625,-91.7500,-5.8750,0.47265625000000,0.52050781250000,0.66302490234375,-0.25708007812500,38.8750,56.0625,71.5625,-8.7700,1.4800,-4.1200,moving
5.52,1145244.494980206,29,3,3,3,0,-14.7400,0.9800,-6.4000,-5.8800,-0.4800,-2.4700,-5.0625,-125.6250,-10.5625,0.47985839843750,0.51684570312500,0.65838623046875,-0.26293945312500,38.8750,56.0625,71.5625,-8.8600,1.4600,-3.9300,moving
5.53,1145244.494980206,29,3,3,3,0,-17.2100,1.2100,-10.2700,-8.2400,-0.2400,-6.5900,-15.8125,-157.8125,-13.4375,0.48931884765625,0.51171875000000,0.65264892578125,-0.26965332031250,38.8750,56.0625,71.5625,-8.9700,1.4500,-3.6800,moving
5.54,1145244.520869855,29,3,3,3,0,-23.1600,1.9200,-12.2700,-14.0800,0.4700,-8.8800,-38.0000,-182.0625,-19.8750,0.50085449218750,0.50463867187500,0.64660644531250,-0.27642822265625,38.8750,56.0625,71.5625,-9.0800,1.4500,-3.3800,moving
5.55,1145244.520869855,29,3,3,3,0,-27.9100,3.2900,-10.5100,-18.7400,1.8400,-7.3500,-50.0625,-132.6250,-20.5000,0.51000976562500,0.49804687500000,0.64288330078125,-0.28033447265625,38.8750,56.0625,71.5625,-9.1600,1.4400,-3.1600,moving
5.56,1145244.534708234,29,3,3,3,0,-31.0900,4.9200,-9.4000,-21.9000,3.4900,-6.2900,-24.9375,-31.4375,-17.2500,0.51239013671875,0.49517822265625,0.64282226562500,-0.28106689453125,40.3750,56.0625,69.6875,-9.1900,1.4300,-3.1000,moving
5.57,1145244.534708234,29,3,3,3,0,-27.7800,4.8200,-8.5600,-18.6100,3.4100,-5.3800,4.8125,44.6875,-15.3125,0.50927734375000,0.49560546875000,0.64538574218750,-0.28009033203125,40.3750,56.0625,69.6875,-9.1600,1.4000,-3.1800,moving
5.58,1145244.551144228,29,3,3,3,0,-24.0500,3.8000,-6.4400,-14.9100,2.4100,-3.1700,-1.9375,57.5000,-6.4375,0.50598144531250,0.49658203125000,0.64825439453125,-0.27783203125000,40.3750,56.0625,69.6875,-9.1300,1.3900,-3.2700,moving
5.59,1145244.551144228,29,3,3,3,0,-23.5300,4.0900,-7.0700,-14.4100,2.6900,-3.7500,-16.3125,31.2500,-2.9375,0.50482177734375,0.49645996093750,0.65014648437500,-0.27569580078125,40.3750,56.0625,69.6875,-9.1200,1.4000,-3.3100,moving
5.60,1145244.580873843,29,3,3,3,0,-22.6800,4.5300,-7.7000,-13.5700,3.1200,-4.3500,-23.6250,25.5000,-2.6875,0.50433349609375,0.49584960937500,0.65197753906250,-0.27331542968750,40.3750,56.0625,69.6875,-9.1000,1.4000,-3.3500,moving
5.61,1145244.580873843,29,3,3,3,0,-21.6900,4.9600,-8.0400,-12.6200,3.5400,-4.6000,-15.8125,56.5000,-1.6875,0.50177001953125,0.49639892578125,0.65490722656250,-0.27008056640625,40.3750,56.1875,69.2500,-9.0700,1.4100,-3.4300,moving
5.62,1145244.595730613,29,3,3,3,0,-18.5000,3.9400,-6.0500,-9.4900,2.5200,-2.4500,-5.5625,99.8750,0.5625,0.49633789062500,0.49853515625000,0.65936279296875,-0.26538085937500,40.3750,56.1875,69.2500,-9.0100,1.4200,-3.5900,moving
5.63,1145244.595730613,29,3,3,3,0,-16.8600,3.7300,-5.2200,-7.9200,2.3000,-1.4400,-0.6875,117.8750,2.2500,0.48956298828125,0.50128173828125,0.66430664062500,-0.26013183593750,40.3750,56.1875,69.2500,-8.9300,1.4200,-3.7700,moving
5.64,1145244.611071312,29,3,3,3,0,-14.7800,3.6900,-4.7500,-5.9300,2.2600,-0.7900,-2.4375,116.3125,3.6250,0.48303222656250,0.50402832031250,0.66912841796875,-0.25469970703125,40.3750,56.1875,69.2500,-8.8500,1.4300,-3.9500,moving
5.65,1145244.611071312,29,3,3,3,0,-12.9100,3.5300,-4.3300,-4.1300,2.0900,-0.1900,-2.7500,115.3750,6.6250,0.47656250000000,0.50683593750000,0.67376708984375,-0.24920654296875,40.3750,56.1875,69.2500,-8.7700,1.4400,-4.1300,moving
5.66,1145244.641642886,29,3,3,3,0,-9.1300,2.8100,-3.4700,-0.4500,1.3500,0.8400,-1.6250,122.8750,9.2500,0.46954345703125,0.50994873046875,0.67840576171875,-0.24328613281250,40.0000,55.5000,70.7500,-8.6800,1.4500,-4.3200,moving
5.67,1145244.641642886,29,3,3,3,0,-7.6000,2.4500,-3.0100,0.9700,0.9700,1.5000,-2.2500,136.3750,11.7500,0.46185302734375,0.51342773437500,0.68347167968750,-0.23657226562500,40.0000,55.5000,70.7500,-8.5700,1.4700,-4.5200,moving
5.68,1145244.655752261,29,3,3,3,0,-5.8700,2.0700,-2.3200,2.5800,0.5700,2.4000,-1.3750,139.2500,13.0625,0.45385742187500,0.51696777343750,0.68847656250000,-0.22973632812500,40.0000,55.5000,70.7500,-8.4500,1.4900,-4.7300,moving
5.69,1145244.655752261,29,3,3,3,0,-4.4200,1.6200,-1.9000,3.9000,0.1000,3.0300,0.1875,141.0625,14.3750,0.44561767578125,0.52062988281250,0.69335937500000,-0.22277832031250,40.0000,55.5000,70.7500,-8.3300,1.5200,-4.9300,moving
5.70,1145244.670534894,29,3,3,3,0,-1.7800,0.8400,-1.0600,6.4100,-0.6900,4.0900,-0.3750,147.3125,14.5625,0.43695068359375,0.52429199218750,0.69836425781250,-0.21551513671875,40.0000,55.5000,70.7500,-8.2000,1.5400,-5.1500,moving
5.71,1145244.670534894,29,3,3,3,0,-0.2600,0.7100,-0.5400,7.8000,-0.8500,4.8100,-1.6875,149.3750,13.5000,0.42816162109375,0.52783203125000,0.70343017578125,-0.20800781250000,39.5000,54.0000,73.5000,-8.0600,1.5600,-5.3600,moving
5.72,1145244.701484886,29,3,3,3,0,1.2700,0.7300,-0.5600,9.1900,-0.8400,5.0000,-2.4375,145.6875,12.7500,0.41955566406250,0.53112792968750,0.70825195312500,-0.20068359375000,39.5000,54.0000,73.5000,-7.9100,1.5800,-5.5600,moving
5.73,1145244.701484886,29,3,3,3,0,2.1500,0.2000,0.7000,9.9300,-1.3800,6.4500,0.0000,134.2500,8.1875,0.41137695312500,0.53393554687500,0.71270751953125,-0.19415283203125,39.5000,54.0000,73.5000,-7.7800,1.5900,-5.7400,moving
5.74,1145244.716266421,29,3,3,3,0,2.6800,-0.5300,1.2300,10.3300,-2.1300,7.1500,2.8125,131.8750,3.2500,0.40307617187500,0.53643798828125,0.71716308593750,-0.18804931640625,39.5000,54.0000,73.5000,-7.6400,1.5900,-5.9200,moving
5.75,1145244.716266421,29,3,3,3,0,2.6800,-0.5300,1.2300,10.3300,-2.1300,7.1500,2.8125,131.8750,3.2500,0.40307617187500,0.53643798828125,0.71716308593750,-0.18804931640625,39.5000,54.0000,73.5000,-7.6400,1.5900,-5.9200,moving
5.75,1145244.730669945,29,3,3,3,0,3.5600,-1.0900,1.9700,11.0700,-2.6800,8.0700,6.4375,128.9375,2.6250,0.39477539062500,0.53894042968750,0.72143554687500,-0.18231201171875,39.5000,54.0000,73.5000,-7.5100,1.5900,-6.0900,moving
5.76,1145244.730669945,29,3,3,3,0,4.3900,-1.7600,2.9400,11.7900,-3.3400,9.1700,12.1250,101.8125,2.8125,0.38781738281250,0.54113769531250,0.72460937500000,-0.17816162109375,38.5000,53.2500,73.5000,-7.4000,1.5800,-6.2300,moving
5.77,1145244.745234113,29,3,3,3,0,5.0900,-2.1000,3.8900,12.4600,-3.6700,10.1700,10.5625,36.8750,-2.7500,0.38494873046875,0.54187011718750,0.72576904296875,-0.17718505859375,38.5000,53.2500,73.5000,-7.3600,1.5600,-6.2800,moving
5.78,1145244.745234113,29,3,3,3,0,4.8600,-1.8300,4.6100,12.2900,-3.3900,10.8200,-3.5625,-56.1250,-12.6875,0.38848876953125,0.54010009765625,0.72454833984375,-0.18005371093750,38.5000,53.2500,73.5000,-7.4200,1.5500,-6.2100,moving
5.79,1145244.760775169,29,3,3,3,0,4.5800,-1.6600,5.5000,12.1600,-3.2100,11.5300,-11.2500,-140.2500,-14.6250,0.39764404296875,0.53649902343750,0.72058105468750,-0.18640136718750,38.5000,53.2500,73.5000,-7.5800,1.5400,-6.0200,moving
5.80,1145244.760775169,29,3,3,3,0,3.3500,-1.3000,5.9400,11.1100,-2.8400,11.7400,-7.1250,-172.5625,-11.8750,0.40856933593750,0.53265380859375,0.71520996093750,-0.19445800781250,38.5000,53.2500,73.5000,-7.7600,1.5400,-5.7900,moving
5.81,1145244.791056582,29,3,3,3,0,0.1100,-0.8900,4.5800,8.0200,-2.4400,10.1800,-17.0625,-139.1250,-9.3750,0.41790771484375,0.52905273437500,0.71093750000000,-0.20013427734375,36.7500,53.6875,73.7500,-7.9000,1.5400,-5.5900,moving
5.82,1145244.791056582,29,3,3,3,0,-0.8700,-0.6000,3.6100,7.1100,-2.1600,9.0700,-27.1250,-89.5000,-7.1875,0.42456054687500,0.52606201171875,0.70843505859375,-0.20288085937500,36.7500,53.6875,73.7500,-7.9900,1.5600,-5.4600,moving
5.83,1145244.805056582,29,3,3,3,0,-1.3000,-0.1500,2.9600,6.7300,-1.7300,8.3500,-29.0000,-49.1875,-4.0625,0.42889404296875,0.52380371093750,0.70727539062500,-0.20349121093750,36.7500,53.6875,73.7500,-8.0400,1.5800,-5.3800,moving
5.84,1145244.805056582,29,3,3,3,0,-1.2900,0.5000,2.0600,6.7600,-1.0900,7.4100,-20.9375,-23.6875,1.1875,0.43133544921875,0.52270507812500,0.70672607421875,-0.20324707031250,36.7500,53.6875,73.7500,-8.0600,1.6000,-5.3400,moving
5.85,1145244.835728009,29,3,3,3,0,-0.4900,1.5600,-0.4100,7.5700,-0.0500,4.9000,-12.1250,-17.6250,3.2500,0.43304443359375,0.52209472656250,0.70611572265625,-0.20318603515625,36.7500,53.6875,73.7500,-8.0700,1.6200,-5.3100,moving
5.86,1145244.835728009,29,3,3,3,0,-0.4500,2.0400,-1.7900,7.6400,0.4100,3.4800,-9.7500,-29.6875,2.6250,0.43536376953125,0.52136230468750,0.70501708984375,-0.20385742187500,38.5625,52.8750,73.7500,-8.1000,1.6300,-5.2700,moving
5.87,1145244.850350039,29,3,3,3,0,-0.8100,2.2000,-2.6000,7.3300,0.5400,2.5900,-22.8750,-45.8125,1.9375,0.43927001953125,0.51977539062500,0.70361328125000,-0.20446777343750,38.5625,52.8750,73.7500,-8.1400,1.6500,-5.2000,moving
5.88,1145244.850350039,29,3,3,3,0,-3.1700,1.7600,-3.1200,5.0100,0.0700,1.9900,-45.0625,-45.4375,-0.1875,0.44415283203125,0.51727294921875,0.70263671875000,-0.20373535156250,38.5625,52.8750,73.7500,-8.1800,1.6900,-5.1200,moving
5.89,1145244.865618634,29,3,3,3,0,-4.1300,2.0800,-3.2700,4.0700,0.3300,1.7900,-65.3750,-24.3125,-1.3125,0.44854736328125,0.51416015625000,0.70288085937500,-0.20086669921875,38.5625,52.8750,73.7500,-8.2000,1.7500,-5.0600,moving
5.90,1145244.865618634,29,3,3,3,0,-5.7100,2.0700,-3.2400,2.4900,0.2500,1.7800,-74.0625,-5.2500,-2.7500,0.45214843750000,0.51098632812500,0.70410156250000,-0.19665527343750,38.5625,52.8750,73.7500,-8.2100,1.8100,-5.0300,moving
5.91,1145244.880119001,29,3,3,3,0,-8.1100,1.6200,-3.7900,0.1000,-0.2300,1.2000,-62.3125,-6.1250,-3.8750,0.45526123046875,0.50817871093750,0.70507812500000,-0.19329833984375,39.0625,53.2500,72.8750,-8.2200,1.8600,-5.0000,moving
5.92,1145244.880119001,29,3,3,3,0,-16.4200,1.5300,-7.8800,-8.1800,-0.3400,-2.9100,-29.8125,-20.3125,-7.3750,0.45776367187500,0.50622558593750,0.70507812500000,-0.19262695312500,39.0625,53.2500,72.8750,-8.2400,1.8800,-4.9600,moving
5.93,1145244.910992536,29,3,3,3,0,-20.2300,3.1800,-15.3500,-11.9800,1.3300,-10.3800,22.3750,-1.7500,-7.7500,0.45672607421875,0.50659179687500,0.70495605468750,-0.19439697265625,39.0625,53.2500,72.8750,-8.2400,1.8500,-4.9700,moving
5.94,1145244.910992536,29,3,3,3,0,-20.4200,5.6900,-19.3800,-12.1000,3.8900,-14.5100,47.0625,-84.6875,-9.8125,0.45971679687500,0.50640869140625,0.70117187500000,-0.20141601562500,39.0625,53.2500,72.8750,-8.3200,1.7900,-4.8600,moving
5.95,1145244.926942161,29,3,3,3,0,-17.7100,2.2300,-12.3800,-9.2400,0.4800,-7.7600,17.6875,-175.0000,-20.8125,0.46917724609375,0.50268554687500,0.69470214843750,-0.21105957031250,39.0625,53.2500,72.8750,-8.4700,1.7500,-4.6100,moving
5.96,1145244.926942161,29,3,3,3,0,-26.4100,5.0700,-13.2800,-17.8200,3.3600,-8.8800,32.2500,-151.2500,-12.3750,0.47668457031250,0.50042724609375,0.68835449218750,-0.22015380859375,37.2500,52.8750,72.8750,-8.5900,1.7000,-4.3900,moving
5.97,1145244.955697207,29,3,3,3,0,-30.9900,6.6500,-16.0200,-22.3000,4.9800,-11.8000,8.2500,-119.9375,-16.8750,0.48321533203125,0.49743652343750,0.68389892578125,-0.22656250000000,37.2500,52.8750,72.8750,-8.6900,1.6700,-4.2200,moving
5.98,1145244.955697207,29,3,3,3,0,-34.5700,7.3600,-15.8600,-25.7900,5.7200,-11.8100,0.0000,-112.5625,-20.4375,0.48950195312500,0.49395751953125,0.68005371093750,-0.23229980468750,37.2500,52.8750,72.8750,-8.7700,1.6400,-4.0400,moving
5.99,1145244.970434430,29,3,3,3,0,-35.6800,7.1400,-14.0400,-26.8400,5.5200,-10.1000,10.7500,-73.8750,-11.6875,0.49316406250000,0.49224853515625,0.67712402343750,-0.23663330078125,37.2500,52.8750,72.8750,-8.8300,1.6100,-3.9300,moving
6.00,1145244.970434430,29,3,3,3,0,-29.5000,6.3000,-13.4800,-20.6600,4.6800,-9.5700,3.5000,-20.8750,2.9375,0.49432373046875,0.49212646484375,0.67602539062500,-0.23760986328125,37.2500,52.8750,72.8750,-8.8400,1.6200,-3.9000,moving
6.01,1145244.985245099,29,3,3,3,0,-29.5000,6.3000,-13.4800,-20.6600,4.6800,-9.5700,3.5000,-20.8750,2.9375,0.49432373046875,0.49212646484375,0.67602539062500,-0.23760986328125,37.2500,52.8750,72.8750,-8.8400,1.6200,-3.9000,moving
6.01,1145244.985245099,29,3,3,3,0,-25.4500,6.6600,-12.9100,-16.6200,5.0300,-8.9700,6.5625,19.1875,10.2500,0.49310302734375,0.49340820312500,0.67626953125000,-0.23669433593750,37.5625,54.6875,72.3750,-8.8300,1.6300,-3.9300,moving
6.02,1145244.999919741,29,3,3,3,0,-21.5100,6.7400,-11.1300,-12.7100,5.1000,-7.1300,10.3750,40.1250,9.4375,0.49047851562500,0.49523925781250,0.67736816406250,-0.23516845703125,37.5625,54.6875,72.3750,-8.8000,1.6300,-4.0000,moving
6.03,1145244.999919741,29,3,3,3,0,-16.1500,4.2400,-7.7900,-7.3700,2.6000,-3.7500,9.2500,27.3125,3.9375,0.48858642578125,0.49645996093750,0.67816162109375,-0.23437500000000,37.5625,54.6875,72.3750,-8.7800,1.6300,-4.0400,moving
6.04,1145245.015921613,29,3,3,3,0,-13.4200,3.7800,-7.5400,-4.6700,2.1400,-3.4300,16.2500,39.9375,6.3125,0.48565673828125,0.49835205078125,0.67926025390625,-0.23333740234375,37.5625,54.6875,72.3750,-8.7500,1.6300,-4.1100,moving
6.05,1145245.015921613,29,3,3,3,0,-12.0700,2.8700,-6.5600,-3.3800,1.2300,-2.3400,8.8125,73.0000,2.4375,0.48095703125000,0.50030517578125,0.68206787109375,-0.23059082031250,37.5625,54.6875,72.3750,-8.6900,1.6300,-4.2200,moving
6.06,1145245.045523175,29,3,3,3,0,-10.0300,2.3400,-5.3000,-1.4100,0.7200,-0.9200,19.5000,98.8750,-1.4375,0.47418212890625,0.50305175781250,0.68585205078125,-0.22747802734375,38.0000,54.0000,71.5625,-8.6200,1.6100,-4.3800,moving
6.07,1145245.045523175,29,3,3,3,0,-6.6600,0.7700,-3.2600,1.8700,-0.8100,1.2800,27.8750,106.8750,-4.2500,0.46649169921875,0.50604248046875,0.68988037109375,-0.22460937500000,38.0000,54.0000,71.5625,-8.5400,1.5900,-4.5400,moving
6.08,1145245.060092186,29,3,3,3,0,-5.2700,0.4300,-2.3100,3.1700,-1.1300,2.4000,17.8125,113.4375,-4.0000,0.45874023437500,0.50872802734375,0.69427490234375,-0.22082519531250,38.0000,54.0000,71.5625,-8.4400,1.5700,-4.7200,moving
6.09,1145245.060092186,29,3,3,3,0,-4.1100,0.3500,-1.6400,4.2200,-1.2000,3.2600,8.3125,123.2500,-1.2500,0.45086669921875,0.51129150390625,0.69903564453125,-0.21588134765625,38.0000,54.0000,71.5625,-8.3400,1.5600,-4.9000,moving
6.10,1145245.094394798,29,3,3,3,0,-2.9100,0.1700,-1.1100,5.3100,-1.3700,3.9700,6.4375,129.2500,-0.4375,0.44268798828125,0.51397705078125,0.70397949218750,-0.21044921875000,38.0000,54.0000,71.5625,-8.2300,1.5500,-5.0900,moving
6.11,1145245.094394798,29,3,3,3,0,-0.7100,0.0600,0.0100,7.4000,-1.4800,5.2800,8.2500,127.3125,-3.0000,0.43438720703125,0.51641845703125,0.70880126953125,-0.20538330078125,37.1875,54.0000,72.3750,-8.1100,1.5400,-5.2700,moving
6.12,1145245.099849103,29,3,3,3,0,0.6100,-0.1700,0.3600,8.6100,-1.6800,5.8100,15.0625,124.6875,-8.6875,0.42584228515625,0.51867675781250,0.71362304687500,-0.20098876953125,37.1875,54.0000,72.3750,-8.0000,1.5100,-5.4500,moving
6.13,1145245.099849103,29,3,3,3,0,2.8900,-0.9600,0.6000,10.7800,-2.4400,6.2300,22.6250,120.3125,-10.8125,0.41711425781250,0.52093505859375,0.71813964843750,-0.19738769531250,37.1875,54.0000,72.3750,-7.8900,1.4800,-5.6300,moving
6.14,1145245.120750755,29,3,3,3,0,4.8000,-0.6500,1.3700,12.5800,-2.0900,7.1600,32.5625,111.0625,-9.1875,0.40850830078125,0.52337646484375,0.72198486328125,-0.19470214843750,37.1875,54.0000,72.3750,-7.7800,1.4300,-5.7900,moving
6.15,1145245.120750755,29,3,3,3,0,6.7800,-0.6400,2.0900,14.4900,-2.0000,7.9900,55.5625,73.9375,-16.6875,0.40100097656250,0.52557373046875,0.72442626953125,-0.19537353515625,37.1875,54.0000,72.3750,-7.7100,1.3500,-5.9000,moving
6.16,1145245.135397524,29,3,3,3,0,7.3400,-1.4400,2.6300,15.0400,-2.6800,8.5700,87.7500,13.8750,-23.4375,0.39569091796875,0.52740478515625,0.72448730468750,-0.20111083984375,36.7500,53.2500,73.5625,-7.7000,1.2300,-5.9400,moving
6.17,1145245.135397524,29,3,3,3,0,7.9800,-2.5700,3.3900,15.7400,-3.6200,9.2900,139.0625,-53.2500,-32.1250,0.39208984375000,0.52917480468750,0.72161865234375,-0.21343994140625,36.7500,53.2500,73.5625,-7.7600,1.0400,-5.8900,moving
6.18,1145245.150395938,29,3,3,3,0,7.3600,-3.9200,5.4200,15.1900,-4.7800,11.2700,128.5000,-51.0000,-38.7500,0.38861083984375,0.53015136718750,0.71917724609375,-0.22515869140625,36.7500,53.2500,73.5625,-7.8200,0.8600,-5.8500,moving
6.19,1145245.150395938,29,3,3,3,0,5.0200,-2.4400,8.0300,12.8600,-3.2100,13.8700,72.9375,-15.4375,-20.6250,0.38580322265625,0.53100585937500,0.71820068359375,-0.23114013671875,36.7500,53.2500,73.5625,-7.8400,0.7600,-5.8300,moving
6.20,1145245.180515811,29,3,3,3,0,2.0300,-1.4200,8.3800,9.9100,-2.1600,14.1700,9.5625,-37.7500,-8.5625,0.38751220703125,0.53002929687500,0.71710205078125,-0.23376464843750,36.7500,53.2500,73.5625,-7.8800,0.7400,-5.7800,moving
6.21,1145245.180515811,29,3,3,3,0,0.3200,-0.8800,6.7700,8.3100,-1.6500,12.4100,-24.9375,-107.1875,-0.9375,0.39538574218750,0.52691650390625,0.71398925781250,-0.23718261718750,36.3750,56.1875,75.0000,-7.9800,0.7600,-5.6300,moving
6.22,1145245.195497988,29,3,3,3,0,-1.5200,-0.6300,4.6400,6.6100,-1.4300,10.0400,-30.1875,-164.8125,7.2500,0.40710449218750,0.52282714843750,0.70849609375000,-0.24261474609375,36.3750,56.1875,75.0000,-8.1400,0.8000,-5.4000,moving
6.23,1145245.195497988,29,3,3,3,0,-2.3700,0.2200,3.5900,5.9200,-0.6300,8.7500,-28.2500,-162.5625,16.4375,0.41876220703125,0.51934814453125,0.70251464843750,-0.24768066406250,36.3750,56.1875,75.0000,-8.2900,0.8500,-5.1600,moving
6.24,1145245.227322289,29,3,3,3,0,-3.1300,1.3800,1.5100,5.2600,0.4700,6.4900,-25.3750,-123.6250,21.0000,0.42791748046875,0.51702880859375,0.69757080078125,-0.25097656250000,36.3750,56.1875,75.0000,-8.3900,0.9000,-4.9700,moving
6.25,1145245.227322289,29,3,3,3,0,-2.4500,1.2900,0.0300,6.0100,0.3100,4.8700,-43.6875,-83.7500,21.4375,0.43548583984375,0.51483154296875,0.69439697265625,-0.25128173828125,36.3750,56.1875,75.0000,-8.4600,0.9700,-4.8400,moving
6.26,1145245.232940534,29,3,3,3,0,-2.4500,1.2900,0.0300,6.0100,0.3100,4.8700,-43.6875,-83.7500,21.4375,0.43548583984375,0.51483154296875,0.69439697265625,-0.25128173828125,36.3750,56.1875,75.0000,-8.4600,0.9700,-4.8400,moving
6.26,1145245.232940534,29,3,3,3,0,-0.4800,0.8000,-2.3600,8.0000,-0.2700,2.4300,-81.5625,-25.9375,20.7500,0.44116210937500,0.51239013671875,0.69421386718750,-0.24670410156250,37.8750,56.1875,73.0625,-8.4800,1.0700,-4.7900,moving
6.27,1145245.271804548,29,3,3,3,0,-0.9700,0.9400,-3.2700,7.4800,-0.2500,1.5300,-113.2500,25.3750,21.6250,0.44512939453125,0.50988769531250,0.69665527343750,-0.23785400390625,37.8750,56.1875,73.0625,-8.4600,1.2000,-4.8100,moving
6.28,1145245.271804548,29,3,3,3,0,-2.3000,1.4900,-4.5400,6.1100,0.1500,0.3000,-125.3750,46.2500,20.1250,0.44830322265625,0.50714111328125,0.70007324218750,-0.22741699218750,37.8750,56.1875,73.0625,-8.4100,1.3300,-4.8500,moving
6.29,1145245.279636620,29,3,3,3,0,-3.8200,2.9800,-8.4700,4.5500,1.5100,-3.6000,-133.2500,35.5625,16.7500,0.45233154296875,0.50366210937500,0.70330810546875,-0.21704101562500,37.8750,56.1875,73.0625,-8.3800,1.4700,-4.8600,moving
6.30,1145245.279636620,29,3,3,3,0,-5.5800,0.8900,-19.0700,2.8100,-0.7000,-14.2800,-135.3125,-23.6875,8.5000,0.45989990234375,0.49835205078125,0.70452880859375,-0.20941162109375,37.8750,56.1875,73.0625,-8.4000,1.6000,-4.7900,moving
6.31,1145245.285703229,29,3,3,3,0,-8.8000,4.4500,-12.2900,-0.3000,2.8400,-7.6700,-6.7500,-118.2500,4.6250,0.46746826171875,0.49615478515625,0.69964599609375,-0.21392822265625,37.7500,55.0625,75.8750,-8.4900,1.6100,-4.6200,moving
6.32,1145245.285703229,29,3,3,3,0,-12.4500,3.4500,-3.5500,-3.8800,1.8800,0.9400,63.4375,-91.3125,6.0000,0.47039794921875,0.49737548828125,0.69445800781250,-0.22149658203125,37.7500,55.0625,75.8750,-8.5600,1.5700,-4.5000,moving
6.33,1145245.317617455,29,3,3,3,0,-16.9900,3.8600,-5.0700,-8.3800,2.3300,-0.6300,56.8750,-51.5625,-2.9375,0.47100830078125,0.49853515625000,0.69134521484375,-0.22729492187500,37.7500,55.0625,75.8750,-8.6000,1.5200,-4.4400,moving
6.34,1145245.317617455,29,3,3,3,0,-31.7000,5.5400,-9.3300,-22.9700,4.0400,-5.1300,41.4375,-165.4375,0.6875,0.47912597656250,0.49694824218750,0.68359375000000,-0.23693847656250,37.7500,55.0625,75.8750,-8.7300,1.4900,-4.2000,moving
6.35,1145245.331792178,29,3,3,3,0,-34.6400,3.4200,-13.4700,-25.7300,1.9400,-9.6600,-42.0625,-250.9375,-26.5625,0.49523925781250,0.48834228515625,0.67498779296875,-0.24633789062500,37.7500,55.0625,75.8750,-8.9100,1.4800,-3.8000,moving
6.36,1145245.331792178,29,3,3,3,0,-39.5100,4.7700,-20.3100,-30.4900,3.2600,-16.7500,-67.3125,-146.8750,-14.5625,0.50640869140625,0.48132324218750,0.67065429687500,-0.24920654296875,38.0625,54.6875,73.5000,-9.0100,1.5000,-3.5500,moving
6.37,1145245.345594627,29,3,3,3,0,-35.1100,5.9900,-7.8000,-26.1100,4.5100,-4.1900,40.3125,25.0000,2.1875,0.50329589843750,0.48382568359375,0.67077636718750,-0.25042724609375,38.0625,54.6875,73.5000,-8.9900,1.4800,-3.6000,moving
6.38,1145245.345594627,29,3,3,3,0,-30.4600,3.3700,-6.1400,-21.5000,1.8900,-2.4200,43.1250,61.4375,17.0625,0.49822998046875,0.48803710937500,0.67181396484375,-0.24957275390625,38.0625,54.6875,73.5000,-8.9500,1.4800,-3.7100,moving
6.39,1145245.376338646,29,3,3,3,0,-26.9400,4.8600,-8.0300,-17.9800,3.3500,-4.3400,-3.2500,-15.0000,17.4375,0.49963378906250,0.48858642578125,0.67047119140625,-0.24926757812500,38.0625,54.6875,73.5000,-8.9500,1.5000,-3.6900,moving
6.40,1145245.376338646,29,3,3,3,0,-24.8500,5.7900,-10.7100,-15.8600,4.2400,-7.1300,-36.4375,-63.3750,12.6250,0.50518798828125,0.48632812500000,0.66790771484375,-0.24926757812500,38.0625,54.6875,73.5000,-8.9900,1.5500,-3.5800,moving
6.41,1145245.391615827,29,3,3,3,0,-23.8600,3.3300,-9.7500,-14.8600,1.7500,-6.2000,-23.1875,-16.5000,10.6875,0.50738525390625,0.48559570312500,0.66723632812500,-0.24816894531250,38.5000,57.2500,73.5000,-9.0000,1.5800,-3.5500,moving
6.42,1145245.391615827,29,3,3,3,0,-22.3400,2.9900,-7.3100,-13.3700,1.3900,-3.6900,-4.5000,48.0625,6.7500,0.50488281250000,0.48681640625000,0.66918945312500,-0.24554443359375,38.5000,57.2500,73.5000,-8.9700,1.5900,-3.6200,moving
6.43,1145245.406816836,29,3,3,3,0,-20.1500,2.0700,-6.1800,-11.2200,0.4600,-2.4600,-1.2500,61.8125,2.5000,0.50140380859375,0.48822021484375,0.67181396484375,-0.24273681640625,38.5000,57.2500,73.5000,-8.9300,1.6000,-3.7200,moving
6.44,1145245.406816836,29,3,3,3,0,-18.0900,2.1000,-5.2300,-9.2000,0.5000,-1.4200,-1.5000,58.7500,-0.9375,0.49798583984375,0.48931884765625,0.67443847656250,-0.24023437500000,38.5000,57.2500,73.5000,-8.8900,1.6000,-3.8100,moving
6.45,1145245.421783023,29,3,3,3,0,-13.6300,1.3600,-3.9200,-4.7900,-0.2300,0.0000,-0.8750,79.2500,-1.9375,0.49334716796875,0.49084472656250,0.67797851562500,-0.23687744140625,38.5000,57.2500,73.5000,-8.8300,1.5900,-3.9300,moving
6.46,1145245.421783023,29,3,3,3,0,-11.6900,1.4800,-3.0300,-2.9300,-0.1100,1.0600,0.6875,109.5000,-1.7500,0.48675537109375,0.49298095703125,0.68267822265625,-0.23229980468750,38.7500,55.7500,71.0625,-8.7600,1.5900,-4.1000,moving
6.47,1145245.454044294,29,3,3,3,0,-9.6000,1.6300,-2.2000,-0.9400,0.0400,2.1000,2.6250,134.6250,-1.0000,0.47857666015625,0.49572753906250,0.68835449218750,-0.22668457031250,38.7500,55.7500,71.0625,-8.6600,1.5900,-4.3000,moving
6.48,1145245.454044294,29,3,3,3,0,-7.5000,1.4300,-1.3200,1.0400,-0.1500,3.2100,2.3125,159.9375,-0.5625,0.46887207031250,0.49890136718750,0.69494628906250,-0.21990966796875,38.7500,55.7500,71.0625,-8.5400,1.5900,-4.5400,moving
6.49,1145245.465922956,29,3,3,3,0,-3.3500,0.2500,-0.5400,5.0300,-1.3300,4.2600,-0.0625,178.0625,1.0000,0.45806884765625,0.50231933593750,0.70208740234375,-0.21209716796875,38.7500,55.7500,71.0625,-8.3900,1.5900,-4.8000,moving
6.50,1145245.465922956,29,3,3,3,0,-1.9200,-0.2700,-0.3700,6.3100,-1.8700,4.6900,-2.0000,181.8125,5.8750,0.44708251953125,0.50585937500000,0.70904541015625,-0.20379638671875,38.7500,55.7500,71.0625,-8.2300,1.6000,-5.0700,moving
6.51,1145245.480965396,29,3,3,3,0,0.1300,-0.9700,-0.0100,8.2100,-2.5800,5.3000,3.8750,170.7500,11.4375,0.43652343750000,0.50970458984375,0.71502685546875,-0.19604492187500,38.3750,55.0625,73.3750,-8.0800,1.6100,-5.3100,moving
6.52,1145245.480965396,29,3,3,3,0,0.1300,-0.9700,-0.0100,8.2100,-2.5800,5.3000,3.8750,170.7500,11.4375,0.43652343750000,0.50970458984375,0.71502685546875,-0.19604492187500,38.3750,55.0625,73.3750,-8.0800,1.6100,-5.3100,moving
6.52,1145245.496701968,29,3,3,3,0,2.7900,-1.5600,-0.1000,10.7100,-3.1800,5.4500,15.9375,168.1250,17.5000,0.42559814453125,0.51422119140625,0.72027587890625,-0.18890380859375,38.3750,55.0625,73.3750,-7.9100,1.6200,-5.5500,moving
6.53,1145245.496701968,29,3,3,3,0,5.5800,-1.9400,0.1500,13.3300,-3.5600,5.9300,34.1875,163.4375,19.2500,0.41406250000000,0.51934814453125,0.72485351562500,-0.18298339843750,38.3750,55.0625,73.3750,-7.7500,1.6100,-5.7800,moving
6.54,1145245.526423119,29,3,3,3,0,6.9200,-2.4600,0.3300,14.5000,-4.0500,6.3500,47.5000,165.4375,15.4375,0.40167236328125,0.52459716796875,0.72924804687500,-0.17791748046875,38.3750,55.0625,73.3750,-7.5700,1.5800,-6.0200,moving
6.55,1145245.526423119,29,3,3,3,0,7.5300,-2.1600,0.7600,14.9400,-3.7000,6.9900,60.8750,143.5625,11.1250,0.38989257812500,0.52960205078125,0.73278808593750,-0.17480468750000,38.3750,55.0625,73.3750,-7.4100,1.5300,-6.2200,moving
6.56,1145245.540141909,29,3,3,3,0,8.3000,-2.2300,4.3200,15.6400,-3.7100,10.6500,53.6875,72.1250,-5.6250,0.38269042968750,0.53216552734375,0.73461914062500,-0.17510986328125,36.8750,54.0000,76.0625,-7.3400,1.4700,-6.3300,moving
6.57,1145245.540141909,29,3,3,3,0,8.5000,-1.9000,5.9900,15.9100,-3.2800,12.2700,40.6250,-51.1875,-41.1250,0.38348388671875,0.53009033203125,0.73419189453125,-0.18145751953125,36.8750,54.0000,76.0625,-7.4000,1.3700,-6.2700,moving
6.58,1145245.555119652,29,3,3,3,0,8.9100,-1.4400,8.2400,16.5400,-2.6700,14.2800,29.5625,-186.1875,-81.4375,0.39263916015625,0.52282714843750,0.73114013671875,-0.19470214843750,36.8750,54.0000,76.0625,-7.6200,1.2300,-6.0300,moving
6.59,1145245.555119652,29,3,3,3,0,8.5000,-0.7100,8.3200,16.3300,-1.8500,14.1200,-11.0625,-181.2500,-77.3750,0.40338134765625,0.51434326171875,0.72857666015625,-0.20489501953125,36.8750,54.0000,76.0625,-7.8300,1.1400,-5.7900,moving
6.60,1145245.602262311,29,3,3,3,0,0.9400,0.5800,4.8000,8.9000,-0.5300,10.4100,-26.7500,-125.2500,-37.3750,0.41180419921875,0.50872802734375,0.72625732421875,-0.21008300781250,36.8750,54.0000,76.0625,-7.9600,1.1100,-5.6100,moving
6.61,1145245.602262311,29,3,3,3,0,-0.6600,0.7200,3.5300,7.3900,-0.3800,9.0100,-26.8750,-92.2500,-25.9375,0.41839599609375,0.50439453125000,0.72454833984375,-0.21343994140625,36.3750,55.7500,77.2500,-8.0500,1.1000,-5.4800,moving
6.62,1145245.632662580,29,3,3,3,0,-0.6400,1.1900,1.9500,7.4400,0.0800,7.3700,-45.9375,-32.7500,-27.1875,0.42199707031250,0.50036621093750,0.72540283203125,-0.21295166015625,36.3750,55.7500,77.2500,-8.0900,1.1100,-5.4200,moving
6.63,1145245.632662580,29,3,3,3,0,-0.0600,1.3400,0.2800,8.0300,0.2100,5.7000,-59.1250,2.4375,-26.1250,0.42388916015625,0.49658203125000,0.72772216796875,-0.21008300781250,36.3750,55.7500,77.2500,-8.0900,1.1300,-5.4100,moving
6.64,1145245.638261620,29,3,3,3,0,0.2000,1.0500,-1.1300,8.3000,-0.1000,4.2700,-66.0625,3.5625,-24.8750,0.42608642578125,0.49261474609375,0.73010253906250,-0.20666503906250,36.3750,55.7500,77.2500,-8.0900,1.1500,-5.4000,moving
6.65,1145245.638261620,29,3,3,3,0,-0.3000,1.0100,-1.9200,7.7900,-0.1800,3.4600,-78.1250,1.8125,-21.9375,0.42895507812500,0.48834228515625,0.73254394531250,-0.20239257812500,36.3750,55.7500,77.2500,-8.1000,1.2000,-5.3900,moving
6.66,1145245.643555402,29,3,3,3,0,-0.6300,0.8500,-2.0500,7.4800,-0.4000,3.2900,-90.3125,-16.4375,-19.1250,0.43347167968750,0.48339843750000,0.73425292968750,-0.19805908203125,37.1875,55.0625,76.7500,-8.1200,1.2500,-5.3500,moving
6.67,1145245.643555402,29,3,3,3,0,-1.4800,0.7700,-2.2000,6.6700,-0.5400,3.0600,-93.8750,-35.4375,-16.1875,0.43945312500000,0.47821044921875,0.73522949218750,-0.19415283203125,37.1875,55.0625,76.7500,-8.1500,1.3200,-5.2700,moving
6.68,1145245.661578148,29,3,3,3,0,-3.9700,1.1400,-4.0200,4.2300,-0.2500,1.1500,-96.0625,-50.1250,-11.1875,0.44647216796875,0.47290039062500,0.73535156250000,-0.19049072265625,37.1875,55.0625,76.7500,-8.2000,1.3900,-5.1800,moving
6.69,1145245.661578148,29,3,3,3,0,-6.1900,1.9100,-5.7500,2.0700,0.4500,-0.6900,-93.5625,-73.3750,-12.0625,0.45483398437500,0.46722412109375,0.73449707031250,-0.18798828125000,37.1875,55.0625,76.7500,-8.2700,1.4500,-5.0500,moving
6.70,1145245.676656192,29,3,3,3,0,-8.6800,2.5300,-10.3400,-0.3300,1.0400,-5.4100,-54.7500,-76.7500,-14.6250,0.46173095703125,0.46282958984375,0.73291015625000,-0.18823242187500,37.1875,55.0625,76.7500,-8.3400,1.4800,-4.9300,moving
6.71,1145245.676656192,29,3,3,3,0,-11.4500,3.0700,-10.7900,-2.9900,1.6200,-6.0400,26.4375,-132.2500,-10.6875,0.46887207031250,0.46099853515625,0.72753906250000,-0.19567871093750,35.7500,53.6875,78.6875,-8.4500,1.4400,-4.7400,moving
6.72,1145245.720699893,29,3,3,3,0,-11.5500,1.6000,-5.1900,-2.9700,0.1900,-0.6500,43.9375,-141.5000,-1.7500,0.47601318359375,0.46026611328125,0.72100830078125,-0.20416259765625,35.7500,53.6875,78.6875,-8.5700,1.4000,-4.5400,moving
6.73,1145245.720699893,29,3,3,3,0,-17.1900,2.4900,-2.1700,-8.5300,1.1100,2.2000,61.4375,-116.1250,14.5625,0.48107910156250,0.46160888671875,0.71447753906250,-0.21209716796875,35.7500,53.6875,78.6875,-8.6600,1.3800,-4.3800,moving
6.74,1145245.725477481,29,3,3,3,0,-27.1500,4.4600,-6.5300,-18.4100,3.1200,-2.2700,90.0625,-98.9375,14.6250,0.48388671875000,0.46447753906250,0.70800781250000,-0.22106933593750,35.7500,53.6875,78.6875,-8.7300,1.3300,-4.2500,moving
6.75,1145245.725477481,29,3,3,3,0,-31.1800,4.8400,-16.0800,-22.3400,3.5300,-12.0400,40.8750,-146.8125,-1.3750,0.49121093750000,0.46325683593750,0.70098876953125,-0.22955322265625,35.7500,53.6875,78.6875,-8.8300,1.3000,-4.0400,moving
6.76,1145245.734951032,29,3,3,3,0,-31.6700,3.1800,-14.3300,-22.7200,1.8500,-10.5500,-56.9375,-156.6250,-7.8750,0.50286865234375,0.45709228515625,0.69567871093750,-0.23272705078125,36.0625,53.2500,77.0625,-8.9400,1.3300,-3.7800,moving
6.77,1145245.734951032,29,3,3,3,0,-36.8300,6.1200,-14.2600,-27.8000,4.7900,-10.6800,-18.3750,-128.1250,-11.6250,0.51116943359375,0.45294189453125,0.69085693359375,-0.23724365234375,36.0625,53.2500,77.0625,-9.0300,1.3200,-3.5700,moving
6.78,1145245.751324242,29,3,3,3,0,-36.8300,6.1200,-14.2600,-27.8000,4.7900,-10.6800,-18.3750,-128.1250,-11.6250,0.51116943359375,0.45294189453125,0.69085693359375,-0.23724365234375,36.0625,53.2500,77.0625,-9.0300,1.3200,-3.5700,moving
6.78,1145245.751324242,29,3,3,3,0,-39.5100,4.9000,-11.3200,-30.4400,3.5900,-7.8300,12.3125,-57.3750,-6.1875,0.51397705078125,0.45196533203125,0.68829345703125,-0.24053955078125,36.0625,53.2500,77.0625,-9.0700,1.3000,-3.4900,moving
6.79,1145245.765882063,29,3,3,3,0,-34.1800,3.8000,-12.2700,-25.1000,2.5000,-8.8000,1.1875,-13.9375,-3.1875,0.51470947265625,0.45153808593750,0.68774414062500,-0.24127197265625,36.0625,53.2500,77.0625,-9.0700,1.3000,-3.4600,moving
6.80,1145245.765882063,29,3,3,3,0,-27.8600,3.9700,-13.1600,-18.7800,2.6700,-9.7000,-18.5625,-3.5000,-10.3750,0.51544189453125,0.44995117187500,0.68835449218750,-0.24078369140625,36.0625,53.2500,77.0625,-9.0800,1.2900,-3.4500,moving
6.81,1145245.780619082,29,3,3,3,0,-22.8800,3.4300,-12.5900,-13.8100,2.1300,-9.0700,-15.1875,41.0625,-9.5000,0.51336669921875,0.44958496093750,0.69091796875000,-0.23870849609375,37.5625,55.0625,74.6875,-9.0600,1.2900,-3.5100,moving
6.82,1145245.780619082,29,3,3,3,0,-18.7400,1.9200,-10.6700,-9.7300,0.6300,-7.0100,-8.1250,86.6875,-8.3125,0.50830078125000,0.45050048828125,0.69525146484375,-0.23516845703125,37.5625,55.0625,74.6875,-9.0000,1.2800,-3.6500,moving
6.83,1145245.827398054,29,3,3,3,0,-13.1000,1.0900,-7.8600,-4.1600,-0.1700,-4.0400,-3.8750,108.9375,-11.2500,0.50158691406250,0.45184326171875,0.70056152343750,-0.23114013671875,37.5625,55.0625,74.6875,-8.9400,1.2600,-3.8200,moving
6.84,1145245.827398054,29,3,3,3,0,-10.6900,0.5200,-6.4800,-1.8300,-0.7200,-2.4700,-5.0000,119.2500,-14.5625,0.49414062500000,0.45312500000000,0.70642089843750,-0.22674560546875,37.5625,55.0625,74.6875,-8.8600,1.2400,-4.0000,moving
6.85,1145245.832928409,29,3,3,3,0,-8.8100,-0.0100,-5.3200,-0.0400,-1.2400,-1.1100,-6.2500,129.5000,-19.2500,0.48602294921875,0.45416259765625,0.71289062500000,-0.22204589843750,37.5625,55.0625,74.6875,-8.7700,1.2200,-4.2000,moving
6.86,1145245.832928409,29,3,3,3,0,-7.0100,-0.3200,-4.3700,1.6500,-1.5100,0.0300,-2.0000,137.7500,-19.6875,0.47711181640625,0.45550537109375,0.71948242187500,-0.21734619140625,37.1875,54.0000,74.6875,-8.6700,1.1900,-4.4100,moving
6.87,1145245.840650007,29,3,3,3,0,-3.5600,-0.8600,-2.7300,4.9900,-2.0400,1.8900,-2.5625,144.8750,-16.3750,0.46777343750000,0.45709228515625,0.72613525390625,-0.21209716796875,37.1875,54.0000,74.6875,-8.5600,1.1700,-4.6300,moving
6.88,1145245.840650007,29,3,3,3,0,-2.5200,-0.6400,-1.8300,5.9200,-1.8100,3.0100,-9.0625,143.4375,-13.1250,0.45874023437500,0.45849609375000,0.73266601562500,-0.20629882812500,37.1875,54.0000,74.6875,-8.4400,1.1600,-4.8400,moving
6.89,1145245.871333682,29,3,3,3,0,-1.8100,-0.0700,-0.8100,6.5200,-1.2300,4.2100,-14.3750,127.0625,-10.0000,0.45098876953125,0.45953369140625,0.73834228515625,-0.20068359375000,37.1875,54.0000,74.6875,-8.3300,1.1500,-5.0200,moving
6.90,1145245.871333682,29,3,3,3,0,-0.4400,0.8100,0.8400,7.7900,-0.3400,6.0300,-18.3750,117.1875,-7.1875,0.44403076171875,0.46038818359375,0.74353027343750,-0.19506835937500,37.1875,54.0000,74.6875,-8.2300,1.1600,-5.1900,moving
6.91,1145245.901648949,29,3,3,3,0,0.6700,1.3800,1.7600,8.8000,0.2000,7.1200,-23.6875,120.6250,-7.0000,0.43701171875000,0.46099853515625,0.74884033203125,-0.18896484375000,35.7500,54.5000,77.0000,-8.1200,1.1700,-5.3600,moving
6.92,1145245.901648949,29,3,3,3,0,2.0200,1.1800,2.7200,10.0200,0.0000,8.2800,-25.1875,142.2500,-4.2500,0.42864990234375,0.46209716796875,0.75482177734375,-0.18176269531250,35.7500,54.5000,77.0000,-7.9900,1.1900,-5.5500,moving
6.93,1145245.907071638,29,3,3,3,0,3.3700,0.9900,3.4700,11.2200,-0.2000,9.2200,-9.2500,144.0625,0.3125,0.41949462890625,0.46398925781250,0.76025390625000,-0.17529296875000,35.7500,54.5000,77.0000,-7.8500,1.2000,-5.7500,moving
6.94,1145245.907071638,29,3,3,3,0,5.6100,1.1200,5.4300,13.3400,-0.0600,11.3400,19.7500,109.0625,5.1250,0.41149902343750,0.46667480468750,0.76373291015625,-0.17199707031250,35.7500,54.5000,77.0000,-7.7300,1.1900,-5.9000,moving
6.95,1145245.930323713,29,3,3,3,0,6.3400,1.7400,6.1100,14.0300,0.5900,12.0900,49.0000,47.0000,12.1875,0.40655517578125,0.46997070312500,0.76416015625000,-0.17291259765625,35.7500,54.5000,77.0000,-7.6800,1.1500,-5.9700,moving
6.96,1145245.930323713,29,3,3,3,0,7.1500,2.2400,6.9900,14.8600,1.1200,12.9500,54.0000,-24.5625,12.6250,0.40618896484375,0.47235107421875,0.76196289062500,-0.17712402343750,33.1875,51.8750,77.3750,-7.7100,1.1100,-5.9500,moving
6.97,1145245.946238427,29,3,3,3,0,7.0500,2.2500,7.7300,14.8400,1.1700,13.5900,44.8125,-79.0000,6.0000,0.40966796875000,0.47308349609375,0.75817871093750,-0.18310546875000,33.1875,51.8750,77.3750,-7.7900,1.0700,-5.8500,moving
6.98,1145245.946238427,29,3,3,3,0,2.6700,0.8200,6.2100,10.5300,-0.2300,11.9700,25.9375,-77.2500,0.9375,0.41369628906250,0.47283935546875,0.75494384765625,-0.18798828125000,33.1875,51.8750,77.3750,-7.8600,1.0500,-5.7500,moving
6.99,1145245.975742455,29,3,3,3,0,0.8800,0.2300,4.4000,8.8200,-0.8100,10.0600,10.5000,-70.5000,-0.1875,0.41790771484375,0.47204589843750,0.75219726562500,-0.19158935546875,33.1875,51.8750,77.3750,-7.9300,1.0400,-5.6600,moving
7.00,1145245.975742455,29,3,3,3,0,0.2400,0.0700,2.5700,8.2500,-0.9600,8.1300,-2.3125,-72.8125,0.0000,0.42279052734375,0.47076416015625,0.74957275390625,-0.19439697265625,33.1875,51.8750,77.3750,-8.0100,1.0400,-5.5500,moving
7.01,1145245.990741438,29,3,3,3,0,-0.2800,-0.1800,1.0100,7.7900,-1.2500,6.4600,-19.2500,-76.0000,1.5000,0.42858886718750,0.46887207031250,0.74700927734375,-0.19616699218750,32.5625,52.8750,76.8750,-8.0800,1.0600,-5.4400,moving
7.02,1145245.990741438,29,3,3,3,0,-1.4200,-1.6000,-0.2900,6.7300,-2.7100,5.0200,-36.1250,-83.1250,4.9375,0.43560791015625,0.46636962890625,0.74426269531250,-0.19702148437500,32.5625,52.8750,76.8750,-8.1600,1.1000,-5.3200,moving
7.03,1145246.012930077,29,3,3,3,0,-1.7200,-1.9400,-1.1100,6.5100,-3.1000,4.0800,-41.7500,-84.0625,10.1875,0.44293212890625,0.46398925781250,0.74133300781250,-0.19738769531250,32.5625,52.8750,76.8750,-8.2300,1.1600,-5.1900,moving
7.04,1145246.012930077,29,3,3,3,0,-2.2300,-1.7400,-2.0000,6.0700,-2.9600,3.0600,-44.3750,-79.4375,11.1250,0.45007324218750,0.46160888671875,0.73852539062500,-0.19726562500000,32.5625,52.8750,76.8750,-8.3000,1.2100,-5.0700,moving
7.05,1145246.020795189,29,3,3,3,0,-2.2300,-1.7400,-2.0000,6.0700,-2.9600,3.0600,-44.3750,-79.4375,11.1250,0.45007324218750,0.46160888671875,0.73852539062500,-0.19726562500000,32.5625,52.8750,76.8750,-8.3000,1.2100,-5.0700,moving
7.05,1145246.020795189,29,3,3,3,0,-2.8500,-0.7200,-3.3400,5.5100,-2.0000,1.6000,-48.7500,-78.6250,11.1875,0.45727539062500,0.45904541015625,0.73583984375000,-0.19683837890625,32.5625,52.8750,76.8750,-8.3700,1.2700,-4.9400,moving
7.06,1145246.050566430,29,3,3,3,0,-3.3100,-0.5100,-4.4100,5.1200,-1.8500,0.4000,-48.0625,-81.8125,13.3125,0.46466064453125,0.45654296875000,0.73278808593750,-0.19653320312500,34.0625,53.2500,78.0625,-8.4300,1.3300,-4.8100,moving
7.07,1145246.050566430,29,3,3,3,0,-4.2800,0.0700,-7.0600,4.2100,-1.3100,-2.3700,-31.3750,-77.1875,14.1250,0.47106933593750,0.45483398437500,0.72961425781250,-0.19702148437500,34.0625,53.2500,78.0625,-8.4900,1.3800,-4.6900,moving
7.08,1145246.057852766,29,3,3,3,0,-4.7000,1.5000,-10.5400,3.8200,0.1100,-5.9100,25.7500,-42.8750,16.6875,0.47308349609375,0.45623779296875,0.72674560546875,-0.19964599609375,34.0625,53.2500,78.0625,-8.5300,1.3800,-4.6300,moving
7.09,1145246.057852766,29,3,3,3,0,-7.1100,2.1000,-4.4300,1.4200,0.7100,0.1600,30.4375,-26.6250,18.1250,0.47387695312500,0.45819091796875,0.72436523437500,-0.20190429687500,34.0625,53.2500,78.0625,-8.5400,1.3900,-4.6000,moving
7.10,1145246.081798485,29,3,3,3,0,-9.4700,2.3000,-2.4300,-0.9000,0.9100,2.1100,11.3750,-39.5000,9.1875,0.47607421875000,0.45855712890625,0.72216796875000,-0.20379638671875,34.0625,53.2500,78.0625,-8.5700,1.3900,-4.5400,moving
7.11,1145246.081798485,29,3,3,3,0,-12.1500,2.3000,-3.5400,-3.5400,0.9300,0.9300,8.9375,-43.1250,-5.4375,0.47833251953125,0.45782470703125,0.72045898437500,-0.20629882812500,36.5625,52.5625,76.8750,-8.6100,1.3700,-4.4800,moving
7.12,1145246.095549421,29,3,3,3,0,-14.8500,2.1600,-5.1400,-6.1700,0.8100,-0.7700,0.5625,-77.0000,-20.0000,0.48278808593750,0.45513916015625,0.71801757812500,-0.21026611328125,36.5625,52.5625,76.8750,-8.6700,1.3400,-4.3600,moving
7.13,1145246.095549421,29,3,3,3,0,-25.5200,2.4500,-9.9200,-16.7100,1.1300,-5.8100,-20.4375,-165.6875,-30.9375,0.49334716796875,0.44927978515625,0.71252441406250,-0.21685791015625,36.5625,52.5625,76.8750,-8.8000,1.3100,-4.1100,moving
7.14,1145246.157956241,29,3,3,3,0,-28.5900,1.9200,-12.8100,-19.6100,0.6100,-9.0900,-64.0625,-246.8750,-32.5625,0.51049804687500,0.43969726562500,0.70422363281250,-0.22387695312500,36.5625,52.5625,76.8750,-8.9800,1.3100,-3.7100,moving
7.15,1145246.157956241,29,3,3,3,0,-31.7700,1.4600,-16.6400,-22.6600,0.1400,-13.2400,-94.0625,-184.8750,-32.0000,0.52471923828125,0.42987060546875,0.69891357421875,-0.22656250000000,36.5625,52.5625,76.8750,-9.1000,1.3100,-3.3900,moving
7.16,1145246.163942243,29,3,3,3,0,-38.1200,2.6600,-15.1700,-29.0000,1.3700,-11.8200,-49.0625,-20.3125,-37.1875,0.52709960937500,0.42492675781250,0.70037841796875,-0.22607421875000,35.8750,53.6875,76.1875,-9.1200,1.2800,-3.3500,moving
7.17,1145246.163942243,29,3,3,3,0,-38.1600,6.2300,-7.9500,-29.0600,4.9900,-4.5200,-21.3750,48.0625,-40.7500,0.52410888671875,0.42242431640625,0.70446777343750,-0.22485351562500,35.8750,53.6875,76.1875,-9.1000,1.2300,-3.4200,moving
7.18,1145246.169421003,29,3,3,3,0,-32.1200,4.6300,-7.2500,-23.0300,3.4200,-3.7600,-34.9375,44.2500,-30.8750,0.52209472656250,0.41973876953125,0.70831298828125,-0.22247314453125,35.8750,53.6875,76.1875,-9.0800,1.2000,-3.4800,moving
7.19,1145246.169421003,29,3,3,3,0,-29.3700,4.5700,-8.1500,-20.2800,3.3800,-4.6600,-39.8750,6.4375,-22.7500,0.52270507812500,0.41662597656250,0.71020507812500,-0.22082519531250,35.8750,53.6875,76.1875,-9.0800,1.1900,-3.4900,moving
7.20,1145246.174717756,29,3,3,3,0,-26.8100,6.2700,-9.3900,-17.7100,5.0900,-5.9300,-29.8125,-14.8125,-21.0000,0.52429199218750,0.41369628906250,0.71087646484375,-0.22045898437500,35.8750,53.6875,76.1875,-9.0900,1.1800,-3.4600,moving
7.21,1145246.174717756,29,3,3,3,0,-23.6200,5.7900,-9.4400,-14.5400,4.6300,-5.9400,-5.0625,24.8125,-17.0625,0.52264404296875,0.41290283203125,0.71270751953125,-0.22003173828125,37.0000,52.8750,76.1875,-9.0800,1.1500,-3.4900,moving
7.22,1145246.200554101,29,3,3,3,0,-20.8600,5.3900,-7.7100,-11.8100,4.2600,-4.0900,15.0000,72.8125,-8.8125,0.51739501953125,0.41442871093750,0.71606445312500,-0.21875000000000,37.0000,52.8750,76.1875,-9.0400,1.1300,-3.6100,moving
7.23,1145246.200554101,29,3,3,3,0,-18.3200,4.7100,-6.3600,-9.3400,3.6000,-2.5800,34.1250,102.8750,-0.1875,0.50970458984375,0.41790771484375,0.72003173828125,-0.21716308593750,37.0000,52.8750,76.1875,-8.9700,1.1100,-3.7800,moving
7.24,1145246.215668277,29,3,3,3,0,-13.1900,4.1300,-3.5900,-4.2900,3.0400,0.3700,43.8750,116.3750,9.2500,0.50097656250000,0.42260742187500,0.72393798828125,-0.21527099609375,37.0000,52.8750,76.1875,-8.8900,1.0900,-3.9700,moving
7.25,1145246.215668277,29,3,3,3,0,-10.4600,3.7600,-2.6100,-1.6600,2.6700,1.5600,43.4375,128.1250,19.1250,0.49157714843750,0.42810058593750,0.72796630859375,-0.21240234375000,37.0000,52.8750,76.1875,-8.8000,1.0900,-4.1800,moving
7.26,1145246.230597110,29,3,3,3,0,-7.9900,3.1700,-2.4900,0.6800,2.0600,1.9100,42.5625,146.4375,26.4375,0.48120117187500,0.43426513671875,0.73242187500000,-0.20849609375000,37.3750,52.5625,76.8750,-8.6800,1.1000,-4.4100,moving
7.27,1145246.230597110,29,3,3,3,0,-5.6300,2.7000,-1.9100,2.9200,1.5800,2.7400,40.2500,160.4375,31.2500,0.46997070312500,0.44079589843750,0.73712158203125,-0.20367431640625,37.3750,52.5625,76.8750,-8.5500,1.1100,-4.6600,moving
7.28,1145246.308085554,29,3,3,3,0,-2.7000,1.6400,-0.5000,5.7000,0.5000,4.4100,35.7500,167.2500,35.6875,0.45843505859375,0.44750976562500,0.74188232421875,-0.19805908203125,37.3750,52.5625,76.8750,-8.4000,1.1400,-4.9100,moving
7.29,1145246.308085554,29,3,3,3,0,-1.1800,0.9700,0.1600,7.0600,-0.1900,5.3400,32.1250,176.0625,39.6875,0.44641113281250,0.45434570312500,0.74670410156250,-0.19165039062500,37.3750,52.5625,76.8750,-8.2400,1.1700,-5.1700,moving
7.30,1145246.314188785,29,3,3,3,0,-1.1800,0.9700,0.1600,7.0600,-0.1900,5.3400,32.1250,176.0625,39.6875,0.44641113281250,0.45434570312500,0.74670410156250,-0.19165039062500,37.3750,52.5625,76.8750,-8.2400,1.1700,-5.1700,moving
7.30,1145246.314188785,29,3,3,3,0,0.5900,0.3000,0.7000,8.6700,-0.8900,6.1400,36.1250,175.3125,42.1250,0.43426513671875,0.46136474609375,0.75115966796875,-0.18536376953125,37.3750,52.5625,76.8750,-8.0700,1.1900,-5.4300,moving
7.31,1145246.319130517,29,3,3,3,0,2.6000,-0.2600,0.6900,10.5000,-1.4700,6.3700,44.2500,171.2500,42.3125,0.42187500000000,0.46850585937500,0.75512695312500,-0.17974853515625,34.0625,52.8750,77.1875,-7.9000,1.2100,-5.6800,moving
7.32,1145246.319130517,29,3,3,3,0,4.1600,-0.9700,0.4200,11.9000,-2.1900,6.3300,50.7500,156.6875,36.7500,0.41003417968750,0.47521972656250,0.75848388671875,-0.17529296875000,34.0625,52.8750,77.1875,-7.7300,1.2100,-5.9000,moving
7.33,1145246.323816674,29,3,3,3,0,4.7500,-1.7700,1.9700,12.3400,-2.9900,8.0600,41.5000,131.8125,29.6250,0.40002441406250,0.48065185546875,0.76123046875000,-0.17150878906250,34.0625,52.8750,77.1875,-7.5800,1.2100,-6.0900,moving
7.34,1145246.323816674,29,3,3,3,0,5.4500,-2.3300,3.4600,12.9300,-3.5300,9.6900,35.3750,96.9375,25.2500,0.39251708984375,0.48498535156250,0.76300048828125,-0.16888427734375,34.0625,52.8750,77.1875,-7.4800,1.2000,-6.2200,moving
7.35,1145246.335316755,29,3,3,3,0,6.0600,-3.1200,4.7400,13.4800,-4.3200,11.0400,36.3750,47.9375,26.0625,0.38818359375000,0.48870849609375,0.76300048828125,-0.16839599609375,34.0625,52.8750,77.1875,-7.4200,1.2000,-6.2900,moving
7.36,1145246.335316755,29,3,3,3,0,7.7200,-3.1800,6.5900,15.1600,-4.3800,12.8600,28.4375,-24.4375,22.4375,0.38891601562500,0.49078369140625,0.76074218750000,-0.17059326171875,33.0000,53.6875,76.3750,-7.4400,1.1900,-6.2600,moving
7.37,1145246.443367943,29,3,3,3,0,8.3600,-3.6200,7.3000,15.9200,-4.8100,13.4300,15.6875,-109.0000,5.0625,0.39556884765625,0.48999023437500,0.75659179687500,-0.17608642578125,33.0000,53.6875,76.3750,-7.5600,1.1800,-6.1200,moving
7.38,1145246.443367943,29,3,3,3,0,7.4000,-3.7400,6.8500,15.0700,-4.9100,12.8400,3.0000,-105.3125,-11.3125,0.40222167968750,0.48773193359375,0.75335693359375,-0.18121337890625,33.0000,53.6875,76.3750,-7.6700,1.1700,-5.9800,moving
7.39,1145246.448969099,29,3,3,3,0,0.8600,-1.6400,4.6200,8.6000,-2.8100,10.5300,-13.1250,-58.5625,-9.8750,0.40649414062500,0.48565673828125,0.75189208984375,-0.18316650390625,33.0000,53.6875,76.3750,-7.7300,1.1700,-5.9000,moving
7.40,1145246.448969099,29,3,3,3,0,-0.5200,-1.0400,3.1200,7.2500,-2.2300,8.9800,-23.2500,-32.7500,-8.1250,0.40948486328125,0.48376464843750,0.75146484375000,-0.18328857421875,33.0000,53.6875,76.3750,-7.7700,1.1800,-5.8500,moving
7.41,1145246.457273949,29,3,3,3,0,-1.2000,-0.7500,1.1200,6.5800,-1.9600,6.9500,-33.4375,-14.5000,-8.5000,0.41174316406250,0.48181152343750,0.75183105468750,-0.18206787109375,34.0625,53.6875,78.5625,-7.7900,1.2000,-5.8300,moving
7.42,1145246.457273949,29,3,3,3,0,-0.9200,-0.7400,-0.7700,6.8900,-1.9800,5.0100,-46.0625,-23.9375,-6.9375,0.41516113281250,0.47930908203125,0.75195312500000,-0.18029785156250,34.0625,53.6875,78.5625,-7.8100,1.2400,-5.7800,moving
7.43,1145246.464737165,29,3,3,3,0,-1.2200,-0.8700,-1.6300,6.6300,-2.1700,4.0900,-62.6250,-36.8750,-4.5625,0.42010498046875,0.47613525390625,0.75177001953125,-0.17785644531250,34.0625,53.6875,78.5625,-7.8500,1.3000,-5.7200,moving
7.44,1145246.464737165,29,3,3,3,0,-1.6600,-0.8500,-2.9000,6.2200,-2.2100,2.7500,-69.7500,-33.4375,-0.9375,0.42517089843750,0.47296142578125,0.75164794921875,-0.17474365234375,34.0625,53.6875,78.5625,-7.8800,1.3600,-5.6600,moving
7.45,1145246.471260522,29,3,3,3,0,-2.0900,-0.8000,-4.0400,5.8400,-2.2400,1.5100,-77.1875,-55.3750,2.3750,0.43206787109375,0.46936035156250,0.75067138671875,-0.17187500000000,34.0625,53.6875,78.5625,-7.9400,1.4400,-5.5600,moving
7.46,1145246.471260522,29,3,3,3,0,-1.9100,-0.6700,-4.9400,6.1100,-2.2100,0.4600,-88.1875,-92.5625,3.9375,0.44177246093750,0.46490478515625,0.74829101562500,-0.16973876953125,34.0625,54.0000,77.3750,-8.0300,1.5300,-5.4100,moving
7.47,1145246.476633365,29,3,3,3,0,-4.0300,0.6200,-6.1500,4.0600,-0.9800,-0.8500,-72.3125,-70.1250,5.1875,0.44934082031250,0.46136474609375,0.74639892578125,-0.16766357421875,34.0625,54.0000,77.3750,-8.0900,1.6100,-5.2900,moving
7.48,1145246.476633365,29,3,3,3,0,-3.7500,1.6700,-5.2700,4.3300,0.0300,0.0000,-11.5000,-3.9375,13.5000,0.45025634765625,0.46173095703125,0.74584960937500,-0.16656494140625,34.0625,54.0000,77.3750,-8.0900,1.6400,-5.2800,moving
7.49,1145246.481963606,29,3,3,3,0,-4.3400,2.0200,-3.1900,3.7300,0.3700,2.1200,20.6250,14.7500,20.2500,0.44879150390625,0.46411132812500,0.74530029296875,-0.16650390625000,34.0625,54.0000,77.3750,-8.0700,1.6500,-5.3100,moving
7.50,1145246.481963606,29,3,3,3,0,-4.6700,2.5300,-2.3600,3.4000,0.8700,2.9400,23.0000,-8.0625,21.8125,0.44866943359375,0.46630859375000,0.74377441406250,-0.16748046875000,34.0625,54.0000,77.3750,-8.0700,1.6600,-5.3000,moving
7.51,1145246.502050357,29,3,3,3,0,-7.1000,4.9000,-4.7900,1.0000,3.2200,0.4600,17.4375,-40.4375,20.5625,0.45092773437500,0.46771240234375,0.74108886718750,-0.16943359375000,35.5000,51.0625,78.5000,-8.1000,1.6700,-5.2500,moving
7.52,1145246.502050357,29,3,3,3,0,-11.1300,5.8800,-8.0700,-2.9300,4.1900,-2.9500,6.5625,-96.8125,15.0000,0.45709228515625,0.46746826171875,0.73651123046875,-0.17321777343750,35.5000,51.0625,78.5000,-8.1900,1.6800,-5.1100,moving
7.53,1145246.507513858,29,3,3,3,0,-13.5100,5.7400,-8.3000,-5.1700,4.0400,-3.4400,4.7500,-181.1875,10.3125,0.46862792968750,0.46557617187500,0.72869873046875,-0.18048095703125,35.5000,51.0625,78.5000,-8.3400,1.6900,-4.8500,moving
7.54,1145246.507513858,29,3,3,3,0,-17.9200,7.0100,-11.5100,-9.4300,5.3100,-6.9200,10.8125,-186.2500,10.0625,0.48016357421875,0.46362304687500,0.72045898437500,-0.18829345703125,35.5000,51.0625,78.5000,-8.4900,1.7000,-4.5800,moving
7.55,1145246.533303165,29,3,3,3,0,-25.0200,8.2600,-12.9000,-16.4200,6.5600,-8.5200,34.3750,-144.1250,13.7500,0.48803710937500,0.46356201171875,0.71319580078125,-0.19567871093750,35.5000,51.0625,78.5000,-8.6000,1.6900,-4.3800,moving
7.56,1145246.533303165,29,3,3,3,0,-25.1000,6.5700,-12.8600,-16.4100,4.8900,-8.6400,33.0000,-113.3750,1.8750,0.49371337890625,0.46313476562500,0.70770263671875,-0.20220947265625,35.7500,53.2500,78.5625,-8.6900,1.6700,-4.2200,moving
7.57,1145246.562945173,29,3,3,3,0,-25.1000,6.5700,-12.8600,-16.4100,4.8900,-8.6400,33.0000,-113.3750,1.8750,0.49371337890625,0.46313476562500,0.70770263671875,-0.20220947265625,35.7500,53.2500,78.5625,-8.6900,1.6700,-4.2200,moving
7.57,1145246.562945173,29,3,3,3,0,-27.6900,4.6700,-12.9500,-18.9200,3.0100,-8.9000,20.1250,-111.2500,0.6250,0.49981689453125,0.46203613281250,0.70251464843750,-0.20794677734375,35.7500,53.2500,78.5625,-8.7700,1.6600,-4.0500,moving
7.58,1145246.570110945,29,3,3,3,0,-38.9300,5.7900,-13.0300,-30.0800,4.1200,-9.1500,13.5000,-121.3750,8.8750,0.50683593750000,0.46093750000000,0.69653320312500,-0.21325683593750,35.7500,53.2500,78.5625,-8.8500,1.6600,-3.8700,moving
7.59,1145246.570110945,29,3,3,3,0,-39.5000,3.7500,-15.6400,-30.5800,2.0600,-11.9400,-0.2500,-115.2500,12.0625,0.51403808593750,0.45953369140625,0.69091796875000,-0.21734619140625,35.7500,53.2500,78.5625,-8.9200,1.6800,-3.6900,moving
7.60,1145246.591757348,29,3,3,3,0,-34.1100,3.5100,-18.0000,-25.1400,1.8100,-14.4300,-5.6250,-80.6250,7.5000,0.51922607421875,0.45819091796875,0.68707275390625,-0.21984863281250,35.7500,53.2500,78.5625,-8.9700,1.7000,-3.5700,moving
7.61,1145246.591757348,29,3,3,3,0,-28.1500,3.5200,-16.0700,-19.1800,1.8300,-12.5000,24.7500,-5.4375,3.8750,0.51867675781250,0.45947265625000,0.68621826171875,-0.22137451171875,37.1875,54.3750,76.0625,-8.9700,1.6900,-3.5600,moving
7.62,1145246.597491601,29,3,3,3,0,-21.0200,2.9700,-10.3800,-12.0700,1.2900,-6.7400,39.3750,40.0625,1.3750,0.51470947265625,0.46209716796875,0.68719482421875,-0.22204589843750,37.1875,54.3750,76.0625,-8.9400,1.6700,-3.6400,moving
7.63,1145246.597491601,29,3,3,3,0,-18.3400,2.3800,-8.9400,-9.4100,0.7400,-5.2200,40.2500,40.7500,-2.8125,0.51055908203125,0.46453857421875,0.68835449218750,-0.22296142578125,37.1875,54.3750,76.0625,-8.9200,1.6400,-3.7100,moving
7.64,1145246.620785343,29,3,3,3,0,-15.7100,2.3000,-7.7500,-6.8200,0.7100,-3.9400,44.4375,47.6250,-8.7500,0.50573730468750,0.46685791015625,0.68994140625000,-0.22406005859375,37.1875,54.3750,76.0625,-8.8900,1.5900,-3.8000,moving
7.65,1145246.620785343,29,3,3,3,0,-13.6500,1.7600,-6.2400,-4.8000,0.2200,-2.3100,56.3125,74.0000,-12.1875,0.49871826171875,0.47009277343750,0.69256591796875,-0.22497558593750,37.1875,54.3750,76.0625,-8.8400,1.5400,-3.9300,moving
7.66,1145246.635832909,29,3,3,3,0,-10.6600,1.1100,-3.5600,-1.8800,-0.3600,0.5300,62.8125,97.3750,-11.4375,0.48999023437500,0.47399902343750,0.69604492187500,-0.22528076171875,38.6875,54.3750,74.5625,-8.7800,1.4700,-4.1000,moving
7.67,1145246.635832909,29,3,3,3,0,-8.8700,1.1500,-2.2900,-0.1600,-0.2600,1.9800,54.3750,109.2500,-10.5000,0.48089599609375,0.47778320312500,0.70001220703125,-0.22448730468750,38.6875,54.3750,74.5625,-8.7000,1.4200,-4.2800,moving
7.68,1145246.667822004,29,3,3,3,0,-6.9600,1.1500,-1.6800,1.6500,-0.2100,2.7900,43.1875,123.5000,-10.6875,0.47131347656250,0.48132324218750,0.70477294921875,-0.22241210937500,38.6875,54.3750,74.5625,-8.6100,1.3700,-4.4700,moving
7.69,1145246.667822004,29,3,3,3,0,-5.1200,1.0500,-1.2200,3.3900,-0.2800,3.4500,32.1875,130.8750,-8.5625,0.46166992187500,0.48468017578125,0.70983886718750,-0.21923828125000,38.6875,54.3750,74.5625,-8.5100,1.3300,-4.6800,moving
7.70,1145246.683547916,29,3,3,3,0,-2.4000,0.9500,-0.3700,5.9900,-0.3600,4.5100,11.6875,136.9375,-3.3125,0.45263671875000,0.48748779296875,0.71520996093750,-0.21429443359375,38.6875,54.3750,74.5625,-8.3900,1.3200,-4.8800,moving
7.71,1145246.683547916,29,3,3,3,0,-1.4400,0.7000,0.1200,6.8200,-0.6300,5.2100,-6.7500,144.3125,3.3750,0.44396972656250,0.49011230468750,0.72082519531250,-0.20758056640625,38.0625,55.5625,74.7500,-8.2700,1.3300,-5.0900,moving
7.72,1145246.698263655,29,3,3,3,0,-0.4900,0.4000,0.8700,7.6300,-0.9400,6.1800,-9.6875,149.9375,8.6250,0.43505859375000,0.49291992187500,0.72637939453125,-0.20019531250000,38.0625,55.5625,74.7500,-8.1300,1.3500,-5.3000,moving
7.73,1145246.698263655,29,3,3,3,0,2.7600,-1.9100,1.7500,10.7500,-3.2800,7.2700,8.1875,148.0625,12.3125,0.42547607421875,0.49658203125000,0.73126220703125,-0.19390869140625,38.0625,55.5625,74.7500,-7.9900,1.3600,-5.5100,moving
7.74,1145246.726411889,29,3,3,3,0,4.8700,-1.5500,1.7500,12.7300,-2.8900,7.4600,37.4375,134.1875,13.3125,0.41552734375000,0.50103759765625,0.73498535156250,-0.18994140625000,38.0625,55.5625,74.7500,-7.8500,1.3400,-5.7100,moving
7.75,1145246.726411889,29,3,3,3,0,5.8900,0.0000,2.3400,13.6400,-1.2900,8.2100,68.3125,100.6875,20.8125,0.40637207031250,0.50653076171875,0.73657226562500,-0.18920898437500,38.0625,55.5625,74.7500,-7.7500,1.3000,-5.8600,moving
7.76,1145246.740226952,29,3,3,3,0,6.5300,1.8600,3.6000,14.2400,0.6200,9.5400,90.3125,41.3750,24.0625,0.40008544921875,0.51190185546875,0.73541259765625,-0.19232177734375,35.1875,55.5625,76.5000,-7.7000,1.2400,-5.9400,moving
7.77,1145246.740226952,29,3,3,3,0,9.0500,1.3900,9.2400,16.8300,0.2500,15.1100,108.4375,-73.3750,1.6875,0.39996337890625,0.51452636718750,0.73095703125000,-0.20245361328125,35.1875,55.5625,76.5000,-7.7700,1.1300,-5.8600,moving
7.78,1145246.770599592,29,3,3,3,0,7.9100,0.4100,10.9000,15.8300,-0.5900,16.5800,95.3125,-144.8750,-15.8750,0.40460205078125,0.51428222656250,0.72479248046875,-0.21557617187500,35.1875,55.5625,76.5000,-7.9200,1.0100,-5.6800,moving
7.79,1145246.770599592,29,3,3,3,0,7.2300,-0.3100,10.4400,15.2500,-1.2300,16.0000,39.4375,-90.4375,-41.6250,0.40777587890625,0.51129150390625,0.72271728515625,-0.22357177734375,35.1875,55.5625,76.5000,-8.0200,0.9200,-5.5600,moving
7.80,1145246.775955346,29,3,3,3,0,4.0500,-0.1300,8.4200,12.1200,-1.0100,13.9100,-3.0625,-47.4375,-29.7500,0.41033935546875,0.50836181640625,0.72241210937500,-0.22656250000000,35.1875,55.5625,76.5000,-8.0700,0.8800,-5.4900,moving
7.81,1145246.775955346,29,3,3,3,0,-0.7500,-0.8400,2.2300,7.3400,-1.7300,7.6700,-16.0000,-36.1250,-4.7500,0.41320800781250,0.50677490234375,0.72161865234375,-0.22729492187500,35.1875,56.2500,75.0625,-8.1000,0.8900,-5.4400,moving
7.82,1145246.815848860,29,3,3,3,0,-0.8800,-0.8900,0.1700,7.2500,-1.8100,5.5600,-33.8125,-31.5625,-3.6250,0.41662597656250,0.50469970703125,0.72131347656250,-0.22668457031250,35.1875,56.2500,75.0625,-8.1300,0.9100,-5.3900,moving
7.83,1145246.815848860,29,3,3,3,0,-1.2700,-1.1200,-1.3200,6.8800,-2.0900,4.0200,-59.6250,-20.8125,-2.3750,0.42053222656250,0.50195312500000,0.72180175781250,-0.22393798828125,35.1875,56.2500,75.0625,-8.1500,0.9600,-5.3500,moving
7.84,1145246.821399478,29,3,3,3,0,-1.0600,-0.3000,-3.9700,7.1300,-1.3300,1.3100,-71.8750,-35.3125,-5.3750,0.42584228515625,0.49829101562500,0.72216796875000,-0.22119140625000,35.1875,56.2500,75.0625,-8.1900,1.0200,-5.2900,moving
7.85,1145246.821399478,29,3,3,3,0,-1.0600,-0.3000,-3.9700,7.1300,-1.3300,1.3100,-71.8750,-35.3125,-5.3750,0.42584228515625,0.49829101562500,0.72216796875000,-0.22119140625000,35.1875,56.2500,75.0625,-8.1900,1.0200,-5.2900,stop
7.85,1145246.846750512,29,3,3,3,0,-1.6300,-0.1800,-7.9100,6.6200,-1.2800,-2.7500,-92.0000,-81.1875,-9.5625,0.43475341796875,0.49267578125000,0.72125244140625,-0.21923828125000,35.1875,56.2500,75.0625,-8.2600,1.0900,-5.1500,stop
7.86,1145246.846750512,29,3,3,3,0,-2.1200,-0.4100,-9.8300,6.2700,-1.5400,-4.9000,-63.0000,-145.0000,-14.0000,0.44628906250000,0.48657226562500,0.71752929687500,-0.22204589843750,35.8750,57.3750,75.0625,-8.3900,1.1300,-4.9300,stop
7.87,1145246.849342675,29,3,3,3,0,-2.2700,0.6900,-8.1800,6.2200,-0.4200,-3.4100,-4.9375,-113.1875,-10.2500,0.45330810546875,0.48352050781250,0.71362304687500,-0.22692871093750,35.8750,57.3750,75.0625,-8.4900,1.1200,-4.7600,stop
7.88,1145246.849342675,29,3,3,3,0,-3.2800,0.5800,-3.5500,5.2200,-0.5200,1.1800,6.6875,-23.3125,-2.0625,0.45446777343750,0.48315429687500,0.71264648437500,-0.22839355468750,35.8750,57.3750,75.0625,-8.5100,1.1100,-4.7300,stop
7.89,1145246.892059716,29,3,3,3,0,-5.8100,0.8300,-1.5700,2.7100,-0.2600,3.1500,20.0625,-6.9375,-1.1875,0.45404052734375,0.48376464843750,0.71197509765625,-0.22998046875000,35.8750,57.3750,75.0625,-8.5200,1.0900,-4.7200,stop
7.90,1145246.892059716,29,3,3,3,0,-7.3400,0.7900,-1.8200,1.1900,-0.2800,2.8700,17.3125,-19.1250,-1.8125,0.45440673828125,0.48394775390625,0.71099853515625,-0.23193359375000,35.8750,57.3750,75.0625,-8.5300,1.0700,-4.7000,stop
7.91,1145246.898003523,29,3,3,3,0,-9.0400,0.9300,-2.4700,-0.4600,-0.1200,2.1400,11.0625,-50.7500,-3.3125,0.45703125000000,0.48315429687500,0.70886230468750,-0.23492431640625,37.0000,56.1875,76.2500,-8.5800,1.0600,-4.6200,stop
7.92,1145246.898003523,29,3,3,3,0,-14.9500,2.7500,-8.6700,-6.3000,1.7000,-4.1900,12.1875,-93.6875,-0.9375,0.46228027343750,0.48162841796875,0.70489501953125,-0.23962402343750,37.0000,56.1875,76.2500,-8.6500,1.0500,-4.4800,stop
7.93,1145246.921395084,29,3,3,3,0,-18.9900,3.4100,-10.9700,-10.2100,2.3500,-6.7400,-1.7500,-169.5000,1.6250,0.47277832031250,0.47808837890625,0.69793701171875,-0.24652099609375,37.0000,56.1875,76.2500,-8.7800,1.0500,-4.2300,stop
7.94,1145246.921395084,29,3,3,3,0,-22.0400,4.6000,-10.3000,-13.0900,3.5000,-6.4600,-34.0625,-247.8125,10.1875,0.48937988281250,0.47186279296875,0.68786621093750,-0.25433349609375,37.0000,56.1875,76.2500,-8.9500,1.0900,-3.8400,stop
7.95,1145246.928410668,29,3,3,3,0,-26.5600,3.3500,-11.4600,-17.4700,2.1900,-7.9600,-50.7500,-212.6250,21.0000,0.50457763671875,0.46618652343750,0.67895507812500,-0.25909423828125,37.0000,56.1875,76.2500,-9.0800,1.1600,-3.4900,stop
7.96,1145246.928410668,29,3,3,3,0,-36.5500,4.8300,-8.7900,-27.4300,3.6100,-5.3800,-17.0625,-53.1250,26.7500,0.50903320312500,0.46575927734375,0.67590332031250,-0.25903320312500,36.6875,57.5625,75.8750,-9.1100,1.2100,-3.4000,stop
7.97,1145247.013983015,29,3,3,3,0,-37.4900,5.8200,-5.7900,-28.4000,4.6000,-2.3100,46.0000,38.2500,21.8750,0.50537109375000,0.46997070312500,0.67565917968750,-0.25921630859375,36.6875,57.5625,75.8750,-9.0800,1.2200,-3.4700,stop
7.98,1145247.013983015,29,3,3,3,0,-28.8200,4.2400,-4.7100,-19.7600,3.0400,-1.1500,52.9375,41.1250,8.4375,0.50097656250000,0.47375488281250,0.67590332031250,-0.26025390625000,36.6875,57.5625,75.8750,-9.0500,1.2000,-3.5500,stop
7.99,1145247.019398176,29,3,3,3,0,-22.2900,2.0900,-5.2700,-13.2600,0.8900,-1.6500,43.2500,34.3125,16.0625,0.49755859375000,0.47735595703125,0.67572021484375,-0.26068115234375,36.6875,57.5625,75.8750,-9.0300,1.2000,-3.6100,stop
8.00,1145247.019398176,29,3,3,3,0,-16.9600,1.3900,-5.9700,-7.9300,0.1800,-2.3500,29.3750,-0.6250,16.0000,0.49670410156250,0.47955322265625,0.67437744140625,-0.26177978515625,36.6875,57.5625,75.8750,-9.0300,1.2100,-3.6200,stop
8.01,1145247.024269107,29,3,3,3,0,-15.1600,1.4300,-7.4200,-6.1200,0.2100,-3.8400,16.6875,-24.1875,11.6875,0.49774169921875,0.48040771484375,0.67242431640625,-0.26324462890625,39.1875,57.2500,72.6875,-9.0400,1.2100,-3.5800,stop
8.02,1145247.024269107,29,3,3,3,0,-14.4200,1.5500,-9.0300,-5.3700,0.3400,-5.4700,16.6875,-20.4375,5.8125,0.49835205078125,0.48101806640625,0.67089843750000,-0.26483154296875,39.1875,57.2500,72.6875,-9.0500,1.2100,-3.5500,stop
8.03,1145247.041540755,29,3,3,3,0,-13.0000,0.8200,-8.4200,-3.9500,-0.3700,-4.8200,31.6875,16.3750,-1.1250,0.49609375000000,0.48266601562500,0.67089843750000,-0.26605224609375,39.1875,57.2500,72.6875,-9.0400,1.1900,-3.5900,stop
8.04,1145247.041540755,29,3,3,3,0,-11.2800,0.0900,-5.1800,-2.2600,-1.0600,-1.5200,40.0000,39.5625,-5.8125,0.49194335937500,0.48498535156250,0.67193603515625,-0.26696777343750,39.1875,57.2500,72.6875,-9.0200,1.1600,-3.6600,stop
8.05,1145247.055597070,29,3,3,3,0,-10.6600,0.3700,-4.5700,-1.6500,-0.7500,-0.8500,30.5625,34.1875,-10.4375,0.48840332031250,0.48651123046875,0.67315673828125,-0.26776123046875,39.1875,57.2500,72.6875,-9.0000,1.1200,-3.7200,stop
8.06,1145247.055597070,29,3,3,3,0,-9.9800,0.7200,-4.3800,-0.9900,-0.3600,-0.6000,15.8125,35.0625,-14.5000,0.48535156250000,0.48712158203125,0.67486572265625,-0.26782226562500,37.6875,57.5625,73.1875,-8.9800,1.0900,-3.7800,stop
8.07,1145247.061549096,29,3,3,3,0,-8.1400,1.0700,-3.7800,0.8000,0.0100,0.0700,2.6875,51.4375,-16.8125,0.48181152343750,0.48742675781250,0.67767333984375,-0.26654052734375,37.6875,57.5625,73.1875,-8.9500,1.0600,-3.8600,stop
8.08,1145247.061549096,29,3,3,3,0,-7.2400,0.8900,-3.1700,1.6600,-0.1400,0.8000,-6.5000,74.6250,-18.0625,0.47723388671875,0.48779296875000,0.68170166015625,-0.26373291015625,37.6875,57.5625,73.1875,-8.9000,1.0300,-3.9700,stop
8.09,1145247.071599796,29,3,3,3,0,-6.2700,0.4300,-2.4700,2.5600,-0.5800,1.6300,-12.1875,90.3750,-18.1250,0.47192382812500,0.48828125000000,0.68652343750000,-0.25988769531250,37.6875,57.5625,73.1875,-8.8400,1.0200,-4.1100,stop
8.10,1145247.071599796,29,3,3,3,0,-5.5500,0.2000,-1.6600,3.2300,-0.7900,2.5700,-16.8125,85.3125,-17.3125,0.46716308593750,0.48846435546875,0.69110107421875,-0.25598144531250,37.6875,57.5625,73.1875,-8.7800,1.0000,-4.2400,stop
8.11,1145247.088749617,29,3,3,3,0,-5.5500,0.2000,-1.6600,3.2300,-0.7900,2.5700,-16.8125,85.3125,-17.3125,0.46716308593750,0.48846435546875,0.69110107421875,-0.25598144531250,37.6875,57.5625,73.1875,-8.7800,1.0000,-4.2400,stop
8.12,1145247.088749617,29,3,3,3,0,-3.9600,0.2000,-0.3900,4.7700,-0.7900,3.9400,-17.6875,68.7500,-16.0625,0.46337890625000,0.48828125000000,0.69500732421875,-0.25262451171875,37.3750,58.5000,71.2500,-8.7300,0.9900,-4.3400,stop
8.12,1145247.117329939,29,3,3,3,0,-3.2300,0.4300,-0.4200,5.4600,-0.5500,3.9900,-12.2500,57.0625,-13.8750,0.46014404296875,0.48822021484375,0.69812011718750,-0.25000000000000,37.3750,58.5000,71.2500,-8.6900,0.9800,-4.4200,stop
8.13,1145247.117329939,29,3,3,3,0,-2.6200,0.6500,-0.5500,6.0300,-0.3100,3.9400,-6.4375,49.9375,-11.3750,0.45715332031250,0.48834228515625,0.70074462890625,-0.24792480468750,37.3750,58.5000,71.2500,-8.6500,0.9700,-4.5000,stop
8.14,1145247.149226708,29,3,3,3,0,-2.0800,1.0000,-0.6100,6.5300,0.0500,3.9500,-0.1250,39.3125,-8.7500,0.45452880859375,0.48864746093750,0.70269775390625,-0.24664306640625,37.3750,58.5000,71.2500,-8.6200,0.9500,-4.5600,stop
8.15,1145247.149226708,29,3,3,3,0,-1.4000,1.4800,-0.6300,7.2000,0.5300,3.9600,7.0625,26.7500,-6.0625,0.45245361328125,0.48913574218750,0.70385742187500,-0.24615478515625,37.3750,58.5000,71.2500,-8.6000,0.9400,-4.6000,stop
8.16,1145247.154856022,29,3,3,3,0,-1.5400,1.7600,-0.6900,7.0400,0.8400,3.9300,13.6875,15.0000,-2.5625,0.45092773437500,0.48980712890625,0.70428466796875,-0.24645996093750,35.1875,58.0625,75.2500,-8.5900,0.9200,-4.6200,stop
8.17,1145247.154856022,29,3,3,3,0,-1.7800,1.9100,-0.7100,6.8100,1.0000,3.9100,17.1250,2.9375,0.3125,0.45001220703125,0.49053955078125,0.70404052734375,-0.24737548828125,35.1875,58.0625,75.2500,-8.5900,0.9100,-4.6300,stop
8.18,1145247.192203759,29,3,3,3,0,-2.1300,2.0200,-0.7800,6.4600,1.1100,3.8400,16.0625,-8.7500,2.9375,0.44995117187500,0.49121093750000,0.70318603515625,-0.24865722656250,35.1875,58.0625,75.2500,-8.6000,0.9000,-4.6200,stop
8.19,1145247.192203759,29,3,3,3,0,-3.7600,1.9200,-1.1100,4.8500,1.0200,3.4800,11.0625,-19.0000,5.5625,0.45074462890625,0.49157714843750,0.70196533203125,-0.24993896484375,35.1875,58.0625,75.2500,-8.6100,0.9000,-4.5900,stop
8.20,1145247.251756494,29,3,3,3,0,-4.6300,1.7500,-1.3400,4.0000,0.8400,3.2000,4.1875,-28.7500,8.0000,0.45251464843750,0.49157714843750,0.70037841796875,-0.25109863281250,35.1875,58.0625,75.2500,-8.6300,0.9100,-4.5500,stop
8.21,1145247.251756494,29,3,3,3,0,-5.4700,1.5100,-1.9200,3.1900,0.5800,2.5700,-2.2500,-36.6875,10.8125,0.45513916015625,0.49133300781250,0.69848632812500,-0.25207519531250,35.5625,58.7500,74.0625,-8.6600,0.9300,-4.4900,stop
8.22,1145247.297039941,29,3,3,3,0,-6.2800,1.2400,-2.8900,2.4000,0.2800,1.5200,-5.3125,-45.7500,13.4375,0.45843505859375,0.49096679687500,0.69622802734375,-0.25317382812500,35.5625,58.7500,74.0625,-8.6900,0.9500,-4.4200,stop
8.23,1145247.297039941,29,3,3,3,0,-7.9100,0.9900,-5.0600,0.8200,0.0100,-0.7200,0.0625,-58.0625,15.8750,0.46234130859375,0.49060058593750,0.69317626953125,-0.25506591796875,35.5625,58.7500,74.0625,-8.7300,0.9800,-4.3300,stop
8.24,1145247.310616927,29,3,3,3,0,-8.9000,1.0200,-6.0800,-0.1200,0.0200,-1.8400,13.5625,-65.3750,17.5000,0.46606445312500,0.49078369140625,0.68945312500000,-0.25793457031250,35.5625,58.7500,74.0625,-8.7800,0.9900,-4.2400,stop
8.25,1145247.310616927,29,3,3,3,0,-9.8800,0.8800,-5.4600,-1.0400,-0.1100,-1.3200,23.8125,-73.6250,17.1875,0.46984863281250,0.49108886718750,0.68518066406250,-0.26184082031250,35.5625,58.7500,74.0625,-8.8300,1.0000,-4.1300,stop
8.26,1145247.325986962,29,3,3,3,0,-11.9400,0.8000,-4.7200,-3.0600,-0.2000,-0.6900,30.2500,-68.0625,16.0000,0.47302246093750,0.49176025390625,0.68096923828125,-0.26586914062500,35.1875,58.5000,73.2500,-8.8800,1.0100,-4.0300,stop
8.27,1145247.325986962,29,3,3,3,0,-13.0500,0.7600,-4.9000,-4.1300,-0.2400,-0.9500,33.4375,-57.9375,13.6250,0.47534179687500,0.49261474609375,0.67724609375000,-0.26977539062500,35.1875,58.5000,73.2500,-8.9200,1.0000,-3.9400,stop
8.28,1145247.331603580,29,3,3,3,0,-14.5700,0.7200,-4.8400,-5.6200,-0.2800,-0.9700,28.3750,-49.6875,11.4375,0.47735595703125,0.49328613281250,0.67395019531250,-0.27313232421875,35.1875,58.5000,73.2500,-8.9500,1.0000,-3.8700,stop
8.29,1145247.331603580,29,3,3,3,0,-16.2100,0.8700,-4.5400,-7.2300,-0.1200,-0.7400,21.3125,-47.1250,8.9375,0.47943115234375,0.49353027343750,0.67108154296875,-0.27600097656250,35.1875,58.5000,73.2500,-8.9800,1.0000,-3.8000,stop
8.30,1145247.336884179,29,3,3,3,0,-15.9600,1.2200,-4.8500,-6.9500,0.2200,-1.0900,14.0000,-33.3125,5.5625,0.48089599609375,0.49365234375000,0.66912841796875,-0.27801513671875,35.1875,58.5000,73.2500,-9.0000,1.0000,-3.7500,stop
8.31,1145247.336884179,29,3,3,3,0,-14.9400,1.0700,-4.9400,-5.9300,0.0600,-1.2000,9.4375,-8.6875,2.6875,0.48107910156250,0.49401855468750,0.66839599609375,-0.27886962890625,38.5000,58.5000,71.5625,-9.0000,1.0000,-3.7400,stop
8.32,1145247.357690291,29,3,3,3,0,-13.7400,0.8700,-4.9300,-4.7400,-0.1200,-1.1800,9.5625,9.4375,1.2500,0.48016357421875,0.49468994140625,0.66851806640625,-0.27893066406250,38.5000,58.5000,71.5625,-9.0000,1.0000,-3.7500,stop
8.33,1145247.357690291,29,3,3,3,0,-12.7000,0.7300,-4.9800,-3.7100,-0.2600,-1.1800,8.0000,20.8750,0.2500,0.47857666015625,0.49554443359375,0.66918945312500,-0.27850341796875,38.5000,58.5000,71.5625,-8.9800,0.9900,-3.7900,stop
8.34,1145247.363040348,29,3,3,3,0,-10.9200,0.7000,-5.2500,-1.9500,-0.2800,-1.4100,8.6875,29.0000,-0.6250,0.47650146484375,0.49658203125000,0.67016601562500,-0.27783203125000,38.5000,58.5000,71.5625,-8.9600,0.9800,-3.8300,stop
8.35,1145247.363040348,29,3,3,3,0,-10.0200,0.6100,-5.2900,-1.0800,-0.3500,-1.4000,11.3125,35.8750,-1.5000,0.47387695312500,0.49780273437500,0.67144775390625,-0.27697753906250,38.5000,58.5000,71.5625,-8.9400,0.9700,-3.8900,stop
8.36,1145247.370910465,29,3,3,3,0,-9.2400,0.5100,-5.1900,-0.3300,-0.4400,-1.2200,14.0000,43.0625,-2.1875,0.47070312500000,0.49932861328125,0.67297363281250,-0.27600097656250,39.0625,59.5625,71.6875,-8.9100,0.9600,-3.9600,stop
8.37,1145247.370910465,29,3,3,3,0,-9.2400,0.5100,-5.1900,-0.3300,-0.4400,-1.2200,14.0000,43.0625,-2.1875,0.47070312500000,0.49932861328125,0.67297363281250,-0.27600097656250,39.0625,59.5625,71.6875,-8.9100,0.9600,-3.9600,stop
8.38,1145247.401626733,29,3,3,3,0,-8.4700,0.4900,-4.9300,0.4000,-0.4500,-0.8900,15.9375,50.3125,-2.0000,0.46704101562500,0.50103759765625,0.67474365234375,-0.27484130859375,39.0625,59.5625,71.6875,-8.8800,0.9500,-4.0400,stop
8.38,1145247.401626733,29,3,3,3,0,-6.9800,0.4300,-4.3700,1.8500,-0.5000,-0.2300,17.1875,55.6875,-1.7500,0.46295166015625,0.50299072265625,0.67663574218750,-0.27349853515625,39.0625,59.5625,71.6875,-8.8400,0.9300,-4.1300,stop
8.39,1145247.416282413,29,3,3,3,0,-6.3200,0.3700,-4.1700,2.4700,-0.5500,0.0500,18.0000,57.5000,-1.0625,0.45874023437500,0.50500488281250,0.67858886718750,-0.27209472656250,39.0625,59.5625,71.6875,-8.8000,0.9200,-4.2200,stop
8.40,1145247.416282413,29,3,3,3,0,-5.8700,0.3800,-3.9000,2.8800,-0.5200,0.4000,17.7500,54.2500,-0.5625,0.45471191406250,0.50695800781250,0.68035888671875,-0.27075195312500,39.0625,59.5625,71.6875,-8.7600,0.9000,-4.3100,stop
8.41,1145247.421058496,29,3,3,3,0,-5.0800,0.3200,-3.4600,3.6400,-0.5700,0.9200,17.6875,48.6250,-0.2500,0.45104980468750,0.50878906250000,0.68188476562500,-0.26965332031250,37.5625,59.5000,71.5625,-8.7200,0.8900,-4.3800,stop
8.42,1145247.421058496,29,3,3,3,0,-4.8100,0.3600,-3.3700,3.8700,-0.5100,1.0800,18.8125,43.8750,0.3750,0.44763183593750,0.51055908203125,0.68310546875000,-0.26885986328125,37.5625,59.5000,71.5625,-8.6800,0.8800,-4.4500,stop
8.43,1145247.430348413,29,3,3,3,0,-4.7700,0.3300,-3.3400,3.8800,-0.5300,1.1600,19.3125,37.8750,0.7500,0.44451904296875,0.51226806640625,0.68414306640625,-0.26831054687500,37.5625,59.5000,71.5625,-8.6500,0.8600,-4.5100,stop
8.44,1145247.430348413,29,3,3,3,0,-5.0700,0.3200,-3.2300,3.5600,-0.5200,1.3300,17.8750,29.4375,0.5000,0.44195556640625,0.51361083984375,0.68481445312500,-0.26806640625000,37.5625,59.5000,71.5625,-8.6300,0.8500,-4.5600,stop
8.45,1145247.434568180,29,3,3,3,0,-5.8300,0.2800,-3.0200,2.7800,-0.5500,1.5700,15.2500,18.7500,0.0000,0.44018554687500,0.51464843750000,0.68518066406250,-0.26812744140625,37.5625,59.5000,71.5625,-8.6200,0.8300,-4.5900,stop
8.46,1145247.434568180,29,3,3,3,0,-6.4900,0.2500,-3.2100,2.1200,-0.5700,1.3900,12.5625,7.6250,-1.0625,0.43908691406250,0.51525878906250,0.68524169921875,-0.26855468750000,37.1875,60.5625,72.0000,-8.6100,0.8200,-4.6100,stop
8.47,1145247.445542342,29,3,3,3,0,-7.2300,0.2900,-3.6700,1.3800,-0.5100,0.9300,11.0625,-5.3125,-2.0625,0.43890380859375,0.51544189453125,0.68487548828125,-0.26953125000000,37.1875,60.5625,72.0000,-8.6200,0.8100,-4.6000,stop
8.48,1145247.445542342,29,3,3,3,0,-7.8800,0.3800,-4.3300,0.7500,-0.4100,0.2400,11.0000,-20.4375,-2.8750,0.43957519531250,0.51519775390625,0.68395996093750,-0.27124023437500,37.1875,60.5625,72.0000,-8.6300,0.8000,-4.5700,stop
8.49,1145247.490793156,29,3,3,3,0,-9.0900,0.7000,-5.6800,-0.4300,-0.0800,-1.1500,11.0000,-31.5000,-3.0625,0.44085693359375,0.51470947265625,0.68261718750000,-0.27343750000000,37.1875,60.5625,72.0000,-8.6600,0.7800,-4.5200,stop
8.50,1145247.490793156,29,3,3,3,0,-9.6300,0.7400,-5.7700,-0.9300,-0.0200,-1.3100,10.6875,-41.2500,-2.2500,0.44274902343750,0.51397705078125,0.68090820312500,-0.27600097656250,37.1875,60.5625,72.0000,-8.6900,0.7700,-4.4600,stop
8.51,1145247.505144596,29,3,3,3,0,-10.2200,0.7300,-5.7400,-1.5000,-0.0300,-1.3400,10.5000,-43.5625,-0.4375,0.44488525390625,0.51330566406250,0.67895507812500,-0.27862548828125,36.5000,60.1875,72.0000,-8.7200,0.7600,-4.4000,stop
8.52,1145247.505144596,29,3,3,3,0,-10.7500,0.6600,-5.7500,-1.9900,-0.0900,-1.4100,10.3750,-40.0625,1.0000,0.44683837890625,0.51281738281250,0.67706298828125,-0.28094482421875,36.5000,60.1875,72.0000,-8.7500,0.7600,-4.3400,stop
8.53,1145247.510591617,29,3,3,3,0,-12.1800,0.5200,-5.6000,-3.3900,-0.2300,-1.3100,8.5625,-34.5625,2.7500,0.44854736328125,0.51245117187500,0.67541503906250,-0.28289794921875,36.5000,60.1875,72.0000,-8.7800,0.7600,-4.2900,stop
8.54,1145247.510591617,29,3,3,3,0,-12.2800,0.6600,-5.4700,-3.4800,-0.0900,-1.2200,4.0000,-24.5000,4.4375,0.44989013671875,0.51226806640625,0.67413330078125,-0.28405761718750,36.5000,60.1875,72.0000,-8.8000,0.7600,-4.2500,stop
8.55,1145247.536533309,29,3,3,3,0,-11.8800,0.6900,-5.3700,-3.0700,-0.0700,-1.1300,0.1875,-8.7500,4.4375,0.45056152343750,0.51232910156250,0.67358398437500,-0.28430175781250,36.5000,60.1875,72.0000,-8.8000,0.7700,-4.2400,stop
8.56,1145247.536533309,29,3,3,3,0,-11.3100,0.5700,-5.1700,-2.5000,-0.2000,-0.9300,-0.6875,5.3125,2.5000,0.45031738281250,0.51257324218750,0.67370605468750,-0.28393554687500,36.8750,61.2500,70.7500,-8.8000,0.7700,-4.2400,stop
8.57,1145247.566144881,29,3,3,3,0,-9.7400,0.4900,-4.9200,-0.9400,-0.2800,-0.6600,-0.7500,14.0625,0.4375,0.44952392578125,0.51287841796875,0.67425537109375,-0.28326416015625,36.8750,61.2500,70.7500,-8.7900,0.7700,-4.2600,stop
8.58,1145247.566144881,29,3,3,3,0,-9.1300,0.3900,-4.9300,-0.3500,-0.3700,-0.6300,0.0000,19.1250,-0.5000,0.44842529296875,0.51336669921875,0.67504882812500,-0.28240966796875,36.8750,61.2500,70.7500,-8.7700,0.7700,-4.2900,stop
8.59,1145247.627945906,29,3,3,3,0,-8.6400,0.3300,-4.9600,0.1100,-0.4300,-0.6300,2.3125,24.1250,-1.4375,0.44683837890625,0.51391601562500,0.67596435546875,-0.28149414062500,36.8750,61.2500,70.7500,-8.7600,0.7700,-4.3300,stop
8.60,1145247.627945906,29,3,3,3,0,-7.8500,0.1200,-4.7500,0.8800,-0.6400,-0.3700,5.3750,28.6875,-2.0625,0.44482421875000,0.51470947265625,0.67706298828125,-0.28063964843750,36.8750,61.2500,70.7500,-8.7400,0.7600,-4.3800,stop
8.61,1145247.635294498,29,3,3,3,0,-7.5000,0.1300,-4.5800,1.2100,-0.6200,-0.1600,7.5625,30.7500,-3.1875,0.44262695312500,0.51556396484375,0.67822265625000,-0.27978515625000,36.7500,60.5625,70.6875,-8.7100,0.7500,-4.4200,stop
8.62,1145247.635294498,29,3,3,3,0,-7.2100,0.1400,-4.4200,1.4800,-0.5900,0.0500,7.7500,29.3750,-4.8125,0.44036865234375,0.51629638671875,0.67938232421875,-0.27911376953125,36.7500,60.5625,70.6875,-8.6900,0.7400,-4.4700,stop
8.63,1145247.641362329,29,3,3,3,0,-7.2100,0.1400,-4.4200,1.4800,-0.5900,0.0500,7.7500,29.3750,-4.8125,0.44036865234375,0.51629638671875,0.67938232421875,-0.27911376953125,36.7500,60.5625,70.6875,-8.6900,0.7400,-4.4700,stop
8.63,1145247.641362329,29,3,3,3,0,-7.0300,0.1500,-4.2700,1.6300,-0.5700,0.2400,6.1875,25.7500,-5.9375,0.43841552734375,0.51684570312500,0.68048095703125,-0.27856445312500,36.7500,60.5625,70.6875,-8.6700,0.7200,-4.5100,stop
8.64,1145247.646691390,29,3,3,3,0,-6.9700,0.2000,-3.9600,1.6800,-0.5000,0.5700,4.5625,21.1875,-7.0625,0.43676757812500,0.51708984375000,0.68151855468750,-0.27819824218750,36.7500,60.5625,70.6875,-8.6500,0.7100,-4.5400,stop
8.65,1145247.646691390,29,3,3,3,0,-7.0300,0.2400,-3.8500,1.6100,-0.4500,0.7100,2.6875,16.8750,-7.8125,0.43548583984375,0.51715087890625,0.68243408203125,-0.27789306640625,36.7500,60.5625,70.6875,-8.6400,0.6900,-4.5700,stop
8.66,1145247.652083317,29,3,3,3,0,-7.2400,0.3200,-3.8200,1.3900,-0.3600,0.7600,0.7500,12.1250,-8.1250,0.43450927734375,0.51696777343750,0.68322753906250,-0.27770996093750,37.0625,61.2500,73.0625,-8.6300,0.6800,-4.5900,stop
8.67,1145247.652083317,29,3,3,3,0,-7.5300,0.3800,-3.7700,1.0900,-0.2900,0.8200,-1.1250,6.1250,-8.0625,0.43402099609375,0.51660156250000,0.68389892578125,-0.27764892578125,37.0625,61.2500,73.0625,-8.6300,0.6700,-4.6000,stop
8.68,1145247.670449894,29,3,3,3,0,-8.2200,0.5900,-3.9300,0.4000,-0.0700,0.6600,-3.3750,0.0000,-7.8125,0.43395996093750,0.51599121093750,0.68432617187500,-0.27777099609375,37.0625,61.2500,73.0625,-8.6300,0.6600,-4.6000,stop
8.69,1145247.670449894,29,3,3,3,0,-8.5200,0.6900,-4.0200,0.1100,0.0300,0.5600,-5.9375,-5.2500,-7.8125,0.43432617187500,0.51519775390625,0.68463134765625,-0.27795410156250,37.0625,61.2500,73.0625,-8.6400,0.6500,-4.5900,stop
8.70,1145247.701255436,29,3,3,3,0,-8.8100,0.7900,-4.1700,-0.1600,0.1400,0.3900,-8.1250,-8.7500,-7.8750,0.43505859375000,0.51416015625000,0.68481445312500,-0.27813720703125,37.0625,61.2500,73.0625,-8.6400,0.6500,-4.5700,stop
8.71,1145247.701255436,29,3,3,3,0,-9.0400,0.8600,-4.3300,-0.3800,0.2100,0.2200,-9.9375,-10.4375,-7.8125,0.43591308593750,0.51306152343750,0.68505859375000,-0.27832031250000,36.0625,61.5625,71.5000,-8.6500,0.6400,-4.5600,stop
8.73,1145247.747668969,29,3,3,3,0,-9.3800,0.9100,-4.8000,-0.7000,0.2700,-0.2700,-12.3750,-10.3750,-6.5000,0.43792724609375,0.51080322265625,0.68542480468750,-0.27838134765625,36.0625,61.5625,71.5000,-8.6700,0.6400,-4.5200,stop
8.74,1145247.747668969,29,3,3,3,0,-9.3700,0.9100,-4.9000,-0.6900,0.2600,-0.3800,-13.1250,-8.4375,-5.3125,0.43884277343750,0.50976562500000,0.68566894531250,-0.27819824218750,36.0625,61.5625,71.5000,-8.6800,0.6400,-4.5100,stop
8.75,1145247.752533512,29,3,3,3,0,-9.2600,0.9000,-4.9600,-0.5700,0.2500,-0.4600,-13.5000,-5.8125,-4.1875,0.43969726562500,0.50885009765625,0.68597412109375,-0.27777099609375,36.0625,61.5625,71.5000,-8.6800,0.6500,-4.5000,stop
8.76,1145247.752533512,29,3,3,3,0,-9.1100,0.9300,-4.9400,-0.4200,0.2700,-0.4500,-13.4375,-2.7500,-2.8750,0.44042968750000,0.50811767578125,0.68627929687500,-0.27722167968750,36.3750,60.5625,71.5000,-8.6900,0.6500,-4.4900,stop
8.77,1145247.756974389,29,3,3,3,0,-8.9800,0.9300,-4.9100,-0.2800,0.2700,-0.4200,-13.1250,0.5000,-2.0625,0.44091796875000,0.50750732421875,0.68670654296875,-0.27648925781250,36.3750,60.5625,71.5000,-8.6900,0.6600,-4.4900,stop
8.78,1145247.756974389,29,3,3,3,0,-8.8300,0.9500,-4.9000,-0.1400,0.2800,-0.4000,-12.5000,3.1250,-1.2500,0.44128417968750,0.50701904296875,0.68719482421875,-0.27569580078125,36.3750,60.5625,71.5000,-8.6800,0.6700,-4.4900,stop
8.79,1145247.791655135,29,3,3,3,0,-8.6200,0.9300,-4.7600,0.0600,0.2500,-0.2600,-11.9375,5.5625,-0.8125,0.44146728515625,0.50659179687500,0.68774414062500,-0.27471923828125,36.3750,60.5625,71.5000,-8.6800,0.6800,-4.5000,stop
8.80,1145247.791655135,29,3,3,3,0,-8.4900,0.8800,-4.7200,0.1800,0.1900,-0.2100,-11.2500,6.8750,-0.8125,0.44152832031250,0.50628662109375,0.68829345703125,-0.27380371093750,36.3750,60.5625,71.5000,-8.6700,0.6800,-4.5100,stop
8.81,1145247.796850040,29,3,3,3,0,-8.4100,0.8400,-4.6500,0.2500,0.1500,-0.1300,-10.6875,8.0000,-0.8750,0.44146728515625,0.50604248046875,0.68890380859375,-0.27282714843750,37.0625,60.1875,73.3750,-8.6700,0.6900,-4.5200,stop
8.82,1145247.796850040,29,3,3,3,0,-8.3600,0.7900,-4.5400,0.2900,0.0900,0.0000,-10.2500,8.7500,-0.8750,0.44134521484375,0.50579833984375,0.68951416015625,-0.27185058593750,37.0625,60.1875,73.3750,-8.6600,0.7000,-4.5300,stop
8.83,1145247.850771183,29,3,3,3,0,-8.3200,0.6000,-4.4700,0.3300,-0.0900,0.0600,-9.5625,7.6875,-0.8125,0.44128417968750,0.50555419921875,0.69012451171875,-0.27099609375000,37.0625,60.1875,73.3750,-8.6600,0.7000,-4.5400,stop
8.84,1145247.850771183,29,3,3,3,0,-8.2800,0.5300,-4.5300,0.3700,-0.1700,0.0200,-8.7500,5.9375,-0.6250,0.44134521484375,0.50531005859375,0.69055175781250,-0.27020263671875,37.0625,60.1875,73.3750,-8.6500,0.7100,-4.5500,stop
8.85,1145247.856825219,29,3,3,3,0,-8.2500,0.4800,-4.5000,0.3900,-0.2300,0.0500,-8.4375,5.1875,-0.4375,0.44140625000000,0.50512695312500,0.69097900390625,-0.26947021484375,37.0625,60.1875,73.3750,-8.6500,0.7200,-4.5600,stop
8.86,1145247.856825219,29,3,3,3,0,-8.2300,0.4000,-4.4700,0.4000,-0.3100,0.0900,-8.0000,5.1250,0.0000,0.44140625000000,0.50488281250000,0.69134521484375,-0.26879882812500,36.0625,60.5625,73.3750,-8.6400,0.7200,-4.5600,stop
8.87,1145247.862052230,29,3,3,3,0,-8.2200,0.3900,-4.4500,0.4100,-0.3300,0.1200,-7.5000,3.7500,0.1875,0.44152832031250,0.50469970703125,0.69171142578125,-0.26812744140625,36.0625,60.5625,73.3750,-8.6400,0.7300,-4.5700,stop
8.88,1145247.862052230,29,3,3,3,0,-8.2400,0.4500,-4.4800,0.4000,-0.2800,0.0800,-7.1250,1.5625,0.5625,0.44177246093750,0.50451660156250,0.69189453125000,-0.26763916015625,36.0625,60.5625,73.3750,-8.6400,0.7300,-4.5700,stop
8.89,1145247.867587182,29,3,3,3,0,-8.2700,0.5300,-4.5300,0.3600,-0.2100,0.0400,-6.9375,-0.5625,1.1875,0.44213867187500,0.50427246093750,0.69195556640625,-0.26721191406250,36.0625,60.5625,73.3750,-8.6400,0.7400,-4.5700,stop
8.90,1145247.867587182,29,3,3,3,0,-8.3100,0.6100,-4.6000,0.2600,0.0400,0.1000,-6.8125,-2.3750,1.5625,0.43225097656250,0.50268554687500,0.69824218750000,-0.26995849609375,36.0625,60.5625,73.3750,-8.5800,0.5600,-4.7100,stop
8.91,1145247.911887842,29,3,3,3,0,-8.4100,0.8100,-4.6300,0.1700,0.2400,0.0700,-7.0625,-3.5625,1.8125,0.43286132812500,0.50244140625000,0.69824218750000,-0.26959228515625,35.6875,60.5625,72.2500,-8.5800,0.5700,-4.7000,stop
8.92,1145247.911887842,29,3,3,3,0,-8.4800,0.8600,-4.6800,0.1000,0.2800,0.0100,-7.7500,-4.8750,2.0625,0.43353271484375,0.50213623046875,0.69812011718750,-0.26928710937500,35.6875,60.5625,72.2500,-8.5800,0.5800,-4.6900,stop
8.93,1145247.917385807,29,3,3,3,0,-8.5400,0.9300,-4.7600,0.0400,0.3400,-0.0700,-8.6250,-5.5000,2.3750,0.43432617187500,0.50183105468750,0.69799804687500,-0.26885986328125,35.6875,60.5625,72.2500,-8.5900,0.5900,-4.6800,stop
8.94,1145247.917385807,29,3,3,3,0,-8.6400,0.9900,-4.8800,-0.0400,0.3800,-0.2000,-9.5000,-5.3125,2.5000,0.43511962890625,0.50152587890625,0.69793701171875,-0.26843261718750,35.6875,60.5625,72.2500,-8.5900,0.6000,-4.6800,stop
8.95,1145247.971461816,29,3,3,3,0,-8.6900,0.9700,-4.9400,-0.0900,0.3500,-0.2700,-9.6250,-5.0000,2.9375,0.43591308593750,0.50122070312500,0.69781494140625,-0.26794433593750,35.6875,60.5625,72.2500,-8.6000,0.6100,-4.6700,stop
8.96,1145247.971461816,29,3,3,3,0,-8.7300,0.9800,-4.9700,-0.1300,0.3500,-0.3000,-8.9375,-3.8125,3.2500,0.43658447265625,0.50097656250000,0.69775390625000,-0.26745605468750,34.8750,59.7500,72.1875,-8.6000,0.6200,-4.6600,stop
8.97,1145247.977051212,29,3,3,3,0,-8.7300,0.9400,-4.9600,-0.1300,0.3000,-0.3000,-7.8125,-2.3750,3.3125,0.43719482421875,0.50085449218750,0.69769287109375,-0.26696777343750,34.8750,59.7500,72.1875,-8.6000,0.6400,-4.6600,stop
8.98,1145247.977051212,29,3,3,3,0,-8.7000,0.8900,-4.8300,-0.0900,0.2400,-0.1700,-6.9375,-0.8750,3.3125,0.43762207031250,0.50073242187500,0.69769287109375,-0.26641845703125,34.8750,59.7500,72.1875,-8.6000,0.6500,-4.6500,stop
8.99,1145247.983145898,29,3,3,3,0,-8.6500,0.8900,-4.8100,-0.0500,0.2200,-0.1600,-6.1250,-0.1250,3.4375,0.43792724609375,0.50079345703125,0.69769287109375,-0.26580810546875,34.8750,59.7500,72.1875,-8.6000,0.6600,-4.6500,stop
9.00,1145247.983145898,29,3,3,3,0,-8.6100,0.8700,-4.7500,-0.0100,0.2000,-0.0900,-5.3125,0.4375,3.3125,0.43829345703125,0.50085449218750,0.69763183593750,-0.26525878906250,34.8750,59.7500,72.1875,-8.6000,0.6700,-4.6500,stop
9.01,1145247.988488550,29,3,3,3,0,-8.5500,0.8500,-4.6900,0.0400,0.1600,-0.0300,-4.8750,0.6250,3.3125,0.43853759765625,0.50091552734375,0.69763183593750,-0.26477050781250,36.7500,59.5000,73.2500,-8.6000,0.6800,-4.6600,stop
9.02,1145247.988488550,29,3,3,3,0,-8.4600,0.7900,-4.6900,0.1300,0.1000,-0.0300,-4.4375,0.6875,3.3125,0.43878173828125,0.50097656250000,0.69757080078125,-0.26428222656250,36.7500,59.5000,73.2500,-8.6000,0.6900,-4.6600,stop
9.03,1145248.016528996,29,3,3,3,0,-8.4300,0.8100,-4.6600,0.1600,0.1000,0.0000,-3.8125,0.0000,3.5000,0.43902587890625,0.50109863281250,0.69750976562500,-0.26385498046875,36.7500,59.5000,73.2500,-8.5900,0.7000,-4.6600,stop
9.04,1145248.016528996,29,3,3,3,0,-8.4400,0.8100,-4.6400,0.1500,0.0900,0.0100,-3.6250,-0.8750,3.5625,0.43933105468750,0.50115966796875,0.69744873046875,-0.26348876953125,36.7500,59.5000,73.2500,-8.5900,0.7100,-4.6500,stop
9.05,1145248.046215153,29,3,3,3,0,-8.4100,0.8300,-4.6200,0.1800,0.1000,0.0200,-3.5000,-2.0000,3.3750,0.43963623046875,0.50122070312500,0.69726562500000,-0.26324462890625,36.7500,59.5000,73.2500,-8.6000,0.7200,-4.6500,stop
9.06,1145248.046215153,29,3,3,3,0,-8.4300,0.8700,-4.5600,0.1600,0.1400,0.0800,-3.5625,-3.0625,3.3750,0.44006347656250,0.50122070312500,0.69708251953125,-0.26300048828125,35.2500,59.0625,72.5625,-8.6000,0.7300,-4.6500,stop
9.07,1145248.051141911,29,3,3,3,0,-8.4600,0.8900,-4.5700,0.1400,0.1500,0.0600,-3.7500,-4.6250,3.5000,0.44061279296875,0.50122070312500,0.69683837890625,-0.26275634765625,35.2500,59.0625,72.5625,-8.6000,0.7400,-4.6400,stop
9.08,1145248.051141911,29,3,3,3,0,-8.4600,0.9100,-4.5800,0.1400,0.1600,0.0400,-3.9375,-6.0625,3.3125,0.44128417968750,0.50115966796875,0.69653320312500,-0.26263427734375,35.2500,59.0625,72.5625,-8.6000,0.7400,-4.6300,stop
9.09,1145248.091478499,29,3,3,3,0,-8.5400,0.9400,-4.5600,0.0600,0.1800,0.0600,-3.8750,-7.2500,3.2500,0.44195556640625,0.50103759765625,0.69616699218750,-0.26257324218750,35.2500,59.0625,72.5625,-8.6100,0.7500,-4.6200,stop
9.10,1145248.091478499,29,3,3,3,0,-8.5900,0.9400,-4.5200,0.0200,0.1700,0.0800,-3.8125,-8.3125,3.4375,0.44274902343750,0.50091552734375,0.69580078125000,-0.26251220703125,35.2500,59.0625,72.5625,-8.6200,0.7600,-4.6100,stop
9.11,1145248.137696558,29,3,3,3,0,-8.6200,0.9400,-4.5500,0.0000,0.1700,0.0300,-3.6875,-9.0000,3.3750,0.44354248046875,0.50079345703125,0.69537353515625,-0.26251220703125,36.0625,59.0625,72.0625,-8.6200,0.7700,-4.5900,stop
9.12,1145248.137696558,29,3,3,3,0,-8.6500,0.9600,-4.5900,-0.0200,0.1800,-0.0100,-3.3750,-9.1250,3.1250,0.44433593750000,0.50067138671875,0.69494628906250,-0.26257324218750,36.0625,59.0625,72.0625,-8.6300,0.7800,-4.5800,stop
9.13,1145248.165700138,29,3,3,3,0,-8.7100,1.0000,-4.6100,-0.0700,0.2000,-0.0500,-2.9375,-8.6250,2.9375,0.44512939453125,0.50061035156250,0.69451904296875,-0.26257324218750,36.0625,59.0625,72.0625,-8.6400,0.7900,-4.5600,stop
9.14,1145248.165700138,29,3,3,3,0,-8.7600,1.0200,-4.5700,-0.1200,0.2200,-0.0100,-2.3125,-8.0625,2.6250,0.44580078125000,0.50048828125000,0.69409179687500,-0.26263427734375,36.0625,59.0625,72.0625,-8.6400,0.8000,-4.5500,stop
9.15,1145248.171207015,29,3,3,3,0,-8.8300,1.0400,-4.5000,-0.1800,0.2300,0.0400,-1.6875,-7.0000,2.2500,0.44635009765625,0.50042724609375,0.69378662109375,-0.26275634765625,36.0625,59.0625,72.0625,-8.6500,0.8000,-4.5400,stop
9.16,1145248.171207015,29,3,3,3,0,-8.9000,1.0400,-4.5100,-0.2400,0.2300,0.0100,-0.9375,-5.8125,1.6875,0.44683837890625,0.50036621093750,0.69342041015625,-0.26281738281250,36.3750,59.0625,73.0000,-8.6500,0.8100,-4.5300,stop
9.17,1145248.176415999,29,3,3,3,0,-8.9400,1.0700,-4.5500,-0.2800,0.2600,-0.0200,-0.2500,-4.8125,1.2500,0.44720458984375,0.50036621093750,0.69317626953125,-0.26293945312500,36.3750,59.0625,73.0000,-8.6600,0.8100,-4.5200,stop
9.18,1145248.176415999,29,3,3,3,0,-8.9600,1.0700,-4.5200,-0.2900,0.2600,0.0000,0.6250,-3.1250,1.0000,0.44744873046875,0.50036621093750,0.69293212890625,-0.26306152343750,36.3750,59.0625,73.0000,-8.6600,0.8100,-4.5200,stop
9.19,1145248.181752506,29,3,3,3,0,-8.9200,1.0800,-4.5000,-0.2500,0.2600,0.0100,1.6875,-1.6250,0.9375,0.44757080078125,0.50048828125000,0.69274902343750,-0.26312255859375,36.3750,59.0625,73.0000,-8.6600,0.8100,-4.5100,stop
9.20,1145248.181752506,29,3,3,3,0,-8.8700,1.1000,-4.4400,-0.2000,0.2800,0.0700,2.3125,-0.5000,0.8125,0.44757080078125,0.50067138671875,0.69262695312500,-0.26318359375000,36.3750,59.0625,73.0000,-8.6600,0.8100,-4.5100,stop
9.21,1145248.225722314,29,3,3,3,0,-8.8000,1.1000,-4.3200,-0.1400,0.2800,0.1900,2.3125,0.5625,0.8750,0.44757080078125,0.50085449218750,0.69244384765625,-0.26324462890625,37.5000,58.3750,73.2500,-8.6600,0.8200,-4.5100,stop
9.22,1145248.225722314,29,3,3,3,0,-8.7500,1.1600,-4.3200,-0.0800,0.3400,0.1900,2.6875,1.0000,1.0000,0.44757080078125,0.50109863281250,0.69232177734375,-0.26324462890625,37.5000,58.3750,73.2500,-8.6600,0.8200,-4.5100,stop
9.23,1145248.301801823,29,3,3,3,0,-8.7000,1.1500,-4.2500,-0.0300,0.3200,0.2600,2.5000,1.3125,0.9375,0.44763183593750,0.50128173828125,0.69213867187500,-0.26324462890625,37.5000,58.3750,73.2500,-8.6600,0.8200,-4.5100,stop
9.24,1145248.301801823,29,3,3,3,0,-8.5900,1.0600,-4.2000,0.0700,0.2300,0.3100,2.3125,2.4375,1.3750,0.44757080078125,0.50158691406250,0.69201660156250,-0.26312255859375,37.5000,58.3750,73.2500,-8.6600,0.8300,-4.5100,stop
9.25,1145248.307267847,29,3,3,3,0,-8.5300,1.0800,-4.2400,0.1200,0.2500,0.2700,2.6250,2.1875,1.1875,0.44750976562500,0.50183105468750,0.69189453125000,-0.26306152343750,37.5000,58.3750,73.2500,-8.6600,0.8300,-4.5200,stop
9.26,1145248.307267847,29,3,3,3,0,-8.5400,1.0600,-4.2000,0.1100,0.2200,0.3100,3.0625,0.8125,1.2500,0.44750976562500,0.50207519531250,0.69165039062500,-0.26312255859375,36.0625,58.3750,73.0000,-8.6600,0.8300,-4.5200,stop
9.27,1145248.312962915,29,3,3,3,0,-8.5500,1.0500,-4.1900,0.1000,0.2100,0.3200,3.6250,-1.0000,1.1250,0.44763183593750,0.50225830078125,0.69140625000000,-0.26330566406250,36.0625,58.3750,73.0000,-8.6600,0.8300,-4.5100,stop
9.28,1145248.312962915,29,3,3,3,0,-8.5900,1.0700,-4.2400,0.0600,0.2300,0.2600,3.9375,-2.8125,0.8750,0.44781494140625,0.50244140625000,0.69104003906250,-0.26361083984375,36.0625,58.3750,73.0000,-8.6600,0.8400,-4.5100,stop
9.29,1145248.318175155,29,3,3,3,0,-8.6200,1.1200,-4.3000,0.0400,0.2800,0.2000,3.6250,-3.8125,0.6875,0.44805908203125,0.50256347656250,0.69067382812500,-0.26391601562500,36.0625,58.3750,73.0000,-8.6700,0.8400,-4.5000,stop
9.30,1145248.318175155,29,3,3,3,0,-8.7000,1.1200,-4.2600,-0.0200,0.2800,0.2300,2.8750,-3.5000,0.2500,0.44824218750000,0.50262451171875,0.69036865234375,-0.26416015625000,36.0625,58.3750,73.0000,-8.6700,0.8400,-4.4900,stop
9.31,1145248.323483993,29,3,3,3,0,-8.7400,1.1300,-4.1900,-0.0600,0.2900,0.2900,1.8750,-2.9375,0.0625,0.44854736328125,0.50262451171875,0.69012451171875,-0.26434326171875,36.7500,58.6875,72.5625,-8.6700,0.8400,-4.4800,stop
9.32,1145248.323483993,29,3,3,3,0,-8.8100,1.1500,-4.1900,-0.1300,0.3000,0.2800,0.7500,-2.8125,0.0000,0.44891357421875,0.50262451171875,0.68981933593750,-0.26446533203125,36.7500,58.6875,72.5625,-8.6800,0.8400,-4.4800,stop
9.33,1145248.328611190,29,3,3,3,0,-8.8400,1.1600,-4.2100,-0.1500,0.3000,0.2600,-0.2500,-2.8125,0.0000,0.44934082031250,0.50262451171875,0.68957519531250,-0.26452636718750,36.7500,58.6875,72.5625,-8.6800,0.8500,-4.4700,stop
9.34,1145248.328611190,29,3,3,3,0,-8.8400,1.1300,-4.2200,-0.1500,0.2800,0.2400,-0.8750,-2.4375,0.0000,0.44976806640625,0.50250244140625,0.68933105468750,-0.26452636718750,36.7500,58.6875,72.5625,-8.6800,0.8500,-4.4600,stop
9.35,1145248.333876774,29,3,3,3,0,-8.8500,1.1400,-4.1900,-0.1600,0.2700,0.2600,-1.3750,-2.1250,0.0625,0.45019531250000,0.50244140625000,0.68914794921875,-0.26446533203125,36.7500,58.6875,72.5625,-8.6900,0.8600,-4.4500,stop
9.36,1145248.333876774,29,3,3,3,0,-8.8100,1.0800,-4.2000,-0.1200,0.2200,0.2400,-2.1875,-1.6875,0.3125,0.45062255859375,0.50231933593750,0.68902587890625,-0.26440429687500,36.7500,58.6875,71.7500,-8.6900,0.8600,-4.4500,stop
9.37,1145248.361971216,29,3,3,3,0,-8.7600,1.0800,-4.2300,-0.0700,0.2100,0.2100,-3.1875,-1.1875,0.2500,0.45098876953125,0.50219726562500,0.68890380859375,-0.26422119140625,36.7500,58.6875,71.7500,-8.6900,0.8700,-4.4400,stop
9.38,1145248.361971216,29,3,3,3,0,-8.7800,1.0600,-4.2800,-0.0900,0.1800,0.1600,-4.1250,-0.8750,0.1250,0.45135498046875,0.50201416015625,0.68890380859375,-0.26397705078125,36.7500,58.6875,71.7500,-8.6900,0.8700,-4.4400,stop
9.39,1145248.376259994,29,3,3,3,0,-8.7800,1.0500,-4.2300,-0.0800,0.1700,0.2000,-4.8750,0.0000,0.0625,0.45172119140625,0.50183105468750,0.68890380859375,-0.26367187500000,36.7500,58.6875,71.7500,-8.6900,0.8800,-4.4400,stop
9.40,1145248.376259994,29,3,3,3,0,-8.7600,0.9900,-4.2400,-0.0600,0.1000,0.1800,-5.1875,0.5625,-0.1250,0.45202636718750,0.50158691406250,0.68902587890625,-0.26330566406250,36.7500,58.6875,71.7500,-8.6900,0.8800,-4.4300,stop
9.41,1145248.407673893,29,3,3,3,0,-8.7300,0.9800,-4.1900,-0.0300,0.0900,0.2400,-5.3750,0.9375,0.0000,0.45233154296875,0.50140380859375,0.68908691406250,-0.26293945312500,36.7500,58.3750,71.7500,-8.6900,0.8900,-4.4300,stop
9.42,1145248.407673893,29,3,3,3,0,-8.7300,1.0000,-4.1600,-0.0300,0.1000,0.2700,-5.3125,1.0625,0.0000,0.45257568359375,0.50122070312500,0.68920898437500,-0.26257324218750,36.7500,58.3750,71.7500,-8.6900,0.8900,-4.4300,stop
9.43,1145248.413369613,29,3,3,3,0,-8.6800,1.0400,-4.1500,0.0100,0.1400,0.2700,-5.2500,1.1875,0.0000,0.45288085937500,0.50103759765625,0.68927001953125,-0.26220703125000,36.7500,58.3750,71.7500,-8.6900,0.9000,-4.4300,stop
9.44,1145248.413369613,29,3,3,3,0,-8.6600,1.0700,-4.1100,0.0300,0.1600,0.3100,-5.3125,1.1875,0.0000,0.45318603515625,0.50085449218750,0.68939208984375,-0.26184082031250,36.7500,58.3750,71.7500,-8.6900,0.9100,-4.4300,stop
9.45,1145248.435870426,29,3,3,3,0,-8.6400,1.0800,-4.1000,0.0500,0.1700,0.3300,-5.4375,0.7500,0.0000,0.45349121093750,0.50061035156250,0.68945312500000,-0.26147460937500,36.7500,58.3750,71.7500,-8.7000,0.9100,-4.4300,stop
9.46,1145248.435870426,29,3,3,3,0,-8.6600,1.1000,-4.0700,0.0300,0.1800,0.3500,-5.8750,0.3125,0.0000,0.45397949218750,0.50036621093750,0.68945312500000,-0.26110839843750,36.3750,58.6875,72.5625,-8.7000,0.9200,-4.4200,stop
9.47,1145248.466114201,29,3,3,3,0,-8.6100,1.1000,-4.1400,0.0800,0.1700,0.2700,-6.4375,0.0000,-0.0625,0.45440673828125,0.50012207031250,0.68951416015625,-0.26074218750000,36.3750,58.6875,72.5625,-8.7000,0.9300,-4.4200,stop
9.48,1145248.466114201,29,3,3,3,0,-8.6400,1.1300,-4.1900,0.0500,0.1900,0.2200,-6.7500,-0.3750,-0.3125,0.45483398437500,0.49987792968750,0.68957519531250,-0.26031494140625,36.3750,58.6875,72.5625,-8.7000,0.9300,-4.4200,stop
9.49,1145248.471615951,29,3,3,3,0,-8.6500,1.1300,-4.1600,0.0400,0.1900,0.2500,-6.8125,-1.1250,-0.5625,0.45532226562500,0.49951171875000,0.68963623046875,-0.25994873046875,36.3750,58.6875,72.5625,-8.7000,0.9400,-4.4100,stop
9.50,1145248.471615951,29,3,3,3,0,-8.6800,1.1400,-4.1700,0.0100,0.1900,0.2300,-6.3125,-1.6250,-0.6250,0.45574951171875,0.49920654296875,0.68969726562500,-0.25964355468750,36.3750,58.6875,72.5625,-8.7000,0.9500,-4.4100,stop
9.51,1145248.511624780,29,3,3,3,0,-8.7700,1.1400,-4.1800,-0.0600,0.1800,0.2100,-5.5625,-1.8125,-0.6875,0.45623779296875,0.49890136718750,0.68969726562500,-0.25933837890625,36.7500,58.6875,73.0000,-8.7000,0.9500,-4.4000,stop
9.52,1145248.511624780,29,3,3,3,0,-8.7800,1.1300,-4.2500,-0.0700,0.1700,0.1400,-4.6250,-2.1875,-0.4375,0.45666503906250,0.49865722656250,0.68963623046875,-0.25915527343750,36.7500,58.6875,73.0000,-8.7100,0.9600,-4.3900,stop
9.53,1145248.520367944,29,3,3,3,0,-8.8100,1.1400,-4.2900,-0.0900,0.1800,0.0900,-3.5000,-2.7500,-0.3750,0.45709228515625,0.49847412109375,0.68957519531250,-0.25903320312500,36.7500,58.6875,73.0000,-8.7100,0.9600,-4.3900,stop
9.54,1145248.520367944,29,3,3,3,0,-8.8100,1.1200,-4.3000,-0.1000,0.1500,0.0800,-2.1875,-3.1875,-0.2500,0.45745849609375,0.49835205078125,0.68945312500000,-0.25903320312500,36.7500,58.6875,73.0000,-8.7100,0.9600,-4.3800,stop
9.55,1145248.528334701,29,3,3,3,0,-8.8100,1.1600,-4.3500,-0.0900,0.1900,0.0200,-1.0000,-3.1250,0.0000,0.45770263671875,0.49822998046875,0.68927001953125,-0.25909423828125,36.7500,58.6875,73.0000,-8.7100,0.9700,-4.3800,stop
9.56,1145248.528334701,29,3,3,3,0,-8.7800,1.2000,-4.3600,-0.0600,0.2300,0.0000,-0.4375,-2.6250,0.0000,0.45794677734375,0.49816894531250,0.68914794921875,-0.25915527343750,36.3750,57.5625,73.2500,-8.7200,0.9700,-4.3700,stop
9.57,1145248.555900944,29,3,3,3,0,-8.7500,1.2000,-4.3400,-0.0200,0.2300,0.0200,-0.3750,-2.0625,0.0000,0.45812988281250,0.49816894531250,0.68902587890625,-0.25921630859375,36.3750,57.5625,73.2500,-8.7200,0.9700,-4.3700,stop
9.58,1145248.555900944,29,3,3,3,0,-8.7500,1.1800,-4.3000,-0.0200,0.2100,0.0600,-0.5000,-1.9375,0.0000,0.45825195312500,0.49816894531250,0.68890380859375,-0.25927734375000,36.3750,57.5625,73.2500,-8.7200,0.9700,-4.3600,stop
9.59,1145248.676423649,29,3,3,3,0,-8.7600,1.1700,-4.3300,-0.0300,0.1900,0.0300,-0.5000,-2.1875,-0.2500,0.45843505859375,0.49810791015625,0.68884277343750,-0.25927734375000,36.3750,57.5625,73.2500,-8.7200,0.9700,-4.3600,stop
9.60,1145248.676423649,29,3,3,3,0,-8.7400,1.1400,-4.3500,-0.0100,0.1600,0.0000,-0.1250,-2.6250,-0.0625,0.45861816406250,0.49810791015625,0.68865966796875,-0.25939941406250,36.3750,57.5625,73.2500,-8.7200,0.9700,-4.3600,stop
9.61,1145248.706342391,29,3,3,3,0,-8.7300,1.1300,-4.3600,0.0000,0.1500,-0.0100,0.8750,-2.6250,-0.1875,0.45880126953125,0.49804687500000,0.68853759765625,-0.25952148437500,36.0625,58.0000,72.5625,-8.7300,0.9700,-4.3500,stop
9.62,1145248.706342391,29,3,3,3,0,-8.6900,1.0900,-4.3600,0.0300,0.1200,-0.0100,2.1250,-2.3125,-0.1250,0.45886230468750,0.49810791015625,0.68835449218750,-0.25970458984375,36.0625,58.0000,72.5625,-8.7300,0.9700,-4.3500,stop
9.63,1145248.752771346,29,3,3,3,0,-8.7200,1.0800,-4.3700,0.0100,0.1000,-0.0200,3.1875,-1.8125,0.0000,0.45886230468750,0.49822998046875,0.68823242187500,-0.25994873046875,36.0625,58.0000,72.5625,-8.7300,0.9700,-4.3500,stop
9.64,1145248.752771346,29,3,3,3,0,-8.7300,1.0800,-4.3400,0.0000,0.1100,0.0000,3.8750,-1.6250,-0.0625,0.45880126953125,0.49835205078125,0.68804931640625,-0.26025390625000,36.0625,58.0000,72.5625,-8.7300,0.9700,-4.3400,stop
9.65,1145248.766190821,29,3,3,3,0,-8.7300,1.1000,-4.2900,0.0000,0.1300,0.0500,4.3125,-1.5000,0.0000,0.45874023437500,0.49853515625000,0.68786621093750,-0.26055908203125,36.0625,58.0000,72.5625,-8.7300,0.9700,-4.3400,stop
9.66,1145248.766190821,29,3,3,3,0,-8.6800,1.1000,-4.2600,0.0500,0.1400,0.0800,4.0000,-1.6875,0.0000,0.45867919921875,0.49865722656250,0.68768310546875,-0.26086425781250,36.0625,58.3750,73.0000,-8.7300,0.9600,-4.3400,stop
9.67,1145248.841773828,29,3,3,3,0,-8.6500,1.0800,-4.3100,0.0800,0.1100,0.0300,3.8125,-2.0000,0.1250,0.45867919921875,0.49877929687500,0.68750000000000,-0.26110839843750,36.0625,58.3750,73.0000,-8.7300,0.9600,-4.3400,stop
9.68,1145248.841773828,29,3,3,3,0,-8.6400,1.0700,-4.3900,0.0900,0.1100,-0.0500,3.8125,-2.4375,0.1250,0.45861816406250,0.49890136718750,0.68731689453125,-0.26141357421875,36.0625,58.3750,73.0000,-8.7400,0.9600,-4.3400,stop
9.69,1145248.855188216,29,3,3,3,0,-8.6400,1.0300,-4.3900,0.0900,0.0700,-0.0500,4.0000,-2.3750,0.5000,0.45861816406250,0.49902343750000,0.68713378906250,-0.26177978515625,36.0625,58.3750,73.0000,-8.7400,0.9600,-4.3300,stop
9.70,1145248.855188216,29,3,3,3,0,-8.7300,0.9700,-4.3000,0.0000,0.0100,0.0200,4.0625,-2.1250,0.6875,0.45861816406250,0.49920654296875,0.68688964843750,-0.26202392578125,36.0625,58.3750,73.0000,-8.7400,0.9500,-4.3300,stop
9.71,1145248.916807194,29,3,3,3,0,-8.7600,0.9800,-4.3100,-0.0100,0.0200,0.0100,4.1250,-2.1250,0.8125,0.45855712890625,0.49932861328125,0.68670654296875,-0.26232910156250,36.7500,59.0625,72.1875,-8.7400,0.9500,-4.3300,stop
9.72,1145248.916807194,29,3,3,3,0,-8.7700,0.9800,-4.3400,-0.0300,0.0300,-0.0100,3.7500,-2.6250,0.8750,0.45855712890625,0.49951171875000,0.68646240234375,-0.26263427734375,36.7500,59.0625,72.1875,-8.7400,0.9500,-4.3200,stop
9.73,1145248.923378076,29,3,3,3,0,-8.7500,0.9800,-4.3400,-0.0100,0.0200,-0.0200,3.5000,-2.8750,0.8750,0.45861816406250,0.49963378906250,0.68621826171875,-0.26293945312500,36.7500,59.0625,72.1875,-8.7400,0.9500,-4.3200,stop
9.74,1145248.923378076,29,3,3,3,0,-8.7300,0.9400,-4.3200,0.0200,-0.0100,0.0000,3.0625,-2.8125,0.5000,0.45867919921875,0.49969482421875,0.68603515625000,-0.26324462890625,36.7500,59.0625,72.1875,-8.7500,0.9500,-4.3200,stop
9.75,1145248.928482243,29,3,3,3,0,-8.7400,0.9100,-4.3300,0.0100,-0.0300,-0.0100,2.5000,-2.5000,0.2500,0.45874023437500,0.49975585937500,0.68585205078125,-0.26348876953125,36.7500,59.0625,72.1875,-8.7500,0.9500,-4.3100,stop
9.77,1145248.928482243,29,3,3,3,0,-8.7600,0.8900,-4.3200,0.0000,-0.0500,-0.0100,1.8125,-2.0000,-0.1875,0.45874023437500,0.49975585937500,0.68572998046875,-0.26373291015625,37.5000,58.6875,73.0000,-8.7500,0.9500,-4.3100,stop
9.77,1145248.934283269,29,3,3,3,0,-8.8100,0.8800,-4.3300,-0.0600,-0.0600,-0.0100,1.3125,-1.9375,-0.6875,0.45880126953125,0.49975585937500,0.68566894531250,-0.26391601562500,37.5000,58.6875,73.0000,-8.7500,0.9400,-4.3100,stop
9.78,1145248.934283269,29,3,3,3,0,-8.8400,0.8900,-4.3000,-0.0800,-0.0500,0.0000,0.8125,-1.9375,-1.0000,0.45886230468750,0.49963378906250,0.68560791015625,-0.26409912109375,37.5000,58.6875,73.0000,-8.7500,0.9400,-4.3000,stop
9.79,1145248.938628321,29,3,3,3,0,-8.8200,0.8800,-4.3000,-0.0600,-0.0500,0.0000,0.1250,-1.4375,-1.4375,0.45892333984375,0.49951171875000,0.68560791015625,-0.26422119140625,37.5000,58.6875,73.0000,-8.7500,0.9400,-4.3000,stop
9.80,1145248.938628321,29,3,3,3,0,-8.8300,0.8600,-4.3100,-0.0700,-0.0700,-0.0100,-0.2500,-1.2500,-1.6250,0.45898437500000,0.49938964843750,0.68560791015625,-0.26434326171875,37.5000,58.6875,73.0000,-8.7600,0.9400,-4.3000,stop
9.81,1145248.941553939,29,3,3,3,0,-8.8100,0.8900,-4.2600,-0.0500,-0.0400,0.0300,-0.5625,-0.8750,-1.9375,0.45898437500000,0.49920654296875,0.68566894531250,-0.26440429687500,37.0625,57.5625,72.5625,-8.7600,0.9300,-4.3000,stop
9.82,1145248.941553939,29,3,3,3,0,-8.8100,0.9100,-4.2500,-0.0500,-0.0200,0.0400,-1.0000,-0.3125,-2.0625,0.45904541015625,0.49908447265625,0.68579101562500,-0.26446533203125,37.0625,57.5625,72.5625,-8.7600,0.9300,-4.3000,stop
9.83,1145248.944370345,29,3,3,3,0,-8.7800,0.9400,-4.2400,-0.0200,0.0100,0.0500,-1.2500,-0.1875,-2.2500,0.45904541015625,0.49890136718750,0.68591308593750,-0.26446533203125,37.0625,57.5625,72.5625,-8.7600,0.9300,-4.3000,stop
9.84,1145248.944370345,29,3,3,3,0,-8.7500,0.9400,-4.2400,0.0000,0.0100,0.0600,-1.5000,-0.1250,-2.3125,0.45904541015625,0.49865722656250,0.68603515625000,-0.26446533203125,37.0625,57.5625,72.5625,-8.7600,0.9300,-4.3000,stop
9.85,1145248.993193669,29,3,3,3,0,-8.7400,0.9700,-4.2400,0.0200,0.0400,0.0500,-1.6250,0.0000,-2.5000,0.45904541015625,0.49847412109375,0.68615722656250,-0.26446533203125,37.0625,57.5625,72.5625,-8.7600,0.9200,-4.3000,stop
9.86,1145248.993193669,29,3,3,3,0,-8.7200,1.0200,-4.2200,0.0400,0.0900,0.0700,-1.8125,0.0625,-2.5625,0.45910644531250,0.49822998046875,0.68634033203125,-0.26446533203125,37.0625,57.5625,72.0625,-8.7600,0.9200,-4.3000,stop
9.87,1145248.999428125,29,3,3,3,0,-8.7300,1.0500,-4.1800,0.0300,0.1200,0.1100,-1.6875,0.0000,-2.5000,0.45916748046875,0.49804687500000,0.68646240234375,-0.26440429687500,37.0625,57.5625,72.0625,-8.7600,0.9200,-4.3000,stop
9.88,1145248.999428125,29,3,3,3,0,-8.7500,1.0600,-4.1900,0.0100,0.1400,0.1000,-1.9375,-0.3750,-2.5625,0.45916748046875,0.49780273437500,0.68658447265625,-0.26440429687500,37.0625,57.5625,72.0625,-8.7600,0.9200,-4.2900,stop
9.89,1145249.004773747,29,3,3,3,0,-8.7400,1.0600,-4.2400,0.0200,0.1300,0.0400,-1.7500,-0.7500,-2.5625,0.45928955078125,0.49755859375000,0.68670654296875,-0.26440429687500,37.0625,57.5625,72.0625,-8.7600,0.9200,-4.2900,stop
9.90,1145249.004773747,29,3,3,3,0,-8.7500,1.1000,-4.2400,0.0100,0.1800,0.0400,-1.1250,-1.1875,-2.7500,0.45935058593750,0.49731445312500,0.68676757812500,-0.26446533203125,37.0625,57.5625,72.0625,-8.7600,0.9100,-4.2900,stop
9.91,1145249.009975244,29,3,3,3,0,-8.7600,1.1300,-4.1500,0.0000,0.2200,0.1300,-0.7500,-1.3750,-2.5625,0.45947265625000,0.49713134765625,0.68682861328125,-0.26458740234375,36.7500,58.6875,73.2500,-8.7600,0.9100,-4.2900,stop
9.92,1145249.009975244,29,3,3,3,0,-8.8000,1.1600,-4.2400,-0.0300,0.2500,0.0400,-0.0625,-1.4375,-2.6875,0.45953369140625,0.49694824218750,0.68682861328125,-0.26470947265625,36.7500,58.6875,73.2500,-8.7700,0.9100,-4.2900,stop
9.93,1145249.015118514,29,3,3,3,0,-8.7900,1.1800,-4.2100,-0.0200,0.2700,0.0700,0.5000,-1.5000,-2.8125,0.45965576171875,0.49676513671875,0.68688964843750,-0.26483154296875,36.7500,58.6875,73.2500,-8.7700,0.9100,-4.2800,stop
9.94,1145249.015118514,29,3,3,3,0,-8.8000,1.1600,-4.1300,-0.0200,0.2500,0.1500,0.4375,-1.0000,-2.8125,0.45971679687500,0.49664306640625,0.68688964843750,-0.26495361328125,36.7500,58.6875,73.2500,-8.7700,0.9000,-4.2800,stop
9.95,1145249.020222071,29,3,3,3,0,-8.7700,1.1300,-4.0500,0.0000,0.2300,0.2200,0.6875,0.4375,-2.6250,0.45971679687500,0.49652099609375,0.68695068359375,-0.26501464843750,36.7500,58.6875,73.2500,-8.7700,0.9000,-4.2800,stop
9.96,1145249.020222071,29,3,3,3,0,-8.7500,1.0900,-4.2200,0.0100,0.1900,0.0500,1.0625,1.1875,-2.4375,0.45959472656250,0.49645996093750,0.68701171875000,-0.26513671875000,36.7500,59.0625,71.0000,-8.7700,0.9000,-4.2800,stop
9.97,1145249.023629297,29,3,3,3,0,-8.7400,1.0800,-4.2400,0.0200,0.1800,0.0400,1.5000,0.1250,-2.2500,0.45953369140625,0.49639892578125,0.68707275390625,-0.26525878906250,36.7500,59.0625,71.0000,-8.7700,0.8900,-4.2800,stop
9.98,1145249.023629297,29,3,3,3,0,-8.7200,1.0700,-4.2400,0.0500,0.1800,0.0400,1.8750,-0.5000,-2.0625,0.45947265625000,0.49639892578125,0.68707275390625,-0.26538085937500,36.7500,59.0625,71.0000,-8.7700,0.8900,-4.2800,stop
9.99,1145249.026496037,29,3,3,3,0,-8.6500,1.0600,-4.2400,0.1100,0.1700,0.0300,1.8125,-1.2500,-1.8750,0.45947265625000,0.49633789062500,0.68701171875000,-0.26562500000000,36.7500,59.0625,71.0000,-8.7700,0.8900,-4.2800,stop
10.00,1145249.026496037,29,3,3,3,0,-8.6300,1.0200,-4.3000,0.1400,0.1300,-0.0200,0.8750,-1.7500,-1.5625,0.45947265625000,0.49627685546875,0.68701171875000,-0.26574707031250,36.7500,59.0625,71.0000,-8.7700,0.8900,-4.2800,stop
10.01,1145249.029454086,29,3,3,3,0,-8.6500,1.0100,-4.2900,0.1200,0.1200,-0.0200,0.1875,-2.0000,-1.2500,0.45959472656250,0.49615478515625,0.68695068359375,-0.26586914062500,36.7500,58.3750,72.5625,-8.7700,0.8900,-4.2700,stop
10.02,1145249.029454086,29,3,3,3,0,-8.6800,1.0000,-4.2600,0.0900,0.1100,0.0000,0.1875,-1.9375,-0.5625,0.45971679687500,0.49609375000000,0.68688964843750,-0.26593017578125,36.7500,58.3750,72.5625,-8.7800,0.8900,-4.2700,stop
10.03,1145249.032504257,29,3,3,3,0,-8.7000,1.0100,-4.2700,0.0800,0.1200,0.0000,0.5625,-2.2500,-0.0625,0.45983886718750,0.49609375000000,0.68676757812500,-0.26599121093750,36.7500,58.3750,72.5625,-8.7800,0.8900,-4.2700,stop
10.04,1145249.032504257,29,3,3,3,0,-8.7700,0.9700,-4.2500,0.0000,0.0800,0.0100,1.2500,-1.7500,0.6250,0.45989990234375,0.49615478515625,0.68664550781250,-0.26611328125000,36.7500,58.3750,72.5625,-8.7800,0.8900,-4.2600,stop
10.05,1145249.037042546,29,3,3,3,0,-8.7700,0.9400,-4.2200,0.0000,0.0500,0.0400,1.5000,-1.2500,1.0625,0.45996093750000,0.49627685546875,0.68652343750000,-0.26623535156250,36.7500,58.3750,72.5625,-8.7800,0.8900,-4.2600,stop
10.06,1145249.037042546,29,3,3,3,0,-8.7900,0.9400,-4.2200,-0.0100,0.0400,0.0400,1.6250,-0.8750,1.4375,0.46002197265625,0.49639892578125,0.68634033203125,-0.26629638671875,36.0625,58.6875,72.1875,-8.7800,0.8900,-4.2600,stop
10.07,1145249.052728337,29,3,3,3,0,-8.7900,0.9100,-4.2100,0.0000,0.0100,0.0500,1.5000,-0.7500,1.9375,0.46002197265625,0.49658203125000,0.68621826171875,-0.26629638671875,36.0625,58.6875,72.1875,-8.7800,0.8900,-4.2600,stop
10.09,1145249.052728337,29,3,3,3,0,-8.7700,0.9000,-4.2700,0.0000,0.0000,-0.0100,1.3125,-0.9375,2.1250,0.46008300781250,0.49670410156250,0.68603515625000,-0.26635742187500,36.0625,58.6875,72.1875,-8.7800,0.8900,-4.2600,stop
10.09,1145249.143645451,29,3,3,3,0,-8.7200,0.9000,-4.2700,0.0500,0.0000,-0.0100,1.1250,-0.9375,2.1875,0.46014404296875,0.49688720703125,0.68585205078125,-0.26635742187500,36.0625,58.6875,72.1875,-8.7800,0.9000,-4.2600,stop
10.10,1145249.143645451,29,3,3,3,0,-8.7100,0.9100,-4.2500,0.0700,0.0000,0.0000,1.2500,-0.9375,2.1875,0.46020507812500,0.49707031250000,0.68566894531250,-0.26641845703125,36.0625,58.6875,72.1875,-8.7800,0.9000,-4.2600,stop
10.11,1145249.149581527,29,3,3,3,0,-8.7000,0.9100,-4.2800,0.0700,0.0000,-0.0200,1.2500,-0.9375,2.1250,0.46026611328125,0.49719238281250,0.68554687500000,-0.26641845703125,36.7500,58.3750,71.3750,-8.7800,0.9000,-4.2500,stop
10.12,1145249.149581527,29,3,3,3,0,-8.7000,0.9000,-4.2900,0.0800,0.0000,-0.0300,1.3750,-1.0625,2.1250,0.46032714843750,0.49737548828125,0.68536376953125,-0.26647949218750,36.7500,58.3750,71.3750,-8.7800,0.9000,-4.2500,stop
10.13,1145249.155026026,29,3,3,3,0,-8.6900,0.9000,-4.2700,0.0900,0.0000,-0.0100,1.5625,-1.4375,2.1250,0.46038818359375,0.49755859375000,0.68518066406250,-0.26654052734375,36.7500,58.3750,71.3750,-8.7800,0.9100,-4.2500,stop
10.14,1145249.155026026,29,3,3,3,0,-8.7000,0.8900,-4.2600,0.0800,-0.0100,-0.0100,1.8125,-1.8750,1.8750,0.46044921875000,0.49768066406250,0.68499755859375,-0.26666259765625,36.7500,58.3750,71.3750,-8.7800,0.9100,-4.2500,stop
10.15,1145249.160142196,29,3,3,3,0,-8.6700,0.9300,-4.2500,0.1100,0.0200,0.0000,2.0625,-2.0625,1.8125,0.46057128906250,0.49780273437500,0.68475341796875,-0.26678466796875,36.7500,58.3750,71.3750,-8.7900,0.9100,-4.2500,stop
10.17,1145249.160142196,29,3,3,3,0,-8.6400,0.9400,-4.2500,0.1400,0.0300,0.0000,2.1875,-2.4375,1.7500,0.46063232421875,0.49798583984375,0.68450927734375,-0.26696777343750,36.3750,59.5000,72.0625,-8.7900,0.9100,-4.2400,stop
10.18,1145249.186435979,29,3,3,3,0,-8.6200,0.9300,-4.2400,0.1600,0.0100,0.0000,2.3750,-2.7500,1.6875,0.46075439453125,0.49810791015625,0.68426513671875,-0.26715087890625,36.3750,59.5000,72.0625,-8.7900,0.9100,-4.2400,stop
10.18,1145249.186435979,29,3,3,3,0,-8.6100,0.9400,-4.2400,0.1800,0.0300,-0.0100,2.6875,-3.0625,1.6250,0.46081542968750,0.49822998046875,0.68402099609375,-0.26733398437500,36.3750,59.5000,72.0625,-8.7900,0.9100,-4.2300,stop
10.19,1145249.191979273,29,3,3,3,0,-8.5300,0.9500,-4.2000,0.2600,0.0300,0.0300,2.7500,-3.6875,1.5625,0.46099853515625,0.49835205078125,0.68377685546875,-0.26757812500000,36.3750,59.5000,72.0625,-8.7900,0.9100,-4.2300,stop
10.20,1145249.191979273,29,3,3,3,0,-8.4400,0.9500,-4.1300,0.3500,0.0400,0.0800,2.6875,-4.1875,1.5000,0.46112060546875,0.49847412109375,0.68347167968750,-0.26788330078125,36.3750,59.5000,72.0625,-8.8000,0.9100,-4.2200,stop
10.21,1145249.197706853,29,3,3,3,0,-8.3900,0.9600,-4.0800,0.4000,0.0400,0.1300,2.4375,-4.8125,1.5625,0.46136474609375,0.49859619140625,0.68310546875000,-0.26812744140625,37.0625,58.3750,72.1875,-8.8000,0.9100,-4.2200,stop
10.22,1145249.197706853,29,3,3,3,0,-8.3200,0.9400,-3.9700,0.4800,0.0200,0.2400,2.0625,-5.6250,1.6250,0.46166992187500,0.49865722656250,0.68280029296875,-0.26843261718750,37.0625,58.3750,72.1875,-8.8000,0.9200,-4.2100,stop
10.23,1145249.230806747,29,3,3,3,0,-8.1700,0.8500,-4.0100,0.6300,-0.0600,0.1900,1.6875,-6.6875,1.5625,0.46203613281250,0.49865722656250,0.68237304687500,-0.26873779296875,37.0625,58.3750,72.1875,-8.8100,0.9200,-4.2000,stop
10.24,1145249.230806747,29,3,3,3,0,-8.0200,0.7300,-4.0400,0.7900,-0.1800,0.1400,1.8750,-8.8125,1.6875,0.46252441406250,0.49859619140625,0.68188476562500,-0.26916503906250,37.0625,58.3750,72.1875,-8.8100,0.9200,-4.1800,stop
10.25,1145249.262320826,29,3,3,3,0,-7.8700,0.6600,-4.1800,0.9500,-0.2600,-0.0100,2.6875,-11.8750,2.2500,0.46313476562500,0.49859619140625,0.68127441406250,-0.26977539062500,37.0625,58.3750,72.1875,-8.8200,0.9200,-4.1700,moving
10.26,1145249.262320826,29,3,3,3,0,-7.8700,0.6600,-4.1800,0.9500,-0.2600,-0.0100,2.6875,-11.8750,2.2500,0.46313476562500,0.49859619140625,0.68127441406250,-0.26977539062500,37.0625,58.3750,72.1875,-8.8200,0.9200,-4.1700,moving
10.27,1145249.267810490,29,3,3,3,0,-7.4100,0.5600,-4.4700,1.4100,-0.3600,-0.3200,4.1875,-14.6250,2.8750,0.46392822265625,0.49859619140625,0.68041992187500,-0.27056884765625,36.7500,58.6875,72.0625,-8.8300,0.9200,-4.1500,moving
10.27,1145249.267810490,29,3,3,3,0,-7.0800,0.5700,-4.5400,1.7500,-0.3500,-0.4100,5.7500,-15.2500,3.3125,0.46466064453125,0.49865722656250,0.67956542968750,-0.27142333984375,36.7500,58.6875,72.0625,-8.8400,0.9200,-4.1200,moving
10.28,1145249.291624333,29,3,3,3,0,-6.6100,0.5100,-4.5000,2.2300,-0.4000,-0.3900,7.0625,-13.5625,3.8750,0.46520996093750,0.49884033203125,0.67864990234375,-0.27227783203125,36.7500,58.6875,72.0625,-8.8500,0.9200,-4.1000,moving
10.29,1145249.291624333,29,3,3,3,0,-6.1200,0.4100,-4.2400,2.7300,-0.5100,-0.1400,6.8125,-8.8750,4.1250,0.46557617187500,0.49914550781250,0.67797851562500,-0.27288818359375,36.7500,58.6875,72.0625,-8.8600,0.9200,-4.0900,moving
10.30,1145249.296902084,29,3,3,3,0,-5.1200,0.2700,-3.1900,3.7300,-0.6500,0.9000,4.3750,-1.4375,3.6875,0.46551513671875,0.49951171875000,0.67761230468750,-0.27307128906250,36.7500,58.6875,72.0625,-8.8600,0.9300,-4.0900,moving
10.31,1145249.296902084,29,3,3,3,0,-4.6300,0.2300,-2.6700,4.2200,-0.6900,1.4200,2.0625,8.0625,3.1250,0.46502685546875,0.50000000000000,0.67779541015625,-0.27270507812500,37.5000,58.6875,71.3750,-8.8500,0.9300,-4.1000,moving
10.32,1145249.366158025,29,3,3,3,0,-4.2900,0.1200,-2.2000,4.5400,-0.8100,1.9200,0.6250,18.1250,2.8750,0.46398925781250,0.50067138671875,0.67834472656250,-0.27178955078125,37.5000,58.6875,71.3750,-8.8400,0.9300,-4.1300,moving
10.33,1145249.366158025,29,3,3,3,0,-4.0700,0.0600,-1.7900,4.7400,-0.8800,2.3700,0.1875,26.7500,3.0625,0.46246337890625,0.50146484375000,0.67932128906250,-0.27050781250000,37.5000,58.6875,71.3750,-8.8200,0.9400,-4.1700,moving
10.35,1145249.371604761,29,3,3,3,0,-3.7400,-0.1400,-1.1600,5.0500,-1.0900,3.0600,0.7500,31.3750,3.0000,0.46069335937500,0.50244140625000,0.68041992187500,-0.26904296875000,37.5000,58.6875,71.3750,-8.7900,0.9400,-4.2200,moving
10.35,1145249.371604761,29,3,3,3,0,-3.8100,-0.2900,-0.7700,4.9600,-1.2500,3.4900,1.1250,29.0625,2.6250,0.45892333984375,0.50329589843750,0.68145751953125,-0.26776123046875,37.5000,58.6875,71.3750,-8.7700,0.9500,-4.2600,moving
10.36,1145249.377038477,29,3,3,3,0,-4.2000,-0.4100,-0.0900,4.5500,-1.3700,4.2000,0.5000,20.5000,2.2500,0.45776367187500,0.50390625000000,0.68218994140625,-0.26672363281250,38.5625,59.5000,70.5625,-8.7600,0.9500,-4.3000,moving
10.37,1145249.377038477,29,3,3,3,0,-5.1000,-0.2900,0.5400,3.6400,-1.2400,4.8600,1.9375,10.7500,2.5625,0.45709228515625,0.50439453125000,0.68243408203125,-0.26629638671875,38.5625,59.5000,70.5625,-8.7500,0.9500,-4.3100,moving
10.38,1145249.382490585,29,3,3,3,0,-8.8100,0.1600,0.3800,-0.0500,-0.7800,4.6900,7.8750,-2.8750,3.5625,0.45703125000000,0.50488281250000,0.68200683593750,-0.26672363281250,38.5625,59.5000,70.5625,-8.7500,0.9500,-4.3100,moving
10.39,1145249.382490585,29,3,3,3,0,-11.3800,0.6400,-1.1700,-2.6100,-0.3000,3.0900,11.1250,-31.6875,3.2500,0.45849609375000,0.50476074218750,0.68029785156250,-0.26867675781250,38.5625,59.5000,70.5625,-8.7700,0.9500,-4.2600,moving
10.40,1145249.395398747,29,3,3,3,0,-15.1900,1.7600,-3.5800,-6.3400,0.8100,0.5400,9.9375,-88.5000,1.5000,0.46331787109375,0.50317382812500,0.67645263671875,-0.27313232421875,38.5625,59.5000,70.5625,-8.8400,0.9400,-4.1300,moving
10.41,1145249.395398747,29,3,3,3,0,-20.4900,3.7200,-8.8000,-11.5200,2.7700,-4.9600,1.1875,-184.3750,2.1875,0.47418212890625,0.49890136718750,0.66876220703125,-0.28112792968750,36.3750,58.3750,71.3750,-8.9700,0.9500,-3.8400,moving
10.43,1145249.411147486,29,3,3,3,0,-30.6100,6.0200,-15.5100,-21.4400,5.0500,-12.1700,-35.3125,-320.5000,-1.0000,0.49420166015625,0.48931884765625,0.65618896484375,-0.29296875000000,36.3750,58.3750,71.3750,-9.1700,0.9700,-3.3300,moving
10.43,1145249.411147486,29,3,3,3,0,-38.0100,7.0100,-16.4600,-28.7000,6.0200,-13.5600,-76.1250,-262.6250,-13.2500,0.51196289062500,0.47839355468750,0.64715576171875,-0.30029296875000,36.3750,58.3750,71.3750,-9.3100,0.9900,-2.8900,moving
10.44,1145249.425646876,29,3,3,3,0,-39.4500,4.5600,-11.8300,-30.1300,3.5800,-8.9500,-1.4375,-9.5000,-5.8750,0.51245117187500,0.47778320312500,0.64703369140625,-0.30090332031250,36.3750,58.3750,71.3750,-9.3200,0.9800,-2.8800,moving
10.45,1145249.425646876,29,3,3,3,0,-24.2200,1.5400,-4.2400,-14.9800,0.5700,-1.0700,62.5625,166.2500,17.0625,0.50085449218750,0.48583984375000,0.65203857421875,-0.29669189453125,36.3750,58.3750,71.3750,-9.2300,0.9700,-3.1600,moving
10.46,1145249.457350326,29,3,3,3,0,-20.5100,2.2400,-4.3500,-11.3600,1.2400,-0.9800,43.0625,128.6875,25.1250,0.49230957031250,0.49243164062500,0.65539550781250,-0.29254150390625,39.2500,57.6875,70.5625,-9.1500,0.9900,-3.3700,moving
10.47,1145249.457350326,29,3,3,3,0,-17.3700,3.2700,-5.5300,-8.2500,2.2500,-2.0800,15.6875,46.5625,19.9375,0.48950195312500,0.49542236328125,0.65612792968750,-0.29058837890625,39.2500,57.6875,70.5625,-9.1200,1.0100,-3.4500,moving
10.49,1145249.462741358,29,3,3,3,0,-14.7900,2.3600,-7.3600,-5.6700,1.3100,-3.9000,-8.0000,2.0625,18.5000,0.49017333984375,0.49621582031250,0.65563964843750,-0.28924560546875,39.2500,57.6875,70.5625,-9.1100,1.0500,-3.4500,moving
10.49,1145249.462741358,29,3,3,3,0,-11.9500,0.4600,-8.1800,-2.8500,-0.6100,-4.6800,-9.5000,26.9375,15.1875,0.48944091796875,0.49731445312500,0.65637207031250,-0.28686523437500,39.2500,57.6875,70.5625,-9.0900,1.0800,-3.4900,moving
10.51,1145249.501423406,29,3,3,3,0,-9.9800,0.4700,-5.8100,-0.9500,-0.6100,-2.1600,22.1250,99.4375,13.3125,0.48309326171875,0.50152587890625,0.65942382812500,-0.28326416015625,39.2500,57.6875,70.5625,-9.0300,1.0800,-3.6500,moving
10.52,1145249.501423406,29,3,3,3,0,-8.0800,0.2900,-3.5500,0.8400,-0.7800,0.3300,44.2500,143.7500,12.9375,0.47320556640625,0.50762939453125,0.66375732421875,-0.27893066406250,38.7500,58.6875,70.0625,-8.9300,1.0700,-3.8800,moving
10.52,1145249.532350733,29,3,3,3,0,-6.4900,0.3200,-1.9100,2.3300,-0.7400,2.1900,38.5625,138.5000,12.4375,0.46374511718750,0.51324462890625,0.66790771484375,-0.27453613281250,38.7500,58.6875,70.0625,-8.8300,1.0700,-4.1100,moving
10.53,1145249.532350733,29,3,3,3,0,-4.0600,0.4100,-0.4400,4.6800,-0.6500,3.8500,19.8750,120.0000,9.8750,0.45605468750000,0.51751708984375,0.67181396484375,-0.26989746093750,38.7500,58.6875,70.0625,-8.7400,1.0700,-4.2900,moving
10.54,1145249.546127263,29,3,3,3,0,-4.0600,0.4100,-0.4400,4.6800,-0.6500,3.8500,19.8750,120.0000,9.8750,0.45605468750000,0.51751708984375,0.67181396484375,-0.26989746093750,38.7500,58.6875,70.0625,-8.7400,1.0700,-4.2900,moving
10.55,1145249.546127263,29,3,3,3,0,-2.9700,0.3000,-0.1500,5.6900,-0.7700,4.3000,-3.4375,106.8125,8.3125,0.45013427734375,0.52032470703125,0.67572021484375,-0.26452636718750,38.7500,58.6875,70.0625,-8.6600,1.0800,-4.4500,moving
10.55,1145249.551935735,29,3,3,3,0,-2.1200,0.2800,0.0100,6.4600,-0.8200,4.6100,-21.0625,101.1250,6.0000,0.44525146484375,0.52215576171875,0.67987060546875,-0.25842285156250,38.7500,58.6875,70.0625,-8.5800,1.1100,-4.6000,moving
10.57,1145249.551935735,29,3,3,3,0,-1.3700,0.0000,0.2500,7.1300,-1.1400,4.9900,-30.8125,94.3750,3.3750,0.44116210937500,0.52331542968750,0.68408203125000,-0.25219726562500,38.1875,58.3750,69.2500,-8.5000,1.1400,-4.7400,moving
10.58,1145249.556977808,29,3,3,3,0,0.5100,-0.8900,0.4300,8.9300,-2.0700,5.3100,-37.4375,94.8750,3.3125,0.43725585937500,0.52410888671875,0.68835449218750,-0.24548339843750,38.1875,58.3750,69.2500,-8.4200,1.1800,-4.8700,moving
10.59,1145249.556977808,29,3,3,3,0,1.5600,-0.9800,0.2600,9.9100,-2.2000,5.2700,-35.6250,97.2500,3.4375,0.43310546875000,0.52502441406250,0.69262695312500,-0.23876953125000,38.1875,58.3750,69.2500,-8.3400,1.2100,-5.0000,moving
10.60,1145249.576245386,29,3,3,3,0,2.4500,-0.9800,-0.0500,10.7100,-2.2300,5.0700,-28.1250,91.9375,4.5625,0.42895507812500,0.52612304687500,0.69647216796875,-0.23266601562500,38.1875,58.3750,69.2500,-8.2600,1.2400,-5.1300,moving
