timestamp,android_nano_timestamp,temperature,calib_mag,calib_accel,calib_gyro,calib_sys,acc_x,acc_y,acc_z,lacc_x,lacc_y,lacc_z,gyro_x,gyro_y,gyro_z,quat_w,quat_x,quat_y,quat_z,mag_x,mag_y,mag_z,gravity_x,gravity_y,gravity_z,label,person
4.13,607611.657116178,22,0,0,0,0,9.91,0.2,-0.22,0.12,-0.26,0.1,-7.75,-2.75,-8.0625,0.044189453125,-0.7147216796875,-0.08013916015625,-0.69342041015625,-49.75,-9.6875,15.875,9.78,0.47,-0.33,moving,1
4.14,607611.672396696,22,0,0,0,0,9.97,0.22,-0.23,0.19,-0.25,0.1,-8.8125,-4.3125,-8.375,0.04315185546875,-0.7149658203125,-0.080078125,-0.6932373046875,-49.75,-9.6875,15.875,9.78,0.48,-0.34,moving,1
4.15,607611.672396696,22,0,0,0,0,9.84,0.29,-0.16,0.05,-0.2,0.18,-8.25,-6.25,-9.5625,0.0421142578125,-0.71527099609375,-0.080078125,-0.6929931640625,-49.75,-9.6875,15.875,9.78,0.49,-0.35,moving,1
4.16,607611.702346159,22,0,0,0,0,9.87,0.52,-0.21,0.08,0.0,0.15,-3.6875,-6.4375,-11.0625,0.04119873046875,-0.715576171875,-0.08050537109375,-0.69268798828125,-49.75,-9.6875,15.875,9.78,0.51,-0.36,moving,1
4.17,607611.702346159,22,0,0,0,0,9.87,0.6,-0.41,0.09,0.07,-0.04,5.0625,-4.5625,-12.1875,0.040771484375,-0.7156982421875,-0.08160400390625,-0.6923828125,-49.75,-9.6875,14.6875,9.78,0.53,-0.37,moving,1
4.18,607611.720718189,22,0,0,0,0,9.78,0.7,-0.46,0.0,0.15,-0.08,14.6875,-3.1875,-12.0,0.0408935546875,-0.71575927734375,-0.083251953125,-0.692138671875,-49.75,-9.6875,14.6875,9.78,0.55,-0.37,moving,1
4.19,607611.720718189,22,0,0,0,0,9.41,1.13,-0.35,-0.36,0.56,0.01,21.75,2.0,-11.0,0.0416259765625,-0.71551513671875,-0.08526611328125,-0.692138671875,-49.75,-9.6875,14.6875,9.78,0.57,-0.37,moving,1
4.2,607611.731528044,22,0,0,0,0,9.27,1.05,-0.51,-0.51,0.47,-0.14,20.3125,6.625,-6.8125,0.04254150390625,-0.7149658203125,-0.0869140625,-0.69244384765625,-49.75,-9.6875,14.6875,9.78,0.58,-0.36,moving,1
4.21,607611.731528044,22,0,0,0,0,9.31,1.02,-0.59,-0.46,0.44,-0.22,16.125,1.125,0.0625,0.0435791015625,-0.71484375,-0.087890625,-0.6923828125,-49.75,-9.6875,14.6875,9.78,0.58,-0.36,moving,1
4.22,607611.763202767,22,0,0,0,0,9.4,1.44,-0.83,-0.37,0.87,-0.45,19.1875,-7.0625,6.0625,0.0450439453125,-0.71527099609375,-0.08868408203125,-0.6917724609375,-49.75,-10.0,14.375,9.78,0.57,-0.38,moving,1
4.23,607611.763202767,22,0,0,0,0,9.12,1.56,-0.79,-0.66,1.0,-0.4,25.8125,-7.25,10.125,0.0472412109375,-0.71563720703125,-0.08966064453125,-0.6910400390625,-49.75,-10.0,14.375,9.78,0.55,-0.39,moving,1
4.24,607611.778531462,22,0,0,0,0,8.82,1.69,-0.7,-0.96,1.17,-0.3,30.625,-2.8125,13.1875,0.0499267578125,-0.7158203125,-0.0906982421875,-0.6905517578125,-49.75,-10.0,14.375,9.78,0.52,-0.4,moving,1
4.25,607611.778531462,22,0,0,0,0,8.5,1.69,-0.73,-1.27,1.2,-0.33,31.9375,0.9375,17.6875,0.052978515625,-0.71575927734375,-0.09149169921875,-0.6903076171875,-49.75,-10.0,14.375,9.78,0.49,-0.4,moving,1
4.26,607611.792259367,22,0,0,0,0,7.63,1.2,-0.9,-2.15,0.74,-0.49,29.3125,2.125,23.125,0.05621337890625,-0.7156982421875,-0.091796875,-0.6900634765625,-49.75,-10.0,14.375,9.78,0.45,-0.4,moving,1
4.27,607611.792259367,22,0,0,0,0,7.25,1.07,-0.83,-2.53,0.67,-0.43,26.5,2.0625,28.375,0.0595703125,-0.71563720703125,-0.09161376953125,-0.68988037109375,-49.0625,-10.0,15.0625,9.79,0.4,-0.4,moving,1
4.28,607611.822271818,22,0,0,0,0,6.87,0.91,-0.72,-2.92,0.56,-0.32,25.4375,2.25,33.0625,0.06317138671875,-0.71563720703125,-0.091064453125,-0.68963623046875,-49.0625,-10.0,15.0625,9.79,0.34,-0.4,moving,1
4.29,607611.822271818,22,0,0,0,0,6.74,0.91,-0.66,-3.04,0.63,-0.26,24.75,2.1875,37.5,0.0670166015625,-0.71563720703125,-0.0902099609375,-0.6893310546875,-49.0625,-10.0,15.0625,9.79,0.27,-0.39,moving,1
4.3,607611.836139575,22,0,0,0,0,6.8,0.93,-0.38,-2.98,0.72,0.0,21.375,1.0,42.5,0.0709228515625,-0.7158203125,-0.0888671875,-0.68896484375,-49.0625,-10.0,15.0625,9.79,0.2,-0.39,moving,1
4.31,607611.836139575,22,0,0,0,0,7.09,0.88,-0.28,-2.7,0.76,0.11,15.375,0.3125,48.1875,0.07476806640625,-0.716064453125,-0.08673095703125,-0.68853759765625,-49.0625,-10.0,15.0625,9.79,0.12,-0.39,moving,1
4.32,607611.851094287,22,0,0,0,0,7.31,0.76,-0.14,-2.48,0.73,0.25,4.0,0.125,54.5625,0.07830810546875,-0.7164306640625,-0.0836181640625,-0.68817138671875,-49.75,-8.875,15.0625,9.79,0.02,-0.39,moving,1
4.33,607611.851094287,22,0,0,0,0,7.96,-0.12,-0.1,-1.83,-0.05,0.3,-11.5625,-2.1875,61.0,0.0811767578125,-0.71710205078125,-0.0791015625,-0.68768310546875,-49.75,-8.875,15.0625,9.79,-0.07,-0.4,moving,1
4.34,607611.88236036,22,0,0,0,0,8.05,-0.95,-0.32,-1.73,-0.76,0.09,-26.625,-9.5,66.25,0.08343505859375,-0.71832275390625,-0.07342529296875,-0.686767578125,-49.75,-8.875,15.0625,9.79,-0.18,-0.41,moving,1
4.35,607611.88236036,22,0,0,0,0,7.98,-1.55,-0.49,-1.8,-1.25,-0.04,-34.375,-16.25,67.0,0.085205078125,-0.719970703125,-0.06732177734375,-0.68548583984375,-49.75,-8.875,15.0625,9.79,-0.29,-0.44,moving,1
4.36,607611.895645882,22,0,0,0,0,7.82,-1.6,-0.57,-1.95,-1.2,-0.1,-26.25,-12.375,59.0,0.08697509765625,-0.72125244140625,-0.0621337890625,-0.68438720703125,-49.75,-8.875,15.0625,9.78,-0.39,-0.47,moving,1
4.37,607611.895645882,22,0,0,0,0,7.82,-1.6,-0.57,-1.95,-1.2,-0.1,-26.25,-12.375,59.0,0.08697509765625,-0.72125244140625,-0.0621337890625,-0.68438720703125,-49.75,-8.875,15.0625,9.78,-0.39,-0.47,moving,1
4.37,607611.911933765,22,0,0,0,0,8.68,-0.64,-0.66,-1.1,-0.17,-0.19,-9.4375,1.0,42.75,0.08892822265625,-0.72149658203125,-0.058837890625,-0.6842041015625,-49.0625,-7.5,15.875,9.78,-0.46,-0.47,moving,1
4.38,607611.911933765,22,0,0,0,0,9.82,-0.19,-0.78,0.03,0.32,-0.31,3.375,0.625,29.375,0.09088134765625,-0.7215576171875,-0.05718994140625,-0.6839599609375,-49.0625,-7.5,15.875,9.78,-0.51,-0.46,moving,1
4.39,607611.94295647,22,0,0,0,0,10.78,-0.34,-0.99,1.01,0.21,-0.48,1.8125,-26.875,21.375,0.0921630859375,-0.7232666015625,-0.05621337890625,-0.68206787109375,-49.0625,-7.5,15.875,9.77,-0.55,-0.51,moving,1
4.4,607611.94295647,22,0,0,0,0,11.68,-1.64,-0.87,1.91,-1.07,-0.28,-9.375,-46.5,12.75,0.09210205078125,-0.72613525390625,-0.05517578125,-0.6790771484375,-49.0625,-7.5,15.875,9.77,-0.57,-0.59,moving,1
4.41,607611.948147103,22,0,0,0,0,12.05,-2.46,-1.08,2.29,-1.89,-0.41,-18.25,-45.3125,0.6875,0.09075927734375,-0.72900390625,-0.054443359375,-0.67626953125,-49.0625,-7.5,15.875,9.76,-0.57,-0.67,moving,1
4.42,607611.948147103,22,0,0,0,0,12.37,-2.99,-1.41,2.61,-2.45,-0.64,-22.9375,-55.625,-22.625,0.08770751953125,-0.73236083984375,-0.05499267578125,-0.67303466796875,-49.75,-6.0,16.1875,9.76,-0.53,-0.77,moving,1
4.43,607611.972284229,22,0,0,0,0,12.73,-3.33,-1.34,2.98,-2.84,-0.47,-22.9375,-55.625,-22.625,0.08465576171875,-0.73565673828125,-0.05548095703125,-0.66973876953125,-49.75,-6.0,16.1875,9.75,-0.49,-0.86,moving,1
4.44,607611.972284229,22,0,0,0,0,13.02,-3.1,-1.35,3.27,-2.67,-0.39,-16.875,-48.875,-34.3125,0.081298828125,-0.73846435546875,-0.05706787109375,-0.66693115234375,-49.75,-6.0,16.1875,9.75,-0.43,-0.95,moving,1
4.45,607611.987516976,22,0,0,0,0,13.38,-2.57,-1.18,3.63,-2.22,-0.18,-11.125,-30.125,-47.75,0.07763671875,-0.74005126953125,-0.0596923828125,-0.66534423828125,-49.75,-6.0,16.1875,9.74,-0.34,-1.0,moving,1
4.46,607611.987516976,22,0,0,0,0,13.03,-2.1,-1.01,3.29,-1.85,0.02,-12.0625,-19.0625,-58.125,0.07342529296875,-0.740966796875,-0.0628662109375,-0.66455078125,-49.75,-6.0,16.1875,9.74,-0.24,-1.03,moving,1
4.47,607612.002612232,22,0,0,0,0,11.48,-1.1,0.12,1.73,-0.97,1.16,-20.5625,0.75,-67.25,0.06817626953125,-0.74066162109375,-0.0660400390625,-0.6651611328125,-48.5,-7.0625,17.5,9.75,-0.12,-1.03,moving,1
4.48,607612.002612232,22,0,0,0,0,10.77,-0.72,0.03,1.02,-0.72,1.07,-28.25,3.0,-68.75,0.0623779296875,-0.740234375,-0.06878662109375,-0.6658935546875,-48.5,-7.0625,17.5,9.75,0.0,-1.03,moving,1
4.49,607612.031695606,22,0,0,0,0,10.17,-0.27,-0.28,0.41,-0.39,0.75,-26.875,-3.1875,-70.5625,0.0565185546875,-0.7401123046875,-0.07177734375,-0.666259765625,-48.5,-7.0625,17.5,9.75,0.11,-1.03,moving,1
4.5,607612.031695606,22,0,0,0,0,9.65,0.09,-0.66,-0.08,-0.15,0.37,-12.25,-3.8125,-72.625,0.051513671875,-0.73992919921875,-0.0758056640625,-0.6663818359375,-48.5,-7.0625,17.5,9.74,0.24,-1.04,moving,1
4.51,607612.061408578,22,0,0,0,0,9.66,1.01,-0.63,-0.07,0.64,0.41,6.375,-0.1875,-71.75,0.0477294921875,-0.73944091796875,-0.080810546875,-0.66668701171875,-48.5,-7.0625,17.5,9.74,0.36,-1.04,moving,1
4.52,607612.061408578,22,0,0,0,0,9.75,1.2,-0.45,0.01,0.73,0.59,17.125,2.3125,-67.3125,0.04498291015625,-0.73870849609375,-0.08612060546875,-0.6669921875,-47.6875,-7.6875,17.0625,9.73,0.47,-1.04,moving,1
4.53,607612.06674659,22,0,0,0,0,9.78,1.33,-0.52,0.04,0.75,0.51,22.8125,2.0,-60.375,0.04296875,-0.738037109375,-0.09130859375,-0.66717529296875,-47.6875,-7.6875,17.0625,9.73,0.57,-1.04,moving,1
4.54,607612.06674659,22,0,0,0,0,10.25,1.58,-0.83,0.52,0.93,0.21,29.375,-3.8125,-49.125,0.04193115234375,-0.73779296875,-0.09619140625,-0.6668701171875,-47.6875,-7.6875,17.0625,9.72,0.65,-1.05,moving,1
4.55,607612.092091114,22,0,0,0,0,11.78,1.66,-1.44,2.06,0.95,-0.37,34.4375,-8.6875,-35.8125,0.0419921875,-0.73785400390625,-0.10052490234375,-0.6661376953125,-47.6875,-7.6875,17.0625,9.72,0.7,-1.06,moving,1
4.56,607612.092091114,22,0,0,0,0,11.91,1.89,-1.57,2.19,1.15,-0.49,42.5625,0.6875,-25.1875,0.0433349609375,-0.7374267578125,-0.1046142578125,-0.6658935546875,-47.6875,-7.6875,17.0625,9.71,0.73,-1.07,moving,1
4.57,607612.105854501,22,0,0,0,0,11.42,2.51,-1.52,1.7,1.76,-0.48,53.5,23.75,-15.875,0.0460205078125,-0.73565673828125,-0.108642578125,-0.6669921875,-47.0,-10.1875,16.25,9.72,0.75,-1.04,moving,1
4.58,607612.105854501,22,0,0,0,0,10.11,3.17,-1.76,0.39,2.42,-0.77,62.75,36.5,-6.1875,0.050048828125,-0.73321533203125,-0.112548828125,-0.668701171875,-47.0,-10.1875,16.25,9.72,0.75,-0.98,moving,1
4.59,607612.121691659,22,0,0,0,0,9.65,3.2,-1.55,-0.08,2.47,-0.63,69.6875,40.9375,3.875,0.05517578125,-0.73052978515625,-0.1162109375,-0.670654296875,-47.0,-10.1875,16.25,9.73,0.73,-0.92,moving,1
4.6,607612.121691659,22,0,0,0,0,9.19,3.06,-1.32,-0.54,2.36,-0.47,67.1875,49.625,14.8125,0.060791015625,-0.72747802734375,-0.11895751953125,-0.67303466796875,-47.0,-10.1875,16.25,9.74,0.7,-0.85,moving,1
4.61,607612.151531828,22,0,0,0,0,8.73,2.7,-1.22,-1.02,2.04,-0.46,57.9375,56.6875,25.6875,0.06658935546875,-0.72406005859375,-0.12042236328125,-0.67584228515625,-47.0,-10.1875,16.25,9.75,0.65,-0.76,moving,1
4.62,607612.151531828,22,0,0,0,0,8.2,2.09,-1.47,-1.55,1.5,-0.79,47.0,51.125,35.625,0.07220458984375,-0.72113037109375,-0.12060546875,-0.67840576171875,-47.25,-11.0,17.0625,9.76,0.58,-0.67,moving,1
4.63,607612.166619475,22,0,0,0,0,8.03,1.74,-1.78,-1.73,1.24,-1.17,36.3125,41.75,44.25,0.0775146484375,-0.7188720703125,-0.1197509765625,-0.6802978515625,-47.25,-11.0,17.0625,9.77,0.5,-0.61,moving,1
4.64,607612.166619475,22,0,0,0,0,8.03,1.74,-1.78,-1.73,1.24,-1.17,36.3125,41.75,44.25,0.0775146484375,-0.7188720703125,-0.1197509765625,-0.6802978515625,-47.25,-11.0,17.0625,9.77,0.5,-0.61,moving,1
4.64,607612.181200367,22,0,0,0,0,8.03,1.43,-1.75,-1.74,1.01,-1.2,29.5,34.25,49.6875,0.0826416015625,-0.7171630859375,-0.1181640625,-0.68182373046875,-47.25,-11.0,17.0625,9.78,0.41,-0.55,moving,1
4.65,607612.181200367,22,0,0,0,0,8.21,1.04,-0.81,-1.57,0.71,-0.31,21.9375,34.1875,52.125,0.08746337890625,-0.71551513671875,-0.115966796875,-0.683349609375,-47.25,-11.0,17.0625,9.78,0.32,-0.49,moving,1
4.66,607612.196168506,22,0,0,0,0,8.19,1.29,0.12,-1.59,1.06,0.56,11.5,35.9375,54.3125,0.091796875,-0.71380615234375,-0.11297607421875,-0.68505859375,-47.25,-11.0,17.0625,9.79,0.23,-0.43,moving,1
4.67,607612.196168506,22,0,0,0,0,8.51,1.13,0.21,-1.28,1.0,0.62,-0.4375,15.25,62.5,0.095703125,-0.7135009765625,-0.10894775390625,-0.68548583984375,-47.875,-9.1875,17.0625,9.79,0.12,-0.41,moving,1
4.68,607612.21175892,22,0,0,0,0,9.54,0.86,-1.13,-0.25,0.83,-0.72,-22.1875,1.5625,57.875,0.0977783203125,-0.714111328125,-0.10400390625,-0.685302734375,-47.875,-9.1875,17.0625,9.79,0.02,-0.4,moving,1
4.69,607612.21175892,22,0,0,0,0,9.61,-0.34,-1.57,-0.17,-0.29,-1.19,-29.875,18.125,51.4375,0.09912109375,-0.7137451171875,-0.098876953125,-0.68621826171875,-47.875,-9.1875,17.0625,9.79,-0.05,-0.37,moving,1
4.7,607612.241933724,22,0,0,0,0,10.04,-0.94,-0.74,0.24,-0.82,-0.41,-20.5,26.9375,37.25,0.10028076171875,-0.712646484375,-0.0950927734375,-0.687744140625,-47.875,-9.1875,17.0625,9.8,-0.11,-0.33,moving,1
4.71,607612.241933724,22,0,0,0,0,10.66,-1.44,-0.45,0.86,-1.28,-0.14,-25.5625,10.5625,24.9375,0.10028076171875,-0.71246337890625,-0.0919189453125,-0.68841552734375,-47.875,-9.1875,17.0625,9.8,-0.16,-0.31,moving,1
4.72,607612.25604078,22,0,0,0,0,11.03,-2.58,-0.36,1.23,-2.39,-0.04,-49.9375,-1.6875,22.1875,0.0985107421875,-0.713134765625,-0.08758544921875,-0.6884765625,-48.1875,-7.375,16.25,9.79,-0.19,-0.31,moving,1
4.73,607612.25604078,22,0,0,0,0,11.25,-3.77,0.13,1.45,-3.55,0.47,-69.0625,-7.375,17.6875,0.09521484375,-0.71429443359375,-0.0823974609375,-0.68841552734375,-48.1875,-7.375,16.25,9.79,-0.22,-0.33,moving,1
4.74,607612.288256193,22,0,0,0,0,10.91,-3.62,0.77,1.11,-3.39,1.13,-74.9375,-11.6875,8.9375,0.09100341796875,-0.7156982421875,-0.07745361328125,-0.6881103515625,-48.1875,-7.375,16.25,9.79,-0.23,-0.35,moving,1
4.75,607612.288256193,22,0,0,0,0,10.47,-2.53,0.78,0.68,-2.31,1.15,-62.3125,-10.9375,-3.375,0.0867919921875,-0.716796875,-0.073974609375,-0.6878662109375,-48.1875,-7.375,16.25,9.79,-0.22,-0.37,moving,1
4.76,607612.301924895,22,0,0,0,0,9.94,-1.75,1.77,0.14,-1.56,2.18,-40.3125,-16.9375,-17.5625,0.0831298828125,-0.718017578125,-0.07281494140625,-0.68719482421875,-48.1875,-7.375,16.25,9.79,-0.18,-0.4,moving,1
4.77,607612.301924895,22,0,0,0,0,10.4,-0.91,1.08,0.61,-0.77,1.52,-23.1875,-15.8125,-25.3125,0.080078125,-0.718994140625,-0.0731201171875,-0.6865234375,-49.1875,-7.375,16.0,9.79,-0.14,-0.43,moving,1
4.78,607612.316610401,22,0,0,0,0,10.29,-0.23,0.99,0.5,-0.16,1.44,-2.625,-4.125,-40.875,0.077392578125,-0.718994140625,-0.0755615234375,-0.68658447265625,-49.1875,-7.375,16.0,9.79,-0.07,-0.44,moving,1
4.79,607612.316610401,22,0,0,0,0,9.91,-0.38,0.81,0.11,-0.4,1.22,10.6875,18.6875,-54.875,0.07489013671875,-0.7174072265625,-0.0794677734375,-0.68804931640625,-49.1875,-7.375,16.0,9.79,0.01,-0.41,moving,1
4.8,607612.331059782,22,0,0,0,0,8.32,0.29,-0.54,-1.47,0.16,-0.18,25.1875,29.625,-67.125,0.07269287109375,-0.7149658203125,-0.08502197265625,-0.69012451171875,-49.1875,-7.375,16.0,9.79,0.13,-0.36,moving,1
4.81,607612.331059782,22,0,0,0,0,7.54,0.24,-0.69,-2.25,-0.01,-0.37,43.75,28.25,-78.0,0.0709228515625,-0.71240234375,-0.09234619140625,-0.6920166015625,-49.1875,-7.375,16.0,9.79,0.26,-0.31,moving,1
4.82,607612.364733773,22,0,0,0,0,7.27,0.61,-0.5,-2.52,0.22,-0.21,55.4375,14.5625,-80.75,0.069580078125,-0.71051025390625,-0.1005859375,-0.6929931640625,-48.5,-7.6875,15.5625,9.79,0.39,-0.29,moving,1
4.83,607612.364733773,22,0,0,0,0,8.08,1.85,-0.5,-1.7,1.33,-0.19,47.6875,-4.1875,-72.125,0.06817626953125,-0.7098388671875,-0.10797119140625,-0.6927490234375,-48.5,-7.6875,15.5625,9.78,0.51,-0.3,moving,1
4.84,607612.377386768,22,0,0,0,0,9.08,2.18,-0.9,-0.69,1.56,-0.54,26.0,-29.3125,-57.8125,0.06597900390625,-0.71087646484375,-0.11328125,-0.69097900390625,-48.5,-7.6875,15.5625,9.78,0.61,-0.35,moving,1
4.85,607612.377386768,22,0,0,0,0,10.37,1.98,-1.13,0.59,1.29,-0.69,16.625,-45.25,-44.6875,0.06390380859375,-0.71307373046875,-0.1173095703125,-0.68829345703125,-48.5,-7.6875,15.5625,9.77,0.69,-0.43,moving,1
4.86,607612.392093311,22,0,0,0,0,11.19,2.01,-1.21,1.43,1.26,-0.71,19.3125,-38.4375,-36.0625,0.06256103515625,-0.71484375,-0.1209716796875,-0.68585205078125,-48.5,-7.6875,15.5625,9.76,0.75,-0.5,moving,1
4.87,607612.392093311,22,0,0,0,0,11.47,2.71,-1.69,1.71,1.91,-1.15,15.625,-24.3125,-27.375,0.06158447265625,-0.7159423828125,-0.12371826171875,-0.684326171875,-48.375,-7.375,16.25,9.75,0.79,-0.54,moving,1
4.88,607612.408132007,22,0,0,0,0,11.38,2.82,-1.05,1.63,2.0,-0.47,7.5,-20.375,-17.0625,0.06085205078125,-0.7169189453125,-0.1253662109375,-0.68304443359375,-48.375,-7.375,16.25,9.75,0.82,-0.58,moving,1
4.89,607612.408132007,22,0,0,0,0,11.38,2.82,-1.05,1.63,2.0,-0.47,7.5,-20.375,-17.0625,0.06085205078125,-0.7169189453125,-0.1253662109375,-0.68304443359375,-48.375,-7.375,16.25,9.75,0.82,-0.58,moving,1
4.89,607612.421662362,22,0,0,0,0,11.44,3.15,-1.77,1.69,2.32,-1.17,5.3125,-10.4375,-6.625,0.0606689453125,-0.71746826171875,-0.12615966796875,-0.682373046875,-48.375,-7.375,16.25,9.75,0.83,-0.6,moving,1
4.9,607612.421662362,22,0,0,0,0,10.76,2.74,-1.16,1.01,1.91,-0.55,16.0,-1.9375,0.5625,0.0616455078125,-0.71746826171875,-0.1270751953125,-0.68206787109375,-48.375,-7.375,16.25,9.75,0.83,-0.6,moving,1
4.91,607612.453020435,22,0,0,0,0,10.25,2.66,-1.0,0.5,1.85,-0.42,21.375,18.9375,10.5625,0.0638427734375,-0.71636962890625,-0.12762451171875,-0.6829833984375,-48.375,-7.375,16.25,9.75,0.81,-0.57,moving,1
4.92,607612.453020435,22,0,0,0,0,9.67,2.54,-0.48,-0.08,1.77,0.05,19.0625,26.3125,22.0625,0.066650390625,-0.71490478515625,-0.127197265625,-0.68426513671875,-47.25,-9.875,16.75,9.76,0.77,-0.53,moving,1
4.93,607612.466348438,22,0,0,0,0,9.16,1.96,-0.12,-0.6,1.25,0.37,8.875,24.4375,34.75,0.06951904296875,-0.71380615234375,-0.12542724609375,-0.68548583984375,-47.25,-9.875,16.75,9.76,0.71,-0.49,moving,1
4.94,607612.466348438,22,0,0,0,0,8.25,1.55,-0.02,-1.52,0.92,0.43,-0.9375,18.0,48.5,0.07257080078125,-0.7132568359375,-0.12225341796875,-0.68634033203125,-47.25,-9.875,16.75,9.77,0.63,-0.46,moving,1
4.95,607612.482067554,22,0,0,0,0,7.81,1.28,-0.11,-1.96,0.75,0.32,-1.4375,13.75,59.0,0.076171875,-0.71307373046875,-0.118408203125,-0.68682861328125,-47.25,-9.875,16.75,9.78,0.53,-0.44,moving,1
4.96,607612.482067554,22,0,0,0,0,7.67,1.54,-0.18,-2.11,1.13,0.23,0.0,12.75,67.4375,0.080322265625,-0.71295166015625,-0.1141357421875,-0.6871337890625,-47.25,-9.875,16.75,9.78,0.41,-0.41,moving,1
4.97,607612.512689706,22,0,0,0,0,7.45,1.43,-0.24,-2.33,1.14,0.13,-1.1875,18.5625,70.9375,0.08465576171875,-0.71258544921875,-0.10955810546875,-0.68780517578125,-47.5625,-9.5625,15.5625,9.79,0.29,-0.38,moving,1
4.98,607612.512689706,22,0,0,0,0,6.71,0.65,-0.21,-3.08,0.46,0.11,2.8125,31.1875,64.9375,0.0889892578125,-0.7113037109375,-0.10546875,-0.689208984375,-47.5625,-9.5625,15.5625,9.79,0.18,-0.33,moving,1
4.99,607612.549406421,22,0,0,0,0,6.34,0.36,0.55,-3.45,0.28,0.81,16.875,40.125,60.375,0.09405517578125,-0.70928955078125,-0.1024169921875,-0.69110107421875,-47.5625,-9.5625,15.5625,9.8,0.07,-0.26,moving,1
5.0,607612.549406421,22,0,0,0,0,6.49,-0.62,-0.24,-3.3,-0.59,-0.03,18.6875,27.5625,63.75,0.09930419921875,-0.7080078125,-0.09942626953125,-0.69207763671875,-47.5625,-9.5625,15.5625,9.8,-0.02,-0.21,moving,1
5.01,607612.554804615,22,0,0,0,0,7.24,-1.04,-1.89,-2.55,-0.91,-1.69,-3.9375,10.6875,55.9375,0.10247802734375,-0.7078857421875,-0.09564208984375,-0.69232177734375,-47.5625,-9.5625,15.5625,9.8,-0.12,-0.2,moving,1
5.02,607612.554804615,22,0,0,0,0,8.7,-1.09,-1.08,-1.1,-0.87,-0.87,-11.0625,-3.0,55.125,0.1051025390625,-0.7086181640625,-0.091552734375,-0.69171142578125,-48.5625,-8.0625,15.5625,9.8,-0.21,-0.2,moving,1
5.03,607612.572095264,22,0,0,0,0,10.53,-0.24,-0.81,0.74,0.05,-0.54,-14.5625,-35.875,50.75,0.10699462890625,-0.7113037109375,-0.087890625,-0.68914794921875,-48.5625,-8.0625,15.5625,9.79,-0.3,-0.26,moving,1
5.04,607612.572095264,22,0,0,0,0,11.29,-0.52,-1.3,1.5,-0.14,-0.98,-38.0625,-30.0,44.125,0.10699462890625,-0.71380615234375,-0.0831298828125,-0.6871337890625,-48.5625,-8.0625,15.5625,9.79,-0.37,-0.32,moving,1
5.05,607612.587038868,22,0,0,0,0,12.18,-1.56,-0.56,2.39,-1.13,-0.23,-38.4375,-8.625,32.0625,0.1064453125,-0.71490478515625,-0.07891845703125,-0.6865234375,-48.5625,-8.0625,15.5625,9.79,-0.42,-0.33,moving,1
5.06,607612.587038868,22,0,0,0,0,12.41,-2.14,-0.11,2.62,-1.68,0.26,-39.625,-16.875,18.1875,0.10498046875,-0.71636962890625,-0.07562255859375,-0.68560791015625,-48.5625,-8.0625,15.5625,9.78,-0.45,-0.37,moving,1
5.07,607612.600871347,22,0,0,0,0,12.02,-2.67,-0.76,2.23,-2.2,-0.32,-47.125,-38.0,5.3125,0.10205078125,-0.7191162109375,-0.07281494140625,-0.6834716796875,-49.375,-7.0625,15.1875,9.78,-0.46,-0.44,moving,1
5.08,607612.600871347,22,0,0,0,0,11.09,-2.57,-0.07,1.31,-2.12,0.44,-53.375,-44.9375,-5.625,0.09808349609375,-0.72222900390625,-0.07037353515625,-0.6810302734375,-49.375,-7.0625,15.1875,9.78,-0.44,-0.52,moving,1
5.09,607612.632042815,22,0,0,0,0,9.99,-2.53,-0.24,0.21,-2.11,0.31,-53.375,-23.875,-13.9375,0.09375,-0.7239990234375,-0.06829833984375,-0.679931640625,-49.375,-7.0625,15.1875,9.78,-0.42,-0.56,moving,1
5.1,607612.632042815,22,0,0,0,0,10.56,-2.11,0.77,0.78,-1.73,1.38,-45.4375,-22.8125,-23.125,0.08935546875,-0.7255859375,-0.0672607421875,-0.678955078125,-49.375,-7.0625,15.1875,9.78,-0.37,-0.6,moving,1
5.11,607612.646936329,22,0,0,0,0,11.08,-1.46,0.69,1.29,-1.15,1.31,-42.75,-4.3125,-36.3125,0.08447265625,-0.7259521484375,-0.06707763671875,-0.67919921875,-49.375,-7.0625,15.1875,9.78,-0.3,-0.61,moving,1
5.12,607612.646936329,22,0,0,0,0,10.29,-1.01,0.74,0.5,-0.79,1.36,-34.875,0.875,-51.0,0.0792236328125,-0.72589111328125,-0.06817626953125,-0.67987060546875,-48.5625,-7.375,16.0,9.78,-0.21,-0.61,moving,1
5.13,607612.66215459,22,0,0,0,0,9.59,-0.33,0.44,-0.19,-0.22,1.05,-25.5625,1.625,-61.875,0.073974609375,-0.7255859375,-0.07061767578125,-0.6805419921875,-48.5625,-7.375,16.0,9.78,-0.11,-0.61,moving,1
5.14,607612.66215459,22,0,0,0,0,8.59,0.47,0.35,-1.19,0.45,0.96,-12.5,3.375,-72.6875,0.06884765625,-0.7249755859375,-0.074462890625,-0.6812744140625,-48.5625,-7.375,16.0,9.78,0.01,-0.61,moving,1
5.15,607612.676309782,22,0,0,0,0,8.59,0.47,0.35,-1.19,0.45,0.96,-12.5,3.375,-72.6875,0.06884765625,-0.7249755859375,-0.074462890625,-0.6812744140625,-48.5625,-7.375,16.0,9.78,0.01,-0.61,moving,1
5.15,607612.676309782,22,0,0,0,0,7.07,0.47,-0.64,-2.71,0.32,-0.03,2.5625,2.625,-78.5625,0.06439208984375,-0.72430419921875,-0.07952880859375,-0.681884765625,-48.5625,-7.375,16.0,9.78,0.14,-0.6,moving,1
5.16,607612.691293873,22,0,0,0,0,7.17,0.74,-1.01,-2.6,0.46,-0.39,15.875,-10.4375,-76.4375,0.06072998046875,-0.7242431640625,-0.08538818359375,-0.6815185546875,-48.5625,-7.375,16.0,9.78,0.27,-0.62,moving,1
5.17,607612.691293873,22,0,0,0,0,7.93,0.99,-1.23,-1.84,0.59,-0.55,16.4375,-26.6875,-67.9375,0.05755615234375,-0.7252197265625,-0.09075927734375,-0.6800537109375,-48.375,-7.375,16.0625,9.77,0.39,-0.67,moving,1
5.18,607612.723274748,22,0,0,0,0,9.01,1.17,-1.39,-0.75,0.69,-0.65,5.3125,-40.4375,-54.0625,0.05438232421875,-0.7271728515625,-0.0947265625,-0.677734375,-48.375,-7.375,16.0625,9.76,0.48,-0.74,moving,1
5.19,607612.723274748,22,0,0,0,0,11.11,1.96,-1.33,1.35,1.41,-0.51,-0.1875,-46.1875,-40.25,0.05157470703125,-0.72955322265625,-0.09747314453125,-0.67498779296875,-48.375,-7.375,16.0625,9.75,0.55,-0.81,moving,1
5.2,607612.735612761,22,0,0,0,0,11.84,2.4,-1.24,2.09,1.8,-0.36,5.75,-37.125,-28.0625,0.04998779296875,-0.7314453125,-0.09979248046875,-0.67266845703125,-48.375,-7.375,16.0625,9.74,0.59,-0.88,moving,1
5.21,607612.735612761,22,0,0,0,0,12.23,3.21,-1.45,2.49,2.58,-0.53,20.0,-18.3125,-19.6875,0.0499267578125,-0.7322998046875,-0.102294921875,-0.67138671875,-48.375,-7.375,16.0625,9.74,0.62,-0.91,moving,1
5.22,607612.752259612,22,0,0,0,0,12.39,3.65,-1.64,2.65,3.0,-0.71,38.5,-2.625,-13.375,0.05157470703125,-0.73211669921875,-0.10546875,-0.67095947265625,-47.0,-8.75,16.375,9.74,0.64,-0.92,moving,1
5.23,607612.752259612,22,0,0,0,0,11.12,4.21,-1.79,1.38,3.56,-0.88,46.125,12.9375,-5.5625,0.0543212890625,-0.73114013671875,-0.10845947265625,-0.67138671875,-47.0,-8.75,16.375,9.74,0.64,-0.9,moving,1
5.24,607612.781352873,22,0,0,0,0,10.48,3.59,-2.18,0.73,2.95,-1.33,42.625,33.6875,1.3125,0.05743408203125,-0.72894287109375,-0.1107177734375,-0.673095703125,-47.0,-8.75,16.375,9.74,0.64,-0.85,moving,1
5.25,607612.781352873,22,0,0,0,0,9.77,3.01,-2.1,0.01,2.39,-1.32,38.1875,46.3125,9.375,0.06085205078125,-0.72613525390625,-0.11212158203125,-0.67559814453125,-47.0,-8.75,16.375,9.75,0.61,-0.78,moving,1
5.26,607612.795688892,22,0,0,0,0,8.85,2.47,-1.16,-0.9,1.89,-0.47,25.125,53.5625,21.375,0.064208984375,-0.7230224609375,-0.11199951171875,-0.67864990234375,-47.0,-8.75,16.375,9.76,0.57,-0.69,moving,1
5.27,607612.795688892,22,0,0,0,0,8.42,2.35,-0.91,-1.34,1.83,-0.3,5.625,47.25,34.75,0.06707763671875,-0.72052001953125,-0.10986328125,-0.681396484375,-46.0,-9.5625,17.1875,9.77,0.52,-0.61,moving,1
5.28,607612.812174366,22,0,0,0,0,8.21,1.87,-0.95,-1.56,1.42,-0.39,-9.5625,34.3125,45.9375,0.06951904296875,-0.718994140625,-0.10626220703125,-0.683349609375,-46.0,-9.5625,17.1875,9.78,0.44,-0.55,moving,1
5.29,607612.812174366,22,0,0,0,0,7.87,1.52,-0.88,-1.91,1.16,-0.38,-18.0,32.0,53.75,0.0718994140625,-0.7176513671875,-0.10162353515625,-0.6851806640625,-46.0,-9.5625,17.1875,9.78,0.35,-0.49,moving,1
5.3,607612.841818979,22,0,0,0,0,7.17,0.31,-0.75,-2.61,0.05,-0.31,-25.5,34.0625,57.25,0.073974609375,-0.71630859375,-0.0963134765625,-0.6871337890625,-46.0,-9.5625,17.1875,9.79,0.25,-0.43,moving,1
5.31,607612.841818979,22,0,0,0,0,6.77,-0.01,-0.55,-3.02,-0.18,-0.17,-28.1875,33.5625,54.5625,0.07574462890625,-0.71490478515625,-0.09100341796875,-0.68914794921875,-46.0,-9.5625,17.1875,9.79,0.16,-0.37,moving,1
5.32,607612.857735971,22,0,0,0,0,6.09,0.46,0.39,-3.71,0.4,0.72,-16.9375,30.25,58.875,0.0784912109375,-0.713623046875,-0.08612060546875,-0.69073486328125,-46.75,-9.1875,15.25,9.8,0.06,-0.32,moving,1
5.33,607612.857735971,22,0,0,0,0,8.14,0.16,-1.62,-1.65,0.2,-1.3,-32.875,3.5625,63.8125,0.08026123046875,-0.714111328125,-0.08013916015625,-0.6907958984375,-46.75,-9.1875,15.25,9.8,-0.03,-0.32,moving,1
5.34,607612.871223682,22,0,0,0,0,9.06,0.29,-1.88,-0.73,0.43,-1.54,-61.8125,-13.6875,62.0,0.08001708984375,-0.7158203125,-0.0726318359375,-0.68988037109375,-46.75,-9.1875,15.25,9.79,-0.14,-0.34,moving,1
5.35,607612.871223682,22,0,0,0,0,10.3,0.0,-1.25,0.51,0.24,-0.88,-74.4375,-12.1875,61.1875,0.0789794921875,-0.7174072265625,-0.064453125,-0.68914794921875,-46.75,-9.1875,15.25,9.79,-0.24,-0.36,moving,1
5.36,607612.902988249,22,0,0,0,0,10.93,-1.06,-0.23,1.13,-0.74,0.15,-69.875,-11.0625,50.8125,0.07757568359375,-0.71881103515625,-0.05718994140625,-0.6884765625,-46.75,-9.1875,15.25,9.79,-0.32,-0.39,moving,1
5.37,607612.902988249,22,0,0,0,0,11.26,-2.48,-0.27,1.47,-2.1,0.14,-75.3125,-12.75,39.6875,0.07513427734375,-0.72027587890625,-0.05023193359375,-0.687744140625,-48.1875,-8.5,15.6875,9.79,-0.38,-0.41,moving,1
5.38,607612.916436654,22,0,0,0,0,11.4,-3.47,-0.37,1.61,-3.03,0.09,-89.5,-26.4375,33.0,0.0714111328125,-0.72259521484375,-0.04296875,-0.68621826171875,-48.1875,-8.5,15.6875,9.78,-0.43,-0.47,moving,1
5.39,607612.916436654,22,0,0,0,0,11.66,-4.55,0.36,1.88,-4.08,0.91,-106.0,-45.125,27.6875,0.066162109375,-0.72601318359375,-0.03515625,-0.68359375,-48.1875,-8.5,15.6875,9.77,-0.47,-0.55,moving,1
5.4,607612.931729745,22,0,0,0,0,11.66,-4.55,0.36,1.88,-4.08,0.91,-106.0,-45.125,27.6875,0.066162109375,-0.72601318359375,-0.03515625,-0.68359375,-48.1875,-8.5,15.6875,9.77,-0.47,-0.55,moving,1
5.4,607612.931729745,22,0,0,0,0,11.88,-4.07,1.37,2.11,-3.57,1.99,-109.8125,-31.125,18.875,0.06024169921875,-0.728515625,-0.02764892578125,-0.68182373046875,-48.1875,-8.5,15.6875,9.77,-0.49,-0.61,moving,1
5.41,607612.947121225,22,0,0,0,0,11.47,-3.6,2.37,1.69,-3.12,3.01,-78.0,-6.75,-2.3125,0.05511474609375,-0.72930908203125,-0.023193359375,-0.6815185546875,-48.1875,-8.5,15.6875,9.77,-0.47,-0.63,moving,1
5.42,607612.947121225,22,0,0,0,0,11.11,-2.61,1.83,1.34,-2.17,2.45,-40.8125,12.8125,-20.875,0.05133056640625,-0.72869873046875,-0.02203369140625,-0.68255615234375,-47.5,-7.0625,15.6875,9.77,-0.43,-0.61,moving,1
5.43,607612.961686939,22,0,0,0,0,11.0,-1.82,0.97,1.22,-1.45,1.58,-13.1875,5.1875,-38.5625,0.04815673828125,-0.7283935546875,-0.023681640625,-0.68304443359375,-47.5,-7.0625,15.6875,9.78,-0.37,-0.6,moving,1
5.44,607612.961686939,22,0,0,0,0,10.36,-1.04,-0.48,0.57,-0.77,0.11,-2.5625,5.4375,-54.875,0.04473876953125,-0.72796630859375,-0.0269775390625,-0.68365478515625,-47.5,-7.0625,15.6875,9.78,-0.27,-0.6,moving,1
5.45,607612.993604298,22,0,0,0,0,9.76,-0.77,-0.95,-0.02,-0.61,-0.38,6.875,16.1875,-69.4375,0.04107666015625,-0.72674560546875,-0.03173828125,-0.6849365234375,-47.5,-7.0625,15.6875,9.78,-0.15,-0.57,moving,1
5.46,607612.993604298,22,0,0,0,0,9.44,-0.6,-1.01,-0.34,-0.58,-0.46,20.125,12.6875,-81.5625,0.03753662109375,-0.7257080078125,-0.0380859375,-0.68597412109375,-47.5,-7.0625,15.6875,9.79,-0.02,-0.55,moving,1
5.47,607613.007102141,22,0,0,0,0,9.28,-0.17,-0.83,-0.5,-0.3,-0.28,35.75,4.0625,-88.875,0.03448486328125,-0.7249755859375,-0.04583740234375,-0.68634033203125,-47.25,-8.0625,14.5,9.79,0.12,-0.54,moving,1
5.48,607613.007102141,22,0,0,0,0,9.09,0.6,-0.67,-0.69,0.33,-0.11,45.4375,-7.9375,-89.625,0.031982421875,-0.7249755859375,-0.05419921875,-0.6859130859375,-47.25,-8.0625,14.5,9.78,0.27,-0.55,moving,1
5.49,607613.025620614,22,0,0,0,0,9.66,0.95,-0.44,-0.11,0.55,0.15,34.0,-17.625,-76.5625,0.0294189453125,-0.72552490234375,-0.0611572265625,-0.684814453125,-47.25,-8.0625,14.5,9.78,0.4,-0.59,moving,1
5.5,607613.025620614,22,0,0,0,0,10.06,0.72,-0.17,0.29,0.22,0.46,10.4375,-28.5625,-57.375,0.02655029296875,-0.72686767578125,-0.06549072265625,-0.68310546875,-47.25,-8.0625,14.5,9.77,0.49,-0.64,moving,1
5.51,607613.051428964,22,0,0,0,0,10.92,0.38,-0.13,1.16,-0.17,0.57,-2.0,-41.0,-38.125,0.02386474609375,-0.7291259765625,-0.06787109375,-0.68060302734375,-47.25,-8.0625,14.5,9.76,0.56,-0.71,moving,1
5.52,607613.051428964,22,0,0,0,0,10.65,0.61,-0.96,0.89,0.01,-0.2,-0.375,-28.625,-25.375,0.022216796875,-0.73065185546875,-0.06951904296875,-0.6788330078125,-46.5625,-9.875,15.6875,9.75,0.6,-0.75,moving,1
5.53,607613.067269133,22,0,0,0,0,9.67,0.67,-1.67,-0.08,0.03,-0.9,18.0625,-3.5625,-20.5625,0.0220947265625,-0.730712890625,-0.0718994140625,-0.67852783203125,-46.5625,-9.875,15.6875,9.75,0.64,-0.76,moving,1
5.54,607613.067269133,22,0,0,0,0,9.83,1.1,-0.87,0.08,0.44,-0.11,42.25,5.75,-16.75,0.02386474609375,-0.73016357421875,-0.07550048828125,-0.67864990234375,-46.5625,-9.875,15.6875,9.75,0.66,-0.76,moving,1
5.55,607613.082649179,22,0,0,0,0,9.67,2.91,-0.9,-0.08,2.23,-0.17,48.0625,22.125,-8.75,0.02655029296875,-0.72869873046875,-0.078857421875,-0.6798095703125,-46.5625,-9.875,15.6875,9.75,0.67,-0.72,moving,1
5.56,607613.082649179,22,0,0,0,0,9.89,3.32,-1.54,0.13,2.66,-0.85,45.875,24.875,2.625,0.02978515625,-0.72711181640625,-0.08135986328125,-0.6810302734375,-46.5625,-9.875,15.6875,9.75,0.66,-0.69,moving,1
5.57,607613.112562875,22,0,0,0,0,9.61,3.61,-1.7,-0.14,2.97,-1.04,50.8125,21.6875,12.9375,0.033935546875,-0.72576904296875,-0.08349609375,-0.6820068359375,-45.75,-10.1875,16.0625,9.76,0.63,-0.66,moving,1
5.58,607613.112562875,22,0,0,0,0,8.96,2.8,-0.77,-0.8,2.21,-0.16,53.5,32.0625,20.125,0.03875732421875,-0.72381591796875,-0.0853271484375,-0.68359375,-45.75,-10.1875,16.0625,9.76,0.59,-0.61,moving,1
5.59,607613.12576539,22,0,0,0,0,8.37,2.45,-0.69,-1.4,1.91,-0.16,43.1875,47.875,30.9375,0.043701171875,-0.7210693359375,-0.08575439453125,-0.6861572265625,-45.75,-10.1875,16.0625,9.77,0.53,-0.53,moving,1
5.6,607613.12576539,22,0,0,0,0,7.86,1.95,-0.66,-1.92,1.49,-0.19,27.8125,41.25,42.3125,0.04827880859375,-0.71875,-0.08465576171875,-0.68841552734375,-45.75,-10.1875,16.0625,9.78,0.46,-0.46,moving,1
5.61,607613.141556283,22,0,0,0,0,8.18,2.18,0.22,-1.6,1.81,0.65,9.5,22.75,52.875,0.05218505859375,-0.71771240234375,-0.081787109375,-0.68951416015625,-45.75,-10.1875,16.0625,9.79,0.37,-0.42,moving,1
5.62,607613.141556283,22,0,0,0,0,7.32,0.72,0.0,-2.46,0.45,0.39,-7.4375,25.0,59.0,0.055419921875,-0.7166748046875,-0.0775146484375,-0.69085693359375,-47.25,-10.1875,15.6875,9.79,0.27,-0.38,moving,1
5.63,607613.173584115,22,0,0,0,0,6.78,0.37,-0.18,-3.01,0.2,0.15,-10.875,27.5,61.3125,0.05865478515625,-0.7154541015625,-0.07293701171875,-0.69232177734375,-47.25,-10.1875,15.6875,9.79,0.16,-0.33,moving,1
5.64,607613.173584115,22,0,0,0,0,6.7,0.24,-0.05,-3.09,0.18,0.23,-1.0,29.3125,58.1875,0.062255859375,-0.71405029296875,-0.069091796875,-0.69390869140625,-47.25,-10.1875,15.6875,9.8,0.06,-0.28,moving,1
5.65,607613.186441049,22,0,0,0,0,7.1,-0.05,-0.09,-2.69,-0.04,0.13,15.0,32.125,48.5,0.0662841796875,-0.71234130859375,-0.06683349609375,-0.69549560546875,-47.25,-10.1875,15.6875,9.8,-0.01,-0.23,moving,1
5.66,607613.186441049,22,0,0,0,0,7.1,-0.05,-0.09,-2.69,-0.04,0.13,15.0,32.125,48.5,0.0662841796875,-0.71234130859375,-0.06683349609375,-0.69549560546875,-47.25,-10.1875,15.6875,9.8,-0.01,-0.23,moving,1
5.66,607613.20083672,22,0,0,0,0,7.19,0.77,-0.68,-2.6,0.85,-0.5,30.5625,32.1875,39.375,0.07080078125,-0.71038818359375,-0.0660400390625,-0.69708251953125,-47.25,-10.1875,15.6875,9.8,-0.08,-0.17,moving,1
5.67,607613.20083672,22,0,0,0,0,7.99,0.41,-1.46,-1.8,0.56,-1.3,29.8125,11.8125,38.1875,0.07501220703125,-0.709716796875,-0.0654296875,-0.69744873046875,-46.5,-8.5,15.25,9.8,-0.14,-0.15,moving,1
5.68,607613.216101287,22,0,0,0,0,8.82,0.39,-2.38,-0.98,0.6,-2.22,-2.625,0.0,39.5625,0.0772705078125,-0.7099609375,-0.06280517578125,-0.69720458984375,-46.5,-8.5,15.25,9.8,-0.21,-0.15,moving,1
5.69,607613.216101287,22,0,0,0,0,10.27,-1.12,-0.88,0.47,-0.82,-0.71,-36.375,-3.0,44.25,0.07763671875,-0.71063232421875,-0.05792236328125,-0.6968994140625,-46.5,-8.5,15.25,9.8,-0.29,-0.16,moving,1
5.7,607613.231019906,22,0,0,0,0,11.12,-1.91,-0.02,1.32,-1.54,0.16,-60.9375,-17.0625,44.875,0.07647705078125,-0.7122802734375,-0.051513671875,-0.69580078125,-46.5,-8.5,15.25,9.79,-0.36,-0.19,moving,1
5.71,607613.231019906,22,0,0,0,0,11.41,-3.48,0.71,1.61,-3.04,0.98,-72.0625,-39.9375,42.625,0.07440185546875,-0.71533203125,-0.0447998046875,-0.693359375,-46.5,-8.5,15.25,9.79,-0.43,-0.26,moving,1
5.72,607613.263445322,22,0,0,0,0,11.36,-3.18,0.62,1.57,-2.71,0.98,-67.375,-49.1875,27.8125,0.07171630859375,-0.7188720703125,-0.039306640625,-0.6903076171875,-47.5,-5.1875,14.875,9.78,-0.47,-0.35,moving,1
5.73,607613.263445322,22,0,0,0,0,11.0,-3.15,0.43,1.22,-2.65,0.85,-56.875,-35.75,9.75,0.068603515625,-0.72137451171875,-0.03546142578125,-0.688232421875,-47.5,-5.1875,14.875,9.78,-0.49,-0.42,moving,1
5.74,607613.276387786,22,0,0,0,0,10.98,-3.24,0.99,1.2,-2.76,1.47,-38.25,-29.1875,-5.625,0.06573486328125,-0.72332763671875,-0.03375244140625,-0.6865234375,-47.5,-5.1875,14.875,9.78,-0.47,-0.47,moving,1
5.75,607613.276387786,22,0,0,0,0,10.78,-2.97,0.55,0.99,-2.53,1.05,-13.9375,-13.0625,-17.25,0.06378173828125,-0.72412109375,-0.0340576171875,-0.68585205078125,-47.5,-5.1875,14.875,9.78,-0.44,-0.5,moving,1
5.76,607613.291448007,22,0,0,0,0,11.06,-1.81,-0.25,1.28,-1.41,0.24,2.75,-4.125,-27.4375,0.06231689453125,-0.72430419921875,-0.03594970703125,-0.68572998046875,-47.5,-5.1875,14.875,9.78,-0.4,-0.5,moving,1
5.77,607613.291448007,22,0,0,0,0,11.21,-1.65,-0.46,1.43,-1.31,0.03,-0.1875,3.125,-36.6875,0.06011962890625,-0.7239990234375,-0.03826904296875,-0.68609619140625,-48.0,-5.1875,16.0625,9.78,-0.33,-0.5,moving,1
5.78,607613.322337533,22,0,0,0,0,11.01,-1.47,-0.4,1.22,-1.2,0.08,-3.0,7.5625,-45.8125,0.05718994140625,-0.723388671875,-0.04095458984375,-0.68682861328125,-48.0,-5.1875,16.0625,9.79,-0.26,-0.48,moving,1
5.79,607613.322337533,22,0,0,0,0,10.38,-1.18,-0.26,0.58,-1.01,0.21,-2.625,1.3125,-53.1875,0.05389404296875,-0.72314453125,-0.04412841796875,-0.68719482421875,-48.0,-5.1875,16.0625,9.79,-0.16,-0.48,moving,1
5.8,607613.335914072,22,0,0,0,0,8.94,-0.51,0.0,-0.84,-0.44,0.49,-2.875,-5.125,-57.75,0.05023193359375,-0.72320556640625,-0.047607421875,-0.6871337890625,-48.0,-5.1875,16.0625,9.79,-0.07,-0.49,moving,1
5.81,607613.335914072,22,0,0,0,0,8.79,-0.21,0.13,-1.0,-0.25,0.65,5.875,-9.0625,-63.5625,0.0467529296875,-0.72344970703125,-0.052001953125,-0.68682861328125,-48.0,-5.1875,16.0625,9.79,0.03,-0.51,moving,1
5.82,607613.352489592,22,0,0,0,0,8.44,-0.23,0.0,-1.34,-0.39,0.54,24.375,-16.3125,-71.625,0.04388427734375,-0.7239990234375,-0.05804443359375,-0.68597412109375,-46.875,-8.0625,16.0625,9.79,0.15,-0.53,moving,1
5.83,607613.352489592,22,0,0,0,0,8.92,0.64,-1.12,-0.86,0.37,-0.55,27.75,-14.5625,-64.875,0.04168701171875,-0.72442626953125,-0.06390380859375,-0.68511962890625,-46.875,-8.0625,16.0625,9.78,0.26,-0.56,moving,1
5.84,607613.382590585,22,0,0,0,0,9.26,0.76,-0.92,-0.52,0.41,-0.33,21.0625,-13.5625,-54.1875,0.03973388671875,-0.724853515625,-0.068603515625,-0.684326171875,-46.875,-8.0625,16.0625,9.78,0.35,-0.59,moving,1
5.85,607613.382590585,22,0,0,0,0,9.94,1.2,-0.46,0.16,0.77,0.15,14.0625,-15.375,-42.5,0.03802490234375,-0.7254638671875,-0.07220458984375,-0.68341064453125,-46.875,-8.0625,16.0625,9.77,0.42,-0.61,moving,1
5.86,607613.396015593,22,0,0,0,0,10.59,1.87,-0.54,0.82,1.39,0.09,11.75,-11.125,-31.0,0.03680419921875,-0.72589111328125,-0.07489013671875,-0.6827392578125,-46.875,-8.0625,16.0625,9.77,0.47,-0.63,moving,1
5.87,607613.396015593,22,0,0,0,0,10.77,2.37,-0.74,1.0,1.85,-0.09,17.875,-8.3125,-25.625,0.036376953125,-0.72613525390625,-0.07757568359375,-0.68218994140625,-47.375,-9.75,16.0625,9.77,0.52,-0.65,moving,1
5.88,607613.442772348,22,0,0,0,0,10.47,2.6,-0.82,0.7,2.05,-0.16,31.375,-0.75,-22.1875,0.03704833984375,-0.7259521484375,-0.08087158203125,-0.6820068359375,-47.375,-9.75,16.0625,9.76,0.55,-0.65,moving,1
5.89,607613.442772348,22,0,0,0,0,10.12,2.8,-0.87,0.35,2.22,-0.23,40.9375,9.625,-16.625,0.0386962890625,-0.72509765625,-0.0843505859375,-0.682373046875,-47.375,-9.75,16.0625,9.76,0.57,-0.64,moving,1
5.9,607613.448298268,22,0,0,0,0,9.69,2.87,-1.24,-0.07,2.28,-0.62,38.25,16.0,-6.3125,0.0408935546875,-0.72393798828125,-0.08697509765625,-0.68310546875,-47.375,-9.75,16.0625,9.76,0.58,-0.62,moving,1
5.91,607613.448298268,22,0,0,0,0,9.69,2.87,-1.24,-0.07,2.28,-0.62,38.25,16.0,-6.3125,0.0408935546875,-0.72393798828125,-0.08697509765625,-0.68310546875,-47.375,-9.75,16.0625,9.76,0.58,-0.62,moving,1
5.91,607613.453845387,22,0,0,0,0,9.14,2.62,-1.6,-0.62,2.05,-1.02,33.75,21.75,4.5625,0.04345703125,-0.7225341796875,-0.088623046875,-0.6842041015625,-47.375,-9.75,16.0625,9.77,0.57,-0.58,moving,1
5.92,607613.453845387,22,0,0,0,0,9.07,2.33,-1.33,-0.69,1.78,-0.78,29.625,25.875,15.5,0.04644775390625,-0.72100830078125,-0.08929443359375,-0.685546875,-45.5625,-10.0625,14.875,9.77,0.54,-0.54,moving,1
5.93,607613.471656259,22,0,0,0,0,9.01,1.94,-1.05,-0.76,1.45,-0.55,26.4375,28.6875,25.8125,0.04986572265625,-0.7193603515625,-0.08917236328125,-0.68707275390625,-45.5625,-10.0625,14.875,9.78,0.49,-0.49,moving,1
5.94,607613.471656259,22,0,0,0,0,9.0,1.96,-0.42,-0.77,1.52,0.03,21.8125,25.8125,36.75,0.05364990234375,-0.718017578125,-0.08807373046875,-0.6883544921875,-45.5625,-10.0625,14.875,9.78,0.43,-0.45,moving,1
5.95,607613.486524423,22,0,0,0,0,9.29,1.9,-0.24,-0.49,1.55,0.17,12.9375,19.0,47.875,0.05743408203125,-0.7171630859375,-0.08575439453125,-0.689208984375,-45.5625,-10.0625,14.875,9.79,0.35,-0.42,moving,1
5.96,607613.486524423,22,0,0,0,0,9.27,1.66,-0.32,-0.52,1.4,0.08,0.8125,12.125,57.75,0.06103515625,-0.71685791015625,-0.0821533203125,-0.68963623046875,-45.5625,-10.0625,14.875,9.79,0.25,-0.4,moving,1
5.97,607613.5021469,22,0,0,0,0,8.94,1.35,-0.27,-0.84,1.2,0.09,-6.3125,16.3125,60.75,0.06439208984375,-0.71630859375,-0.077880859375,-0.69036865234375,-47.0,-9.0625,15.6875,9.79,0.14,-0.37,moving,1
5.98,607613.5021469,22,0,0,0,0,7.99,0.66,0.08,-1.8,0.61,0.41,-12.375,25.9375,61.0625,0.0675048828125,-0.71527099609375,-0.07318115234375,-0.6917724609375,-47.0,-9.0625,15.6875,9.8,0.04,-0.33,moving,1
5.99,607613.534382415,22,0,0,0,0,8.27,0.19,0.02,-1.52,0.24,0.32,-16.625,20.6875,59.4375,0.07012939453125,-0.7144775390625,-0.068359375,-0.69281005859375,-47.0,-9.0625,15.6875,9.8,-0.05,-0.29,moving,1
6.0,607613.534382415,22,0,0,0,0,7.65,0.12,-0.29,-2.14,0.26,-0.02,-10.6875,17.25,50.5,0.0726318359375,-0.7137451171875,-0.064453125,-0.693603515625,-47.0,-9.0625,15.6875,9.8,-0.14,-0.26,moving,1
6.01,607613.549201384,22,0,0,0,0,7.79,-0.28,-1.16,-2.0,-0.07,-0.93,6.625,20.375,45.0625,0.07586669921875,-0.7127685546875,-0.06195068359375,-0.694580078125,-47.0,-9.0625,15.6875,9.8,-0.21,-0.23,moving,1
6.02,607613.549201384,22,0,0,0,0,8.71,-0.23,-2.34,-1.08,0.05,-2.11,9.3125,3.9375,39.5,0.078857421875,-0.712646484375,-0.05999755859375,-0.6944580078125,-46.5625,-8.0,14.875,9.79,-0.28,-0.22,moving,1
6.03,607613.561183928,22,0,0,0,0,8.51,-0.16,-2.45,-1.28,0.17,-2.25,-5.875,15.375,29.5625,0.08038330078125,-0.7119140625,-0.0577392578125,-0.69525146484375,-46.5625,-8.0,14.875,9.79,-0.33,-0.19,moving,1
6.04,607613.561183928,22,0,0,0,0,9.54,-1.22,-1.02,-0.25,-0.83,-0.84,-15.5625,12.3125,31.0,0.081298828125,-0.71142578125,-0.0548095703125,-0.69586181640625,-46.5625,-8.0,14.875,9.79,-0.38,-0.17,moving,1
6.05,607613.591847299,22,0,0,0,0,11.78,-2.22,0.12,1.99,-1.78,0.35,-32.5625,-30.25,33.3125,0.0811767578125,-0.713623046875,-0.05096435546875,-0.69390869140625,-46.5625,-8.0,14.875,9.79,-0.44,-0.23,moving,1
6.06,607613.591847299,22,0,0,0,0,12.36,-2.32,0.22,2.57,-1.83,0.53,-57.375,-45.3125,28.75,0.0791015625,-0.7169189453125,-0.0460205078125,-0.69110107421875,-46.5625,-8.0,14.875,9.78,-0.48,-0.31,moving,1
6.07,607613.608032195,22,0,0,0,0,12.06,-2.78,0.35,2.27,-2.27,0.72,-57.3125,-27.0625,17.5,0.07647705078125,-0.718994140625,-0.04168701171875,-0.68951416015625,-48.0625,-7.25,15.6875,9.78,-0.51,-0.36,moving,1
6.08,607613.608032195,22,0,0,0,0,11.37,-2.54,0.76,1.59,-2.03,1.15,-46.125,-14.1875,1.125,0.0736083984375,-0.72015380859375,-0.0389404296875,-0.68878173828125,-48.0625,-7.25,15.6875,9.78,-0.51,-0.39,moving,1
6.09,607613.623256153,22,0,0,0,0,10.84,-2.43,0.7,1.05,-1.94,1.11,-28.375,-4.3125,-13.1875,0.07098388671875,-0.7205810546875,-0.0380859375,-0.688720703125,-48.0625,-7.25,15.6875,9.78,-0.48,-0.4,moving,1
6.1,607613.623256153,22,0,0,0,0,11.13,-1.22,0.3,1.35,-0.77,0.71,-4.8125,-5.25,-24.8125,0.06915283203125,-0.7208251953125,-0.03936767578125,-0.68853759765625,-48.0625,-7.25,15.6875,9.78,-0.44,-0.41,moving,1
6.11,607613.652501637,22,0,0,0,0,10.93,-0.76,-0.28,1.14,-0.37,0.12,0.0,3.625,-34.0625,0.067138671875,-0.720458984375,-0.04150390625,-0.68896484375,-48.0625,-7.25,15.6875,9.79,-0.38,-0.4,moving,1
6.12,607613.652501637,22,0,0,0,0,10.7,-1.4,-0.73,0.91,-1.09,-0.33,-2.6875,4.125,-43.0625,0.06439208984375,-0.7200927734375,-0.04400634765625,-0.689453125,-48.0625,-6.875,15.25,9.79,-0.31,-0.4,moving,1
6.13,607613.666343922,22,0,0,0,0,10.63,-1.26,-1.0,0.83,-1.04,-0.6,0.5625,2.5625,-51.0,0.0614013671875,-0.7197265625,-0.0472412109375,-0.68994140625,-48.0625,-6.875,15.25,9.79,-0.22,-0.39,stop,1
6.14,607613.666343922,22,0,0,0,0,10.83,-0.89,-1.11,1.03,-0.75,-0.7,2.0625,-8.1875,-56.25,0.05810546875,-0.719970703125,-0.05096435546875,-0.689697265625,-48.0625,-6.875,15.25,9.79,-0.13,-0.41,stop,1
6.15,607613.681053679,22,0,0,0,0,11.4,-0.23,-0.78,1.6,-0.2,-0.32,-3.25,-23.4375,-56.375,0.05438232421875,-0.72113037109375,-0.05438232421875,-0.6884765625,-48.0625,-6.875,15.25,9.79,-0.03,-0.45,stop,1
6.16,607613.681053679,22,0,0,0,0,12.54,1.02,0.23,2.75,0.96,0.74,-6.4375,-34.0,-55.6875,0.05047607421875,-0.72296142578125,-0.05767822265625,-0.6866455078125,-48.0625,-6.875,15.25,9.79,0.06,-0.5,stop,1
6.17,607613.696295948,22,0,0,0,0,12.54,1.02,0.23,2.75,0.96,0.74,-6.4375,-34.0,-55.6875,0.05047607421875,-0.72296142578125,-0.05767822265625,-0.6866455078125,-48.0625,-6.875,15.25,9.79,0.06,-0.5,stop,1
6.17,607613.696295948,22,0,0,0,0,12.71,1.44,0.02,2.92,1.28,0.59,1.5,-36.8125,-56.125,0.0469970703125,-0.724853515625,-0.06146240234375,-0.6845703125,-46.6875,-8.0,15.25,9.78,0.15,-0.57,stop,1
6.18,607613.711229623,23,0,0,0,0,13.16,2.06,0.7,3.38,1.81,1.34,13.6875,-42.125,-57.625,0.044189453125,-0.72698974609375,-0.06610107421875,-0.68206787109375,-46.6875,-8.0,15.25,9.78,0.25,-0.64,stop,1
6.19,607613.711229623,23,0,0,0,0,12.62,1.27,-0.71,2.84,0.92,-0.03,14.625,-22.125,-56.6875,0.0416259765625,-0.7279052734375,-0.0706787109375,-0.6807861328125,-46.6875,-8.0,15.25,9.77,0.34,-0.68,stop,1
6.2,607613.740674122,23,0,0,0,0,12.67,1.27,-0.83,2.89,0.84,-0.13,14.6875,-8.4375,-52.5625,0.03936767578125,-0.72802734375,-0.07489013671875,-0.6802978515625,-46.6875,-8.0,15.25,9.77,0.43,-0.69,stop,1
6.21,607613.740674122,23,0,0,0,0,12.25,1.41,-0.86,2.48,0.89,-0.18,12.25,8.6875,-46.0,0.0374755859375,-0.7271728515625,-0.07855224609375,-0.68096923828125,-46.6875,-8.0,15.25,9.76,0.51,-0.68,stop,1
6.22,607613.756431324,23,0,0,0,0,11.63,1.39,-0.8,1.86,0.81,-0.14,13.875,17.0625,-42.6875,0.03594970703125,-0.72576904296875,-0.08203125,-0.68206787109375,-45.25,-8.6875,15.6875,9.76,0.58,-0.65,stop,1
6.23,607613.756431324,23,0,0,0,0,10.55,1.8,-0.79,0.79,1.15,-0.17,17.4375,18.3125,-40.0625,0.0347900390625,-0.724365234375,-0.0855712890625,-0.6832275390625,-45.25,-8.6875,15.6875,9.76,0.65,-0.62,stop,1
6.24,607613.770902068,23,0,0,0,0,10.06,2.04,-0.61,0.3,1.33,-0.01,16.0,14.5,-36.875,0.03369140625,-0.72314453125,-0.08880615234375,-0.68414306640625,-45.25,-8.6875,15.6875,9.76,0.71,-0.6,stop,1
6.25,607613.770902068,23,0,0,0,0,9.44,1.88,-0.67,-0.31,1.11,-0.08,8.5,13.9375,-32.0,0.032470703125,-0.7220458984375,-0.09130859375,-0.68505859375,-45.25,-8.6875,15.6875,9.75,0.76,-0.58,stop,1
6.26,607613.802889129,23,0,0,0,0,8.46,1.97,-0.41,-1.29,1.16,0.14,2.5625,15.125,-27.375,0.03106689453125,-0.72088623046875,-0.0931396484375,-0.68603515625,-45.25,-8.6875,15.6875,9.75,0.81,-0.55,stop,1
6.27,607613.802889129,23,0,0,0,0,8.05,1.65,-0.06,-1.69,0.79,0.46,-2.375,17.6875,-24.0,0.02960205078125,-0.71966552734375,-0.09442138671875,-0.687255859375,-45.1875,-9.5625,16.875,9.75,0.85,-0.52,stop,1
6.28,607613.816092132,23,0,0,0,0,7.66,1.25,-0.03,-2.09,0.36,0.44,-7.6875,25.375,-20.25,0.02813720703125,-0.71795654296875,-0.09521484375,-0.68896484375,-45.1875,-9.5625,16.875,9.75,0.89,-0.48,stop,1
6.29,607613.816092132,23,0,0,0,0,7.33,1.01,0.15,-2.41,0.1,0.57,-11.0625,34.625,-16.0,0.0267333984375,-0.71575927734375,-0.095458984375,-0.69122314453125,-45.1875,-9.5625,16.875,9.75,0.91,-0.42,stop,1
6.3,607613.831297047,23,0,0,0,0,6.85,0.54,0.42,-2.89,-0.39,0.76,-14.5,46.25,-12.375,0.02545166015625,-0.712890625,-0.09527587890625,-0.69427490234375,-45.1875,-9.5625,16.875,9.75,0.94,-0.33,stop,1
6.31,607613.831297047,23,0,0,0,0,6.35,0.0,0.31,-3.39,-0.96,0.55,-15.8125,57.0625,-8.8125,0.0244140625,-0.70941162109375,-0.0947265625,-0.697998046875,-45.1875,-9.5625,16.875,9.75,0.95,-0.23,stop,1
6.32,607613.861759978,23,0,0,0,0,6.12,-0.23,0.1,-3.62,-1.19,0.24,-15.4375,59.6875,-1.75,0.02386474609375,-0.70574951171875,-0.09375,-0.7017822265625,-46.0,-9.875,14.875,9.75,0.96,-0.13,stop,1
6.33,607613.861759978,23,0,0,0,0,6.01,-0.44,-0.07,-3.74,-1.39,-0.01,-17.6875,46.5,1.4375,0.02325439453125,-0.70294189453125,-0.092529296875,-0.704833984375,-46.0,-9.875,14.875,9.75,0.95,-0.05,stop,1
6.34,607613.875716155,23,0,0,0,0,6.33,-0.45,-0.04,-3.42,-1.4,-0.04,-16.75,32.875,7.625,0.02294921875,-0.7010498046875,-0.0909423828125,-0.70697021484375,-46.0,-9.875,14.875,9.76,0.94,0.0,stop,1
6.35,607613.875716155,23,0,0,0,0,6.74,-0.15,-0.18,-3.02,-1.08,-0.23,-11.0,25.375,13.0625,0.02325439453125,-0.6995849609375,-0.08941650390625,-0.70855712890625,-46.0,-9.875,14.875,9.76,0.92,0.05,stop,1
6.36,607613.893556324,23,0,0,0,0,7.38,0.28,-0.44,-2.38,-0.61,-0.53,-3.25,20.0625,11.4375,0.02392578125,-0.69842529296875,-0.0885009765625,-0.70977783203125,-46.0,-9.875,14.875,9.76,0.9,0.08,stop,1
6.37,607613.893556324,23,0,0,0,0,7.56,-0.05,-0.35,-2.2,-0.93,-0.46,3.4375,14.6875,13.3125,0.02508544921875,-0.6976318359375,-0.08782958984375,-0.71063232421875,-45.75,-10.875,15.375,9.76,0.88,0.11,stop,1
6.38,607613.923167083,23,0,0,0,0,8.86,0.37,-1.37,-0.9,-0.45,-1.5,9.875,10.6875,26.6875,0.02740478515625,-0.6971435546875,-0.0867919921875,-0.71112060546875,-45.75,-10.875,15.375,9.77,0.83,0.12,stop,1
6.39,607613.923167083,23,0,0,0,0,9.05,0.57,-1.32,-0.71,-0.22,-1.45,3.75,1.8125,23.75,0.02911376953125,-0.69720458984375,-0.0855712890625,-0.711181640625,-45.75,-10.875,15.375,9.77,0.79,0.12,stop,1
6.4,607613.935939951,23,0,0,0,0,9.06,0.81,-0.38,-0.71,0.06,-0.52,-6.75,6.625,27.25,0.03045654296875,-0.69696044921875,-0.08349609375,-0.7115478515625,-45.75,-10.875,15.375,9.77,0.74,0.14,stop,1
6.41,607613.935939951,23,0,0,0,0,10.14,0.44,-0.45,0.36,-0.24,-0.58,-12.1875,-4.375,31.6875,0.0316162109375,-0.697509765625,-0.080810546875,-0.7113037109375,-45.75,-10.875,15.375,9.78,0.69,0.13,stop,1
6.42,607613.951543182,23,0,0,0,0,10.92,0.36,0.24,1.13,-0.29,0.15,-2.375,-21.8125,21.3125,0.03265380859375,-0.69903564453125,-0.0794677734375,-0.70989990234375,-46.875,-11.25,15.0,9.78,0.65,0.09,stop,1
6.43,607613.951543182,23,0,0,0,0,10.92,0.36,0.24,1.13,-0.29,0.15,-2.375,-21.8125,21.3125,0.03265380859375,-0.69903564453125,-0.0794677734375,-0.70989990234375,-46.875,-11.25,15.0,9.78,0.65,0.09,stop,1
6.43,607613.966482024,23,0,0,0,0,10.74,0.92,-0.25,0.96,0.28,-0.34,26.8125,-8.1875,5.9375,0.03460693359375,-0.69952392578125,-0.08074951171875,-0.709228515625,-46.875,-11.25,15.0,9.78,0.64,0.08,stop,1
6.44,607613.966482024,23,0,0,0,0,10.54,1.06,-0.67,0.76,0.41,-0.76,35.0,9.8125,1.75,0.03692626953125,-0.69879150390625,-0.08282470703125,-0.70953369140625,-46.875,-11.25,15.0,9.78,0.64,0.09,stop,1
6.45,607613.98128248,23,0,0,0,0,10.86,0.72,-0.22,1.07,0.08,-0.33,24.875,5.125,2.5,0.03863525390625,-0.69842529296875,-0.08416748046875,-0.70965576171875,-46.875,-11.25,15.0,9.78,0.64,0.1,stop,1
6.46,607613.98128248,23,0,0,0,0,10.82,0.87,0.21,1.03,0.23,0.1,18.9375,1.75,3.5625,0.0400390625,-0.69830322265625,-0.08514404296875,-0.7095947265625,-46.875,-11.25,15.0,9.78,0.63,0.1,stop,1
6.47,607614.011998097,23,0,0,0,0,10.79,1.1,0.41,1.0,0.47,0.29,21.75,9.0,1.3125,0.04150390625,-0.6976318359375,-0.08636474609375,-0.71002197265625,-44.5625,-9.0625,14.5625,9.78,0.63,0.11,stop,1
6.48,607614.011998097,23,0,0,0,0,9.85,1.41,0.0,0.07,0.77,-0.14,23.6875,14.0,-2.25,0.04290771484375,-0.6966552734375,-0.08795166015625,-0.710693359375,-44.5625,-9.0625,14.5625,9.78,0.63,0.13,stop,1
6.49,607614.026217498,23,0,0,0,0,9.4,1.47,-0.24,-0.37,0.83,-0.41,18.9375,19.6875,-2.375,0.0440673828125,-0.69537353515625,-0.08917236328125,-0.71173095703125,-44.5625,-9.0625,14.5625,9.78,0.64,0.16,stop,1
6.5,607614.026217498,23,0,0,0,0,8.86,1.46,-0.47,-0.91,0.81,-0.68,6.9375,22.0,1.75,0.04473876953125,-0.6939697265625,-0.08941650390625,-0.7130126953125,-44.5625,-9.0625,14.5625,9.78,0.64,0.2,stop,1
6.51,607614.041024546,23,0,0,0,0,8.45,1.13,-0.4,-1.33,0.5,-0.63,-8.125,12.75,7.125,0.0447998046875,-0.69329833984375,-0.08843994140625,-0.71380615234375,-44.5625,-9.0625,14.5625,9.78,0.62,0.22,stop,1
6.52,607614.041024546,23,0,0,0,0,8.58,1.09,-0.18,-1.2,0.48,-0.41,-17.0,2.375,9.9375,0.04443359375,-0.69329833984375,-0.0867919921875,-0.71405029296875,-44.1875,-10.0625,14.1875,9.78,0.61,0.23,stop,1
6.53,607614.072638478,23,0,0,0,0,8.71,1.06,0.06,-1.06,0.46,-0.16,-18.3125,-1.9375,9.125,0.0438232421875,-0.69354248046875,-0.0850830078125,-0.71405029296875,-44.1875,-10.0625,14.1875,9.78,0.59,0.23,stop,1
6.54,607614.072638478,23,0,0,0,0,8.89,0.98,0.2,-0.89,0.4,-0.01,-17.0625,-5.75,8.0,0.04327392578125,-0.69403076171875,-0.08355712890625,-0.7137451171875,-44.1875,-10.0625,14.1875,9.78,0.58,0.22,stop,1
6.55,607614.089182993,23,0,0,0,0,9.17,0.63,0.37,-0.61,0.06,0.17,-16.6875,-10.3125,7.375,0.04266357421875,-0.69476318359375,-0.08209228515625,-0.7132568359375,-44.1875,-10.0625,14.1875,9.78,0.56,0.2,stop,1
6.56,607614.089182993,23,0,0,0,0,9.26,0.53,0.37,-0.52,-0.01,0.18,-15.4375,-10.875,6.75,0.04205322265625,-0.695556640625,-0.080810546875,-0.712646484375,-44.1875,-10.0625,14.1875,9.78,0.55,0.18,stop,1
6.57,607614.101002939,23,0,0,0,0,9.37,0.38,0.27,-0.41,-0.16,0.09,-13.9375,-7.0625,6.5625,0.04156494140625,-0.69610595703125,-0.07952880859375,-0.7122802734375,-45.0625,-10.0625,13.5,9.78,0.54,0.17,stop,1
6.58,607614.101002939,23,0,0,0,0,9.53,0.3,0.16,-0.25,-0.22,-0.01,-12.0,-2.6875,7.1875,0.041259765625,-0.69635009765625,-0.078369140625,-0.71221923828125,-45.0625,-10.0625,13.5,9.79,0.53,0.17,stop,1
6.59,607614.134001434,23,0,0,0,0,9.8,0.36,0.11,0.01,-0.15,-0.05,-8.4375,-0.8125,7.3125,0.0411376953125,-0.696533203125,-0.077392578125,-0.712158203125,-45.0625,-10.0625,13.5,9.79,0.51,0.17,stop,1
6.6,607614.134001434,23,0,0,0,0,9.95,0.43,0.21,0.16,-0.06,0.03,-5.8125,-1.25,8.0,0.04132080078125,-0.6966552734375,-0.07659912109375,-0.71209716796875,-45.0625,-10.0625,13.5,9.79,0.5,0.17,stop,1
6.61,607614.147065805,23,0,0,0,0,10.01,0.48,0.3,0.21,0.0,0.13,-4.0,-3.5625,8.0,0.04150390625,-0.69696044921875,-0.07586669921875,-0.71185302734375,-45.0625,-10.0625,13.5,9.79,0.49,0.16,stop,1
6.62,607614.147065805,23,0,0,0,0,10.03,0.67,0.34,0.23,0.19,0.18,-1.0,-5.0,7.0,0.0418701171875,-0.69732666015625,-0.07537841796875,-0.7115478515625,-45.5,-10.0625,14.1875,9.79,0.47,0.15,stop,1
6.63,607614.160988616,23,0,0,0,0,9.97,0.69,0.32,0.18,0.22,0.16,1.6875,-2.25,5.4375,0.04229736328125,-0.697509765625,-0.0751953125,-0.71136474609375,-45.5,-10.0625,14.1875,9.79,0.47,0.15,stop,1
6.64,607614.160988616,23,0,0,0,0,9.93,0.65,0.21,0.14,0.19,0.05,1.0625,1.5,4.75,0.04266357421875,-0.69744873046875,-0.074951171875,-0.71142578125,-45.5,-10.0625,14.1875,9.79,0.46,0.15,stop,1
6.65,607614.192738779,23,0,0,0,0,9.92,0.51,0.09,0.12,0.06,-0.07,-2.1875,3.3125,5.375,0.0428466796875,-0.697265625,-0.074462890625,-0.711669921875,-45.5,-10.0625,14.1875,9.79,0.45,0.16,stop,1
6.66,607614.192738779,23,0,0,0,0,9.65,0.42,-0.01,-0.14,-0.02,-0.19,-2.375,5.1875,5.25,0.0430908203125,-0.697021484375,-0.073974609375,-0.7119140625,-45.5,-10.0625,14.1875,9.79,0.44,0.17,stop,1
6.67,607614.206789153,23,0,0,0,0,9.6,0.52,-0.08,-0.19,0.09,-0.26,-2.625,4.8125,5.1875,0.04327392578125,-0.69671630859375,-0.073486328125,-0.71221923828125,-46.0625,-9.0625,13.75,9.79,0.43,0.17,stop,1
6.68,607614.206789153,23,0,0,0,0,9.53,0.41,0.06,-0.26,-0.01,-0.12,-5.75,2.75,5.3125,0.04327392578125,-0.6966552734375,-0.07281494140625,-0.71240234375,-46.0625,-9.0625,13.75,9.79,0.42,0.18,stop,1
6.69,607614.221795989,23,0,0,0,0,9.5,0.41,0.07,-0.28,0.0,-0.11,-8.25,2.625,7.0625,0.043212890625,-0.696533203125,-0.07183837890625,-0.71258544921875,-46.0625,-9.0625,13.75,9.79,0.41,0.18,stop,1
6.7,607614.221795989,23,0,0,0,0,9.7,0.5,0.25,-0.09,0.1,0.07,-7.5,-2.0,7.1875,0.04315185546875,-0.69671630859375,-0.07098388671875,-0.7125244140625,-46.0625,-9.0625,13.75,9.79,0.4,0.18,stop,1
6.71,607614.252057749,23,0,0,0,0,9.67,0.51,0.22,-0.12,0.12,0.04,-4.6875,-1.0625,5.5,0.043212890625,-0.69683837890625,-0.07037353515625,-0.71246337890625,-46.0625,-9.0625,13.75,9.79,0.39,0.18,stop,1
6.72,607614.252057749,23,0,0,0,0,9.31,0.67,0.12,-0.47,0.28,-0.05,-3.875,0.5625,4.875,0.04327392578125,-0.6968994140625,-0.06982421875,-0.71246337890625,-45.6875,-9.5,13.5,9.79,0.38,0.18,stop,1
6.73,607614.266773244,23,0,0,0,0,9.72,0.58,0.31,-0.07,0.21,0.13,-8.1875,-4.8125,7.4375,0.0430908203125,-0.69720458984375,-0.0689697265625,-0.71221923828125,-45.6875,-9.5,13.5,9.79,0.37,0.17,stop,1
6.74,607614.266773244,23,0,0,0,0,9.73,0.59,0.45,-0.05,0.22,0.28,-8.8125,-3.6875,7.0625,0.04290771484375,-0.69744873046875,-0.06805419921875,-0.71209716796875,-45.6875,-9.5,13.5,9.79,0.36,0.17,stop,1
6.75,607614.282107065,23,0,0,0,0,9.79,0.67,0.4,0.0,0.31,0.22,-4.5,-0.5,5.3125,0.0428466796875,-0.69744873046875,-0.06756591796875,-0.712158203125,-45.6875,-9.5,13.5,9.79,0.35,0.17,stop,1
6.76,607614.282107065,23,0,0,0,0,9.92,0.54,0.25,0.12,0.19,0.08,-3.1875,-2.625,4.375,0.04290771484375,-0.6976318359375,-0.067138671875,-0.7120361328125,-45.6875,-9.5,13.5,9.79,0.35,0.17,stop,1
6.77,607614.313605641,23,0,0,0,0,9.78,0.55,0.2,-0.01,0.2,0.02,-1.6875,-0.875,3.25,0.04302978515625,-0.69769287109375,-0.06683349609375,-0.71197509765625,-45.6875,-9.5,14.1875,9.79,0.34,0.17,stop,1
6.78,607614.313605641,23,0,0,0,0,9.73,0.56,0.14,-0.06,0.22,-0.02,-0.6875,2.4375,2.25,0.0430908203125,-0.69757080078125,-0.066650390625,-0.71209716796875,-45.6875,-9.5,14.1875,9.79,0.34,0.17,stop,1
6.79,607614.327608896,23,0,0,0,0,9.77,0.45,0.12,-0.02,0.12,-0.05,-1.5625,0.1875,2.625,0.04315185546875,-0.69757080078125,-0.06640625,-0.71209716796875,-45.6875,-9.5,14.1875,9.79,0.33,0.17,stop,1
6.8,607614.327608896,23,0,0,0,0,9.75,0.24,0.05,-0.04,-0.08,-0.11,-1.625,-1.625,2.625,0.04315185546875,-0.69775390625,-0.066162109375,-0.71197509765625,-45.6875,-9.5,14.1875,9.79,0.33,0.17,stop,1
6.81,607614.341709279,23,0,0,0,0,9.75,0.27,0.14,-0.04,-0.05,-0.02,0.0625,-0.3125,2.5625,0.0433349609375,-0.69775390625,-0.0660400390625,-0.71197509765625,-45.6875,-9.5,14.1875,9.79,0.32,0.17,stop,1
6.82,607614.341709279,23,0,0,0,0,9.94,0.36,0.16,0.14,0.04,0.0,1.3125,-2.75,2.875,0.0435791015625,-0.69793701171875,-0.06597900390625,-0.7117919921875,-45.6875,-8.0,13.75,9.79,0.32,0.16,stop,1
6.83,607614.370993458,23,0,0,0,0,10.0,0.39,0.24,0.2,0.07,0.08,0.125,-4.5,3.4375,0.04376220703125,-0.6982421875,-0.0657958984375,-0.71148681640625,-45.6875,-8.0,13.75,9.8,0.31,0.15,stop,1
6.84,607614.370993458,23,0,0,0,0,10.04,0.47,0.44,0.24,0.16,0.28,-0.625,-5.0625,4.0625,0.0439453125,-0.69854736328125,-0.06549072265625,-0.71124267578125,-45.6875,-8.0,13.75,9.8,0.31,0.15,stop,1
6.85,607614.386423512,23,0,0,0,0,9.93,0.41,0.3,0.13,0.1,0.15,-0.5,-4.8125,4.1875,0.04412841796875,-0.6988525390625,-0.0653076171875,-0.7109375,-45.6875,-8.0,13.75,9.8,0.3,0.14,stop,1
6.86,607614.386423512,23,0,0,0,0,9.77,0.43,0.23,-0.02,0.12,0.09,1.75,-1.8125,2.9375,0.04437255859375,-0.69891357421875,-0.06524658203125,-0.7108154296875,-45.6875,-8.0,13.75,9.8,0.3,0.14,stop,1
6.86,607614.40115748,23,0,0,0,0,9.77,0.43,0.23,-0.02,0.12,0.09,1.75,-1.8125,2.9375,0.04437255859375,-0.69891357421875,-0.06524658203125,-0.7108154296875,-45.6875,-8.0,13.75,9.8,0.3,0.14,stop,1
6.87,607614.40115748,23,0,0,0,0,9.48,0.41,-0.05,-0.31,0.11,-0.2,3.375,1.875,1.5,0.044677734375,-0.69879150390625,-0.0654296875,-0.7109375,-45.375,-9.0625,14.1875,9.8,0.29,0.14,stop,1
6.88,607614.417127532,23,0,0,0,0,9.41,0.47,-0.01,-0.38,0.18,-0.15,3.9375,-0.5625,1.0625,0.04498291015625,-0.6988525390625,-0.06561279296875,-0.71087646484375,-45.375,-9.0625,14.1875,9.8,0.29,0.14,stop,1
6.89,607614.417127532,23,0,0,0,0,9.38,0.56,0.03,-0.41,0.26,-0.1,2.625,-1.6875,1.0,0.045166015625,-0.69891357421875,-0.065673828125,-0.71075439453125,-45.375,-9.0625,14.1875,9.8,0.29,0.14,stop,1
6.9,607614.433234995,23,0,0,0,0,9.47,0.45,-0.01,-0.32,0.15,-0.14,-0.8125,-4.0,2.0,0.04522705078125,-0.69921875,-0.0655517578125,-0.71051025390625,-45.375,-9.0625,14.1875,9.8,0.29,0.13,stop,1
6.91,607614.433234995,23,0,0,0,0,9.6,0.34,-0.02,-0.19,0.05,-0.15,0.0625,-4.875,1.875,0.0452880859375,-0.69952392578125,-0.0654296875,-0.710205078125,-45.375,-9.0625,14.1875,9.8,0.28,0.12,stop,1
6.92,607614.462396697,23,0,0,0,0,9.62,0.39,0.0,-0.17,0.1,-0.12,3.5,-3.8125,1.375,0.04559326171875,-0.69976806640625,-0.06561279296875,-0.70989990234375,-46.0625,-9.5,14.5625,9.8,0.28,0.11,stop,1
6.93,607614.462396697,23,0,0,0,0,9.76,0.42,0.09,-0.03,0.13,-0.01,5.625,-4.6875,0.75,0.04595947265625,-0.70001220703125,-0.06597900390625,-0.7095947265625,-46.0625,-9.5,14.5625,9.8,0.28,0.11,stop,1
6.94,607614.476238983,23,0,0,0,0,9.88,0.51,0.14,0.08,0.22,0.04,6.5,-6.9375,0.1875,0.0462646484375,-0.700439453125,-0.06640625,-0.7091064453125,-46.0625,-9.5,14.5625,9.8,0.28,0.09,stop,1
6.95,607614.476238983,23,0,0,0,0,9.8,0.48,0.09,0.0,0.19,0.0,5.6875,-6.375,-0.1875,0.04656982421875,-0.7008056640625,-0.0667724609375,-0.70867919921875,-46.0625,-9.5,14.5625,9.8,0.28,0.08,stop,1
6.96,607614.491989593,23,0,0,0,0,9.82,0.51,0.12,0.02,0.22,0.05,3.8125,-4.75,0.0625,0.04681396484375,-0.70111083984375,-0.0670166015625,-0.7083740234375,-46.0625,-9.5,14.5625,9.8,0.28,0.07,stop,1
6.97,607614.491989593,23,0,0,0,0,9.84,0.52,0.14,0.04,0.23,0.07,1.8125,-3.625,0.5,0.04681396484375,-0.7012939453125,-0.06719970703125,-0.7081298828125,-45.1875,-7.5625,13.75,9.8,0.28,0.07,stop,1
6.98,607614.522166554,23,0,0,0,0,9.75,0.52,0.19,-0.04,0.23,0.12,0.5625,-1.1875,0.25,0.04681396484375,-0.7012939453125,-0.06732177734375,-0.7081298828125,-45.1875,-7.5625,13.75,9.8,0.29,0.07,stop,1
6.99,607614.522166554,23,0,0,0,0,9.7,0.51,0.21,-0.1,0.21,0.13,0.0,-0.3125,-0.125,0.04669189453125,-0.7012939453125,-0.0673828125,-0.7081298828125,-45.1875,-7.5625,13.75,9.8,0.29,0.07,stop,1
7.0,607614.53731548,23,0,0,0,0,9.66,0.48,0.13,-0.13,0.19,0.06,0.125,-0.8125,-0.5625,0.046630859375,-0.7012939453125,-0.0675048828125,-0.7081298828125,-45.1875,-7.5625,13.75,9.8,0.29,0.07,stop,1
7.01,607614.53731548,23,0,0,0,0,9.63,0.42,0.07,-0.16,0.12,0.0,0.875,-0.6875,-1.3125,0.0465087890625,-0.7012939453125,-0.06768798828125,-0.70806884765625,-45.1875,-7.5625,13.75,9.8,0.3,0.07,stop,1
7.02,607614.552278615,23,0,0,0,0,9.66,0.41,0.02,-0.13,0.11,-0.04,2.3125,-0.125,-1.8125,0.0465087890625,-0.7012939453125,-0.0679931640625,-0.70806884765625,-44.5,-9.75,14.1875,9.8,0.3,0.06,stop,1
7.03,607614.552278615,23,0,0,0,0,9.64,0.44,0.0,-0.15,0.13,-0.05,3.1875,-0.8125,-1.75,0.04656982421875,-0.7012939453125,-0.06829833984375,-0.7080078125,-44.5,-9.75,14.1875,9.8,0.3,0.06,stop,1
7.04,607614.582650034,23,0,0,0,0,9.64,0.41,-0.02,-0.15,0.1,-0.09,3.375,-1.5,-1.5,0.04669189453125,-0.701416015625,-0.06866455078125,-0.7078857421875,-44.5,-9.75,14.1875,9.8,0.31,0.06,stop,1
7.05,607614.582650034,23,0,0,0,0,9.72,0.38,-0.04,-0.07,0.06,-0.1,2.5625,-1.875,-1.125,0.0467529296875,-0.7015380859375,-0.06890869140625,-0.707763671875,-44.5,-9.75,14.1875,9.8,0.31,0.06,stop,1
7.06,607614.597446421,23,0,0,0,0,9.74,0.39,-0.01,-0.05,0.07,-0.07,1.25,-2.4375,-0.25,0.0467529296875,-0.70166015625,-0.06903076171875,-0.70758056640625,-44.5,-9.75,14.1875,9.8,0.31,0.05,stop,1
7.07,607614.597446421,23,0,0,0,0,9.92,0.37,0.07,0.12,0.06,0.02,0.0,-3.9375,0.6875,0.04681396484375,-0.701904296875,-0.06903076171875,-0.70733642578125,-45.1875,-9.75,14.1875,9.8,0.31,0.04,stop,1
7.08,607614.611795054,23,0,0,0,0,9.91,0.36,0.28,0.11,0.05,0.23,0.1875,-3.25,0.1875,0.0467529296875,-0.70208740234375,-0.06903076171875,-0.7071533203125,-45.1875,-9.75,14.1875,9.8,0.31,0.04,stop,1
7.09,607614.611795054,23,0,0,0,0,9.79,0.47,0.29,0.0,0.16,0.24,0.3125,-1.125,0.0,0.04669189453125,-0.7021484375,-0.069091796875,-0.7071533203125,-45.1875,-9.75,14.1875,9.8,0.31,0.04,stop,1
7.1,607614.642020477,23,0,0,0,0,9.74,0.41,0.24,-0.05,0.1,0.2,-0.625,-2.5,0.4375,0.046630859375,-0.7022705078125,-0.06903076171875,-0.70703125,-45.1875,-9.75,14.1875,9.8,0.31,0.04,stop,1
7.11,607614.642020477,23,0,0,0,0,9.64,0.44,0.11,-0.15,0.12,0.07,1.75,-0.6875,-0.6875,0.046630859375,-0.7022705078125,-0.06927490234375,-0.70703125,-45.1875,-9.75,14.1875,9.8,0.31,0.04,stop,1
7.12,607614.656685963,23,0,0,0,0,9.51,0.44,0.02,-0.28,0.12,-0.01,3.875,1.5625,-1.625,0.0467529296875,-0.70208740234375,-0.069580078125,-0.70709228515625,-45.5,-8.6875,13.75,9.8,0.32,0.04,stop,1
7.13,607614.656685963,23,0,0,0,0,9.54,0.44,-0.02,-0.25,0.12,-0.06,3.75,0.125,-1.6875,0.046875,-0.70208740234375,-0.0699462890625,-0.70709228515625,-45.5,-8.6875,13.75,9.8,0.32,0.04,stop,1
7.14,607614.671663177,23,0,0,0,0,9.6,0.4,-0.04,-0.2,0.07,-0.08,3.6875,-1.6875,-1.5625,0.0469970703125,-0.7021484375,-0.0703125,-0.70697021484375,-45.5,-8.6875,13.75,9.8,0.32,0.03,stop,1
7.15,607614.671663177,23,0,0,0,0,9.59,0.41,-0.03,-0.2,0.08,-0.07,4.0625,-2.3125,-1.875,0.047119140625,-0.7022705078125,-0.07073974609375,-0.706787109375,-45.5,-8.6875,13.75,9.8,0.33,0.03,stop,1
7.16,607614.7022341,23,0,0,0,0,9.63,0.36,-0.01,-0.16,0.03,-0.04,4.0625,-2.3125,-1.875,0.04718017578125,-0.702392578125,-0.07110595703125,-0.7066650390625,-45.5,-8.6875,13.75,9.8,0.33,0.03,stop,1
7.17,607614.7022341,23,0,0,0,0,9.75,0.38,-0.01,-0.04,0.04,-0.03,4.1875,-3.0625,-1.6875,0.04730224609375,-0.70257568359375,-0.07147216796875,-0.7064208984375,-45.5,-9.5,15.0,9.8,0.33,0.02,stop,1
7.18,607614.716371022,23,0,0,0,0,9.78,0.39,0.0,-0.01,0.05,-0.01,3.9375,-2.8125,-1.5,0.04742431640625,-0.70269775390625,-0.07183837890625,-0.70623779296875,-45.5,-9.5,15.0,9.8,0.34,0.02,stop,1
7.19,607614.716371022,22,0,0,0,0,9.87,0.42,0.14,0.07,0.08,0.12,3.125,-1.5,-1.125,0.04754638671875,-0.7027587890625,-0.0721435546875,-0.70611572265625,-45.5,-9.5,15.0,9.8,0.34,0.01,stop,1
7.2,607614.73269459,22,0,0,0,0,9.88,0.44,0.21,0.08,0.09,0.19,2.375,-1.0625,-0.8125,0.047607421875,-0.70281982421875,-0.07232666015625,-0.7060546875,-45.5,-9.5,15.0,9.8,0.34,0.01,stop,1
7.21,607614.73269459,22,0,0,0,0,9.83,0.46,0.24,0.03,0.11,0.22,1.8125,-0.5,-0.625,0.04766845703125,-0.7027587890625,-0.072509765625,-0.70611572265625,-45.5,-9.5,15.0,9.8,0.34,0.01,stop,1
7.22,607614.762493174,22,0,0,0,0,9.75,0.45,0.2,-0.04,0.11,0.18,1.625,0.0625,-0.375,0.0477294921875,-0.70269775390625,-0.0726318359375,-0.70611572265625,-44.75,-8.6875,14.5625,9.8,0.34,0.01,stop,1
7.23,607614.762493174,22,0,0,0,0,9.72,0.45,0.04,-0.07,0.1,0.02,1.5625,0.8125,-0.0625,0.0478515625,-0.70263671875,-0.07275390625,-0.7061767578125,-44.75,-8.6875,14.5625,9.8,0.34,0.01,stop,1
7.24,607614.776308156,22,0,0,0,0,9.71,0.41,0.03,-0.08,0.06,0.01,1.8125,0.5625,0.125,0.04791259765625,-0.70257568359375,-0.0728759765625,-0.70623779296875,-44.75,-8.6875,14.5625,9.8,0.34,0.02,stop,1
7.25,607614.776308156,22,0,0,0,0,9.61,0.43,0.01,-0.19,0.08,0.0,3.0,1.1875,-0.5,0.048095703125,-0.70245361328125,-0.0731201171875,-0.706298828125,-44.75,-8.6875,14.5625,9.8,0.34,0.02,stop,1
7.26,607614.790871795,22,0,0,0,0,9.57,0.48,-0.03,-0.22,0.13,-0.05,3.625,0.75,-0.3125,0.04833984375,-0.702392578125,-0.07330322265625,-0.706298828125,-44.75,-8.6875,14.5625,9.8,0.35,0.02,stop,1
7.27,607614.790871795,22,0,0,0,0,9.62,0.45,0.08,-0.17,0.1,0.05,2.0625,0.0,0.25,0.04840087890625,-0.702392578125,-0.073486328125,-0.706298828125,-44.6875,-9.0625,15.375,9.8,0.35,0.02,stop,1
7.28,607614.822399749,22,0,0,0,0,9.66,0.44,0.11,-0.13,0.09,0.09,-0.125,-0.6875,1.0,0.0484619140625,-0.70245361328125,-0.07342529296875,-0.706298828125,-44.6875,-9.0625,15.375,9.8,0.34,0.02,stop,1
7.29,607614.822399749,22,0,0,0,0,9.73,0.42,0.17,-0.06,0.07,0.15,-2.0625,-1.3125,1.8125,0.04840087890625,-0.7025146484375,-0.0732421875,-0.70623779296875,-44.6875,-9.0625,15.375,9.8,0.34,0.02,stop,1
7.3,607614.836335622,22,0,0,0,0,9.73,0.3,0.1,-0.06,-0.04,0.08,-2.375,-0.75,1.8125,0.04833984375,-0.70257568359375,-0.072998046875,-0.7061767578125,-44.6875,-9.0625,15.375,9.8,0.34,0.02,stop,1
7.31,607614.836335622,22,0,0,0,0,9.72,0.38,0.07,-0.08,0.04,0.05,0.875,0.375,0.8125,0.0484619140625,-0.70257568359375,-0.072998046875,-0.7061767578125,-44.6875,-9.0625,15.375,9.8,0.34,0.02,stop,1
7.32,607614.85216981,22,0,0,0,0,9.64,0.41,0.05,-0.15,0.06,0.02,5.0625,1.5625,-0.5625,0.04876708984375,-0.70245361328125,-0.0733642578125,-0.70623779296875,-45.0625,-9.75,15.0,9.8,0.34,0.02,stop,1
7.33,607614.85216981,22,0,0,0,0,9.64,0.35,-0.04,-0.15,0.01,-0.06,4.3125,-0.25,-0.25,0.04901123046875,-0.70245361328125,-0.0736083984375,-0.70623779296875,-45.0625,-9.75,15.0,9.8,0.34,0.02,stop,1
7.34,607614.881764577,22,0,0,0,0,9.73,0.49,0.3,-0.06,0.15,0.28,1.6875,-0.9375,0.5,0.049072265625,-0.70245361328125,-0.07373046875,-0.7061767578125,-45.0625,-9.75,15.0,9.8,0.34,0.02,stop,1
7.35,607614.881764577,22,0,0,0,0,9.8,0.33,0.21,0.0,0.0,0.18,-3.9375,-1.25,2.375,0.0489501953125,-0.7025146484375,-0.0733642578125,-0.7061767578125,-45.0625,-9.75,15.0,9.8,0.34,0.02,stop,1
7.36,607614.897367035,22,0,0,0,0,9.79,0.26,0.08,0.0,-0.07,0.06,-4.0,-1.375,2.4375,0.04888916015625,-0.70263671875,-0.072998046875,-0.70611572265625,-45.0625,-9.75,15.0,9.8,0.33,0.01,stop,1
7.37,607614.897367035,22,0,0,0,0,9.69,0.48,-0.03,-0.1,0.15,-0.06,2.9375,2.5625,0.375,0.049072265625,-0.70245361328125,-0.07318115234375,-0.70623779296875,-45.0625,-8.0,14.1875,9.8,0.33,0.02,stop,1
7.38,607614.911416676,22,0,0,0,0,9.68,0.48,-0.07,-0.11,0.14,-0.09,6.0625,2.75,-0.5,0.0494384765625,-0.7022705078125,-0.07354736328125,-0.70635986328125,-45.0625,-8.0,14.1875,9.8,0.33,0.02,stop,1
7.39,607614.911416676,22,0,0,0,0,9.76,0.42,-0.07,-0.03,0.08,-0.1,3.25,-1.4375,0.125,0.04962158203125,-0.70233154296875,-0.07379150390625,-0.70623779296875,-45.0625,-8.0,14.1875,9.8,0.33,0.02,stop,1
7.4,607614.942039439,22,0,0,0,0,9.78,0.39,0.0,-0.01,0.06,-0.02,-0.125,-4.125,1.0625,0.04962158203125,-0.70263671875,-0.07373046875,-0.70599365234375,-45.0625,-8.0,14.1875,9.8,0.33,0.01,stop,1
7.41,607614.942039439,22,0,0,0,0,9.73,0.35,0.17,-0.07,0.02,0.15,-0.375,-2.25,0.875,0.0496826171875,-0.7027587890625,-0.07366943359375,-0.70587158203125,-45.0625,-8.0,14.1875,9.8,0.33,0.01,stop,1
7.42,607614.955499196,22,0,0,0,0,9.67,0.34,0.08,-0.12,0.0,0.07,0.75,-0.1875,0.25,0.0496826171875,-0.7027587890625,-0.07373046875,-0.70587158203125,-45.0625,-7.5625,14.5625,9.8,0.33,0.01,stop,1
7.43,607614.955499196,22,0,0,0,0,9.69,0.36,0.04,-0.1,0.02,0.02,1.9375,0.4375,-0.0625,0.0498046875,-0.7027587890625,-0.0738525390625,-0.70587158203125,-45.0625,-7.5625,14.5625,9.8,0.33,0.01,stop,1
7.44,607614.970745778,22,0,0,0,0,9.62,0.37,-0.02,-0.17,0.03,-0.04,2.0625,1.0,-0.375,0.0499267578125,-0.70263671875,-0.073974609375,-0.7059326171875,-45.0625,-7.5625,14.5625,9.8,0.33,0.01,stop,1
7.45,607614.970745778,22,0,0,0,0,9.61,0.39,-0.01,-0.18,0.05,-0.03,0.875,0.875,0.0,0.04998779296875,-0.70257568359375,-0.07403564453125,-0.7059326171875,-45.0625,-7.5625,14.5625,9.8,0.33,0.01,stop,1
7.46,607615.001847381,22,0,0,0,0,9.61,0.37,-0.01,-0.19,0.03,-0.03,0.0,0.0625,0.125,0.04998779296875,-0.70257568359375,-0.0740966796875,-0.7059326171875,-45.0625,-7.5625,14.5625,9.8,0.33,0.01,stop,1
7.47,607615.001847381,22,0,0,0,0,9.61,0.41,0.0,-0.18,0.07,-0.02,0.0,-0.125,0.0625,0.04998779296875,-0.70257568359375,-0.0740966796875,-0.7059326171875,-46.1875,-9.0625,14.5625,9.8,0.33,0.01,stop,1
7.48,607615.016482188,22,0,0,0,0,9.62,0.4,-0.05,-0.17,0.06,-0.06,0.1875,-0.4375,0.0625,0.04998779296875,-0.70257568359375,-0.0740966796875,-0.7059326171875,-46.1875,-9.0625,14.5625,9.8,0.33,0.01,stop,1
7.49,607615.016482188,22,0,0,0,0,9.65,0.43,-0.07,-0.14,0.09,-0.08,0.25,-0.5625,0.25,0.0499267578125,-0.70263671875,-0.0740966796875,-0.7059326171875,-46.1875,-9.0625,14.5625,9.8,0.33,0.01,stop,1
7.5,607615.031684092,22,0,0,0,0,9.71,0.43,-0.07,-0.08,0.09,-0.08,0.1875,-0.5625,0.375,0.0499267578125,-0.70269775390625,-0.0740966796875,-0.70587158203125,-46.1875,-9.0625,14.5625,9.8,0.33,0.01,stop,1
7.51,607615.031684092,22,0,0,0,0,9.77,0.45,-0.11,-0.02,0.11,-0.12,0.0625,-1.0625,0.4375,0.0499267578125,-0.7027587890625,-0.07415771484375,-0.70574951171875,-46.1875,-9.0625,14.5625,9.8,0.33,0.01,stop,1
7.52,607615.061348765,22,0,0,0,0,9.83,0.47,-0.06,0.02,0.13,-0.07,0.0,-1.4375,0.3125,0.04986572265625,-0.702880859375,-0.07415771484375,-0.7056884765625,-44.6875,-9.0625,13.0625,9.8,0.33,0.0,stop,1
7.53,607615.061348765,22,0,0,0,0,9.82,0.51,0.03,0.02,0.17,0.03,0.6875,-0.75,-0.0625,0.04986572265625,-0.70294189453125,-0.07427978515625,-0.70562744140625,-44.6875,-9.0625,13.0625,9.8,0.33,0.0,stop,1
7.54,607615.076589203,22,0,0,0,0,9.82,0.5,0.08,0.02,0.16,0.07,-0.3125,-0.25,0.0,0.04986572265625,-0.70294189453125,-0.07427978515625,-0.70562744140625,-44.6875,-9.0625,13.0625,9.8,0.34,0.0,stop,1
7.55,607615.076589203,22,0,0,0,0,9.71,0.32,0.04,-0.08,-0.01,0.03,-2.375,-0.5625,0.1875,0.0496826171875,-0.70294189453125,-0.07415771484375,-0.70562744140625,-44.6875,-9.0625,13.0625,9.8,0.34,0.0,stop,1
7.56,607615.091892588,22,0,0,0,0,9.62,0.35,0.01,-0.17,0.01,0.0,-1.5,1.25,-0.125,0.04962158203125,-0.702880859375,-0.07403564453125,-0.7056884765625,-44.6875,-9.0625,13.0625,9.8,0.34,0.0,stop,1
7.57,607615.091892588,22,0,0,0,0,9.55,0.37,-0.01,-0.24,0.03,-0.02,-0.5,3.0625,-0.4375,0.04962158203125,-0.70269775390625,-0.07403564453125,-0.70587158203125,-45.375,-9.0625,14.1875,9.8,0.34,0.01,stop,1
7.58,607615.121134002,22,0,0,0,0,9.53,0.35,-0.03,-0.26,0.01,-0.05,-0.5,2.3125,-0.3125,0.04962158203125,-0.70257568359375,-0.07403564453125,-0.7060546875,-45.375,-9.0625,14.1875,9.8,0.34,0.01,stop,1
7.59,607615.121134002,22,0,0,0,0,9.61,0.42,-0.1,-0.18,0.07,-0.12,-0.25,0.25,-0.1875,0.04962158203125,-0.70257568359375,-0.07403564453125,-0.70599365234375,-45.375,-9.0625,14.1875,9.8,0.34,0.01,stop,1
7.6,607615.13648764,22,0,0,0,0,9.65,0.41,-0.11,-0.14,0.06,-0.12,-0.0625,-1.625,-0.125,0.049560546875,-0.70269775390625,-0.0740966796875,-0.7059326171875,-45.375,-9.0625,14.1875,9.8,0.34,0.01,stop,1
7.61,607615.13648764,22,0,0,0,0,9.68,0.43,-0.09,-0.11,0.09,-0.1,0.8125,-1.75,-0.4375,0.04962158203125,-0.70281982421875,-0.07415771484375,-0.70574951171875,-45.375,-9.0625,14.1875,9.8,0.34,0.01,stop,1
7.62,607615.152716441,22,0,0,0,0,9.75,0.44,-0.04,-0.04,0.1,-0.05,1.4375,-1.5625,-0.625,0.04962158203125,-0.702880859375,-0.0743408203125,-0.7056884765625,-45.0625,-9.0625,13.75,9.8,0.34,0.0,stop,1
7.63,607615.152716441,22,0,0,0,0,9.79,0.43,-0.03,0.0,0.08,-0.03,1.1875,-1.125,-0.5625,0.04962158203125,-0.70294189453125,-0.074462890625,-0.70556640625,-45.0625,-9.0625,13.75,9.8,0.34,0.0,stop,1
7.64,607615.181447479,22,0,0,0,0,9.82,0.44,0.0,0.02,0.09,0.0,0.0625,-0.25,-0.375,0.04962158203125,-0.70294189453125,-0.074462890625,-0.70556640625,-45.0625,-9.0625,13.75,9.8,0.34,0.0,stop,1
7.65,607615.181447479,22,0,0,0,0,9.8,0.45,0.09,0.0,0.1,0.08,-0.875,0.5625,-0.25,0.049560546875,-0.70294189453125,-0.07440185546875,-0.70562744140625,-45.0625,-9.0625,13.75,9.8,0.34,0.0,stop,1
7.66,607615.196542124,22,0,0,0,0,9.79,0.42,0.12,0.0,0.07,0.12,-2.0,0.9375,-0.125,0.0494384765625,-0.702880859375,-0.07427978515625,-0.7056884765625,-45.0625,-9.0625,13.75,9.8,0.34,0.0,stop,1
7.67,607615.196542124,22,0,0,0,0,9.76,0.4,0.08,-0.03,0.05,0.06,-2.4375,1.1875,-0.1875,0.04925537109375,-0.7027587890625,-0.07415771484375,-0.705810546875,-44.75,-8.375,14.1875,9.8,0.34,0.01,stop,1
7.68,607615.215297821,22,0,0,0,0,9.68,0.4,0.03,-0.11,0.05,0.01,-1.8125,1.6875,-0.5,0.0491943359375,-0.70269775390625,-0.07403564453125,-0.7059326171875,-44.75,-8.375,14.1875,9.8,0.34,0.01,stop,1
7.69,607615.215297821,22,0,0,0,0,9.61,0.37,-0.05,-0.19,0.02,-0.07,-0.75,2.4375,-0.75,0.049072265625,-0.7025146484375,-0.07403564453125,-0.7060546875,-44.75,-8.375,14.1875,9.8,0.34,0.01,stop,1
7.7,607615.242367482,22,0,0,0,0,9.59,0.37,-0.1,-0.2,0.02,-0.12,0.1875,2.375,-1.1875,0.04901123046875,-0.702392578125,-0.0740966796875,-0.70623779296875,-44.75,-8.375,14.1875,9.8,0.35,0.02,stop,1
7.71,607615.242367482,22,0,0,0,0,9.62,0.4,-0.09,-0.17,0.04,-0.12,0.8125,2.1875,-1.1875,0.04901123046875,-0.7022705078125,-0.07427978515625,-0.70635986328125,-44.75,-8.375,14.1875,9.8,0.35,0.02,stop,1
7.72,607615.257113657,22,0,0,0,0,9.7,0.38,-0.11,-0.09,0.03,-0.14,0.8125,1.6875,-1.0625,0.0489501953125,-0.7021484375,-0.07440185546875,-0.7064208984375,-45.1875,-8.375,14.1875,9.8,0.35,0.02,stop,1
7.73,607615.257113657,22,0,0,0,0,9.83,0.45,0.03,0.03,0.1,0.0,0.5625,1.0,-0.875,0.0489501953125,-0.70208740234375,-0.074462890625,-0.70648193359375,-45.1875,-8.375,14.1875,9.8,0.35,0.02,stop,1
7.74,607615.271895233,22,0,0,0,0,9.84,0.47,0.09,0.04,0.11,0.05,0.0,0.75,-0.6875,0.04888916015625,-0.7020263671875,-0.07452392578125,-0.70654296875,-45.1875,-8.375,14.1875,9.8,0.35,0.03,stop,1
7.75,607615.271895233,22,0,0,0,0,9.8,0.47,0.17,0.0,0.11,0.13,-0.8125,0.8125,-0.5,0.048828125,-0.70196533203125,-0.07452392578125,-0.70660400390625,-45.1875,-8.375,14.1875,9.79,0.35,0.03,stop,1
7.76,607615.302396128,22,0,0,0,0,9.76,0.43,0.13,-0.03,0.07,0.09,-1.5,1.0,-0.3125,0.04876708984375,-0.701904296875,-0.07440185546875,-0.70672607421875,-45.1875,-8.375,14.1875,9.79,0.36,0.03,stop,1
7.77,607615.302396128,22,0,0,0,0,9.62,0.46,0.0,-0.17,0.1,-0.03,0.1875,1.4375,-1.125,0.04864501953125,-0.7017822265625,-0.074462890625,-0.706787109375,-45.5,-9.5,14.1875,9.79,0.36,0.03,stop,1
7.78,607615.316028737,22,0,0,0,0,9.5,0.45,-0.11,-0.28,0.08,-0.15,3.5,3.125,-2.125,0.04876708984375,-0.70159912109375,-0.0748291015625,-0.70697021484375,-45.5,-9.5,14.1875,9.79,0.36,0.04,stop,1
7.79,607615.316028737,22,0,0,0,0,9.54,0.46,-0.07,-0.25,0.09,-0.12,3.125,2.625,-2.1875,0.048828125,-0.701416015625,-0.0751953125,-0.70709228515625,-45.5,-9.5,14.1875,9.79,0.37,0.04,stop,1
7.8,607615.33102243,22,0,0,0,0,9.63,0.54,0.22,-0.16,0.17,0.17,1.0625,2.25,-1.5625,0.04876708984375,-0.70123291015625,-0.07537841796875,-0.707275390625,-45.5,-9.5,14.1875,9.79,0.37,0.05,stop,1
7.81,607615.33102243,22,0,0,0,0,9.73,0.43,0.12,-0.05,0.05,0.07,-4.4375,0.625,0.25,0.0484619140625,-0.70123291015625,-0.0750732421875,-0.70733642578125,-45.5,-9.5,14.1875,9.79,0.37,0.05,stop,1
7.82,607615.361875498,22,0,0,0,0,9.75,0.41,-0.04,-0.04,0.04,-0.1,-5.3125,0.0,0.625,0.04815673828125,-0.70123291015625,-0.07476806640625,-0.70733642578125,-44.75,-8.6875,14.5625,9.79,0.37,0.05,stop,1
7.83,607615.361875498,22,0,0,0,0,9.76,0.52,-0.03,-0.03,0.15,-0.09,0.5,2.875,-1.0,0.048095703125,-0.7010498046875,-0.0748291015625,-0.70751953125,-44.75,-8.6875,14.5625,9.79,0.37,0.05,stop,1
7.84,607615.377331797,22,0,0,0,0,9.74,0.65,0.08,-0.04,0.27,0.02,3.3125,2.8125,-1.9375,0.04815673828125,-0.70086669921875,-0.07513427734375,-0.70770263671875,-44.75,-8.6875,14.5625,9.79,0.38,0.06,stop,1
7.85,607615.377331797,22,0,0,0,0,9.82,0.61,0.12,0.02,0.23,0.07,1.0625,-1.5625,-1.4375,0.048095703125,-0.700927734375,-0.07537841796875,-0.70758056640625,-44.75,-8.6875,14.5625,9.79,0.38,0.05,stop,1
7.86,607615.391788544,22,0,0,0,0,9.79,0.57,0.17,0.0,0.18,0.12,-1.1875,-3.625,-1.1875,0.0478515625,-0.70111083984375,-0.075439453125,-0.7073974609375,-44.75,-8.6875,14.5625,9.79,0.38,0.05,stop,1
7.87,607615.391788544,22,0,0,0,0,9.69,0.52,0.13,-0.1,0.13,0.08,-1.75,-1.3125,-1.375,0.047607421875,-0.701171875,-0.075439453125,-0.7073974609375,-44.6875,-8.6875,14.5625,9.79,0.39,0.05,stop,1
7.88,607615.42357309,22,0,0,0,0,9.68,0.48,0.1,-0.11,0.09,0.05,-1.0625,1.1875,-2.0625,0.04742431640625,-0.70111083984375,-0.0755615234375,-0.70745849609375,-44.6875,-8.6875,14.5625,9.79,0.39,0.05,stop,1
7.89,607615.42357309,22,0,0,0,0,9.64,0.49,0.07,-0.15,0.09,0.01,-0.375,2.625,-2.625,0.0472412109375,-0.70086669921875,-0.07568359375,-0.7076416015625,-44.6875,-8.6875,14.5625,9.79,0.4,0.05,stop,1
7.9,607615.437783661,22,0,0,0,0,9.6,0.5,0.11,-0.19,0.09,0.05,-0.9375,2.75,-2.5,0.04705810546875,-0.70068359375,-0.0758056640625,-0.70782470703125,-44.6875,-8.6875,14.5625,9.79,0.4,0.06,stop,1
7.91,607615.437783661,22,0,0,0,0,9.57,0.45,0.15,-0.22,0.04,0.09,-2.3125,1.75,-2.0625,0.0467529296875,-0.7005615234375,-0.0758056640625,-0.7080078125,-44.6875,-8.6875,14.5625,9.79,0.41,0.06,stop,1
7.92,607615.451719981,22,0,0,0,0,9.59,0.41,0.12,-0.2,0.0,0.05,-2.8125,0.625,-1.625,0.0465087890625,-0.70050048828125,-0.07574462890625,-0.70806884765625,-45.0625,-8.0,13.75,9.79,0.41,0.06,stop,1
7.93,607615.451719981,22,0,0,0,0,9.6,0.4,0.1,-0.19,0.0,0.03,-2.0625,0.3125,-1.6875,0.0462646484375,-0.70050048828125,-0.07568359375,-0.70806884765625,-45.0625,-8.0,13.75,9.79,0.41,0.06,stop,1
7.94,607615.483142914,22,0,0,0,0,9.57,0.42,0.07,-0.22,0.0,0.0,-0.625,0.625,-1.75,0.04608154296875,-0.70050048828125,-0.0758056640625,-0.7081298828125,-45.0625,-8.0,13.75,9.79,0.41,0.07,stop,1
7.95,607615.483142914,22,0,0,0,0,9.71,0.48,0.01,-0.08,0.06,-0.05,-0.1875,0.1875,-1.4375,0.0460205078125,-0.700439453125,-0.07586669921875,-0.7081298828125,-45.0625,-8.0,13.75,9.79,0.42,0.07,stop,1
7.96,607615.496760996,22,0,0,0,0,9.81,0.49,0.04,0.01,0.07,-0.02,-0.8125,-0.6875,-1.0,0.0458984375,-0.70050048828125,-0.07586669921875,-0.7081298828125,-45.0625,-8.0,13.75,9.79,0.42,0.06,stop,1
7.97,607615.496760996,22,0,0,0,0,9.87,0.47,0.09,0.07,0.04,0.02,-2.0,-0.5625,-0.5625,0.04571533203125,-0.7005615234375,-0.0758056640625,-0.70806884765625,-45.75,-9.0625,14.1875,9.79,0.42,0.06,stop,1
7.98,607615.512315399,22,0,0,0,0,9.79,0.5,0.27,0.0,0.08,0.21,-2.1875,-0.875,-0.5625,0.0455322265625,-0.7005615234375,-0.07574462890625,-0.70806884765625,-45.75,-9.0625,14.1875,9.79,0.42,0.06,stop,1
7.99,607615.512315399,22,0,0,0,0,9.75,0.44,0.23,-0.04,0.01,0.16,-2.25,0.0625,-0.625,0.04534912109375,-0.7005615234375,-0.07562255859375,-0.7081298828125,-45.75,-9.0625,14.1875,9.79,0.42,0.06,stop,1
8.0,607615.542482554,22,0,0,0,0,9.75,0.35,0.15,-0.04,-0.07,0.08,-3.6875,-0.1875,-0.0625,0.04510498046875,-0.7005615234375,-0.075439453125,-0.7081298828125,-45.75,-9.0625,14.1875,9.79,0.42,0.06,stop,1
8.01,607615.542482554,22,0,0,0,0,9.71,0.35,0.15,-0.08,-0.06,0.08,-3.0,0.0,-0.0625,0.044921875,-0.7005615234375,-0.0751953125,-0.70819091796875,-45.75,-9.0625,14.1875,9.79,0.42,0.06,stop,1
8.02,607615.5567848,22,0,0,0,0,9.66,0.41,0.15,-0.12,-0.01,0.07,-1.6875,2.25,-0.5625,0.0447998046875,-0.700439453125,-0.07513427734375,-0.7083740234375,-44.6875,-8.6875,13.75,9.79,0.42,0.07,stop,1
8.03,607615.5567848,22,0,0,0,0,9.71,0.34,0.11,-0.08,-0.08,0.03,-2.6875,1.4375,-0.3125,0.04461669921875,-0.7003173828125,-0.074951171875,-0.70843505859375,-44.6875,-8.6875,13.75,9.79,0.42,0.07,stop,1
8.04,607615.57170163,22,0,0,0,0,9.75,0.32,0.06,-0.04,-0.1,0.0,-4.0,0.0625,-0.4375,0.04437255859375,-0.70037841796875,-0.07470703125,-0.70849609375,-44.6875,-8.6875,13.75,9.79,0.42,0.07,stop,1
8.05,607615.57170163,22,0,0,0,0,9.7,0.27,0.1,-0.09,-0.15,0.02,-4.5,0.875,-1.0,0.0440673828125,-0.7003173828125,-0.074462890625,-0.70855712890625,-44.6875,-8.6875,13.75,9.79,0.42,0.07,stop,1
8.06,607615.603421031,22,0,0,0,0,9.7,0.28,0.11,-0.09,-0.15,0.03,-4.6875,0.9375,-1.75,0.043701171875,-0.70025634765625,-0.07427978515625,-0.70867919921875,-44.6875,-8.6875,13.75,9.79,0.43,0.08,stop,1
8.07,607615.603421031,22,0,0,0,0,9.7,0.26,0.14,-0.09,-0.16,0.06,-5.3125,-0.0625,-2.125,0.04327392578125,-0.70025634765625,-0.07403564453125,-0.708740234375,-45.0625,-9.5,13.75,9.79,0.43,0.08,stop,1
8.08,607615.617095022,22,0,0,0,0,9.69,0.22,0.17,-0.1,-0.2,0.09,-5.8125,-0.75,-2.5,0.04278564453125,-0.7003173828125,-0.07379150390625,-0.708740234375,-45.0625,-9.5,13.75,9.79,0.43,0.08,stop,1
8.09,607615.617095022,22,0,0,0,0,9.65,0.21,0.25,-0.14,-0.22,0.17,-6.125,-0.125,-2.875,0.042236328125,-0.70025634765625,-0.07354736328125,-0.70880126953125,-45.0625,-9.5,13.75,9.79,0.44,0.08,stop,1
8.1,607615.630721324,22,0,0,0,0,9.69,0.18,0.24,-0.09,-0.26,0.16,-6.0625,0.25,-3.4375,0.041748046875,-0.70025634765625,-0.07330322265625,-0.70892333984375,-45.0625,-9.5,13.75,9.79,0.44,0.08,stop,1
8.11,607615.630721324,22,0,0,0,0,9.79,0.08,0.2,0.0,-0.36,0.11,-6.875,0.0,-3.6875,0.04119873046875,-0.7001953125,-0.072998046875,-0.708984375,-45.0625,-9.5,13.75,9.79,0.44,0.08,stop,1
8.12,607615.66116981,22,0,0,0,0,9.93,0.03,0.11,0.13,-0.41,0.02,-7.125,-0.8125,-4.4375,0.04058837890625,-0.70025634765625,-0.07269287109375,-0.70904541015625,-44.0,-9.0625,14.1875,9.79,0.45,0.08,stop,1
8.13,607615.66116981,22,0,0,0,0,9.86,0.06,0.13,0.06,-0.39,0.05,-6.4375,-1.75,-5.6875,0.03997802734375,-0.7003173828125,-0.072509765625,-0.70904541015625,-44.0,-9.0625,14.1875,9.79,0.45,0.08,moving,1
8.14,607615.676145884,22,0,0,0,0,9.63,0.03,0.1,-0.15,-0.43,0.02,-4.125,-2.875,-7.5,0.0394287109375,-0.700439453125,-0.07257080078125,-0.70892333984375,-44.0,-9.0625,14.1875,9.79,0.46,0.08,moving,1
8.15,607615.676145884,22,0,0,0,0,9.47,0.13,0.04,-0.31,-0.34,-0.02,-0.4375,-1.875,-9.5625,0.0389404296875,-0.70050048828125,-0.072998046875,-0.70880126953125,-44.0,-9.0625,14.1875,9.79,0.48,0.07,moving,1
8.16,607615.691800873,22,0,0,0,0,9.28,0.56,-0.06,-0.5,0.06,-0.13,4.25,-0.625,-10.875,0.03851318359375,-0.70050048828125,-0.073974609375,-0.70880126953125,-44.0,-9.0625,14.1875,9.79,0.49,0.07,moving,1
8.17,607615.691800873,22,0,0,0,0,9.28,0.56,-0.06,-0.5,0.06,-0.13,4.25,-0.625,-10.875,0.03851318359375,-0.70050048828125,-0.073974609375,-0.70880126953125,-44.0,-9.0625,14.1875,9.79,0.49,0.07,moving,1
8.17,607615.705800425,22,0,0,0,0,9.3,0.71,-0.03,-0.48,0.2,-0.1,7.9375,-2.0625,-10.75,0.038330078125,-0.70050048828125,-0.07513427734375,-0.7086181640625,-45.0625,-8.0,14.1875,9.79,0.51,0.07,moving,1
8.18,607615.705800425,22,0,0,0,0,9.4,0.9,0.0,-0.38,0.37,-0.06,10.375,-4.75,-9.125,0.03839111328125,-0.70068359375,-0.07635498046875,-0.70831298828125,-45.0625,-8.0,14.1875,9.79,0.53,0.06,moving,1
8.19,607615.722319672,22,0,0,0,0,9.45,0.95,0.01,-0.33,0.4,-0.02,11.9375,-10.6875,-6.0,0.03863525390625,-0.7012939453125,-0.07745361328125,-0.70758056640625,-45.0625,-8.0,14.1875,9.79,0.54,0.04,moving,1
8.2,607615.722319672,22,0,0,0,0,9.39,1.07,-0.01,-0.39,0.52,-0.03,13.625,-15.1875,-3.0625,0.0391845703125,-0.7021484375,-0.07855224609375,-0.70660400390625,-45.0625,-8.0,14.1875,9.79,0.54,0.01,moving,1
8.21,607615.752753957,22,0,0,0,0,9.22,1.15,-0.03,-0.56,0.6,-0.01,16.3125,-16.3125,-0.3125,0.04010009765625,-0.703125,-0.07965087890625,-0.70550537109375,-45.0625,-8.0,14.1875,9.79,0.54,-0.01,moving,1
8.22,607615.752753957,22,0,0,0,0,9.01,1.23,-0.01,-0.77,0.68,0.02,18.875,-15.125,2.75,0.04132080078125,-0.7039794921875,-0.0806884765625,-0.70440673828125,-45.375,-10.5,14.1875,9.79,0.54,-0.04,moving,1
8.23,607615.766712291,22,0,0,0,0,8.43,1.29,-0.1,-1.35,0.76,-0.03,21.375,-13.375,7.25,0.04296875,-0.70477294921875,-0.08160400390625,-0.70343017578125,-45.375,-10.5,14.1875,9.79,0.53,-0.06,moving,1
8.24,607615.766712291,22,0,0,0,0,8.16,1.32,-0.28,-1.62,0.81,-0.19,23.3125,-11.375,12.25,0.04510498046875,-0.70550537109375,-0.08233642578125,-0.7025146484375,-45.375,-10.5,14.1875,9.79,0.51,-0.08,moving,1
8.25,607615.781180227,22,0,0,0,0,7.89,1.29,-0.33,-1.9,0.81,-0.23,24.1875,-8.0625,17.5625,0.047607421875,-0.70599365234375,-0.082763671875,-0.70172119140625,-45.375,-10.5,14.1875,9.79,0.48,-0.1,moving,1
8.26,607615.781180227,22,0,0,0,0,7.62,1.33,-0.19,-2.17,0.89,-0.07,25.125,-7.4375,23.0625,0.05047607421875,-0.70654296875,-0.0828857421875,-0.70098876953125,-45.375,-10.5,14.1875,9.79,0.44,-0.11,moving,1
8.27,607615.811904104,22,0,0,0,0,7.11,1.58,0.07,-2.68,1.19,0.2,23.0,-7.0625,29.1875,0.05364990234375,-0.70703125,-0.08258056640625,-0.70025634765625,-44.75,-9.5,14.1875,9.79,0.39,-0.13,moving,1
8.28,607615.811904104,22,0,0,0,0,6.86,1.54,0.0,-2.93,1.21,0.14,17.375,-7.25,36.6875,0.056884765625,-0.70770263671875,-0.0814208984375,-0.69952392578125,-44.75,-9.5,14.1875,9.8,0.32,-0.14,moving,1
8.29,607615.826446462,22,0,0,0,0,6.71,1.52,-0.1,-3.08,1.27,0.06,16.1875,-8.125,43.0,0.06048583984375,-0.7083740234375,-0.07977294921875,-0.69866943359375,-44.75,-9.5,14.1875,9.8,0.25,-0.16,moving,1
8.3,607615.826446462,22,0,0,0,0,6.96,1.36,-0.47,-2.83,1.19,-0.29,18.625,-9.1875,47.5625,0.064453125,-0.70916748046875,-0.0780029296875,-0.69775390625,-44.75,-9.5,14.1875,9.8,0.17,-0.17,moving,1
8.31,607615.842199188,22,0,0,0,0,7.42,1.19,-0.65,-2.38,1.11,-0.46,19.1875,-6.75,50.625,0.06866455078125,-0.7098388671875,-0.07611083984375,-0.6968994140625,-44.75,-9.5,14.1875,9.8,0.08,-0.18,moving,1
8.32,607615.842199188,22,0,0,0,0,8.03,0.96,-0.8,-1.77,0.97,-0.61,14.125,-5.75,54.4375,0.07281494140625,-0.71044921875,-0.07366943359375,-0.69610595703125,-44.75,-8.0,15.75,9.8,0.0,-0.19,moving,1
8.33,607615.870704641,22,0,0,0,0,8.7,0.77,-0.82,-1.09,0.88,-0.6,3.0625,-8.4375,59.8125,0.0765380859375,-0.7113037109375,-0.0701904296875,-0.6951904296875,-44.75,-8.0,15.75,9.8,-0.11,-0.21,moving,1
8.34,607615.870704641,22,0,0,0,0,9.81,0.11,-0.66,0.01,0.34,-0.42,-9.1875,-14.375,65.4375,0.079833984375,-0.712646484375,-0.065673828125,-0.69384765625,-44.75,-8.0,15.75,9.8,-0.22,-0.23,moving,1
8.35,607615.886655446,22,0,0,0,0,10.11,0.01,-0.72,0.31,0.35,-0.44,-17.875,-20.3125,67.375,0.08270263671875,-0.71435546875,-0.060546875,-0.69219970703125,-44.75,-8.0,15.75,9.79,-0.33,-0.27,moving,1
8.36,607615.886655446,22,0,0,0,0,10.23,0.14,-0.69,0.44,0.58,-0.37,-19.25,-22.75,63.1875,0.085205078125,-0.7161865234375,-0.05560302734375,-0.6904296875,-44.75,-8.0,15.75,9.79,-0.44,-0.31,moving,1
8.37,607615.904017141,22,0,0,0,0,10.2,0.45,-0.53,0.42,0.98,-0.18,-13.0,-21.0625,53.8125,0.08746337890625,-0.71783447265625,-0.0516357421875,-0.68878173828125,-44.75,-7.0,15.75,9.78,-0.53,-0.35,moving,1
8.38,607615.904017141,22,0,0,0,0,10.46,0.05,-0.66,0.68,0.66,-0.28,-5.9375,-18.125,43.8125,0.08966064453125,-0.71917724609375,-0.04864501953125,-0.68731689453125,-44.75,-7.0,15.75,9.78,-0.6,-0.38,moving,1
8.39,607615.932115245,22,0,0,0,0,10.52,-0.63,-0.75,0.75,0.02,-0.33,-5.3125,-19.125,34.0625,0.09124755859375,-0.720458984375,-0.04638671875,-0.68585205078125,-44.75,-7.0,15.75,9.77,-0.66,-0.41,moving,1
8.4,607615.932115245,22,0,0,0,0,10.8,-0.99,-0.79,1.03,-0.28,-0.34,-9.25,-22.9375,24.75,0.092041015625,-0.7220458984375,-0.04443359375,-0.68426513671875,-44.75,-7.0,15.75,9.77,-0.7,-0.45,moving,1
8.41,607615.94618865,22,0,0,0,0,10.77,-1.84,-0.66,1.01,-1.11,-0.16,-12.8125,-20.3125,14.3125,0.092041015625,-0.723388671875,-0.04296875,-0.68292236328125,-44.75,-7.0,15.75,9.76,-0.73,-0.49,moving,1
8.42,607615.94618865,22,0,0,0,0,10.74,-2.26,-0.9,0.97,-1.53,-0.39,-11.5625,-11.25,3.25,0.0914306640625,-0.72418212890625,-0.04217529296875,-0.6822509765625,-44.5,-6.1875,15.75,9.76,-0.73,-0.51,moving,1
8.43,607615.961517182,22,0,0,0,0,10.76,-2.35,-1.05,1.0,-1.63,-0.52,-12.5625,-6.375,-6.25,0.0902099609375,-0.724609375,-0.0418701171875,-0.681884765625,-44.5,-6.1875,15.75,9.76,-0.72,-0.52,moving,1
8.44,607615.961517182,22,0,0,0,0,10.88,-2.52,-1.12,1.11,-1.82,-0.57,-19.4375,-9.5625,-12.75,0.08819580078125,-0.725341796875,-0.04156494140625,-0.68145751953125,-44.5,-6.1875,15.75,9.76,-0.69,-0.54,moving,1
8.44,607615.977970917,22,0,0,0,0,10.88,-2.52,-1.12,1.11,-1.82,-0.57,-19.4375,-9.5625,-12.75,0.08819580078125,-0.725341796875,-0.04156494140625,-0.68145751953125,-44.5,-6.1875,15.75,9.76,-0.69,-0.54,moving,1
8.45,607615.977970917,22,0,0,0,0,11.81,-2.88,-1.53,2.05,-2.21,-0.95,-30.875,-16.1875,-16.75,0.085205078125,-0.7264404296875,-0.04095458984375,-0.6806640625,-44.5,-6.1875,15.75,9.76,-0.66,-0.57,moving,1
8.46,607615.990742116,22,0,0,0,0,12.15,-3.13,-1.54,2.39,-2.5,-0.91,-42.625,-26.75,-20.0625,0.0811767578125,-0.728271484375,-0.0399169921875,-0.67926025390625,-44.5,-6.1875,15.75,9.76,-0.62,-0.62,moving,1
8.47,607615.990742116,22,0,0,0,0,12.25,-3.16,-1.44,2.48,-2.59,-0.75,-48.6875,-32.875,-26.4375,0.076416015625,-0.73046875,-0.0389404296875,-0.67755126953125,-43.875,-6.0625,16.5,9.76,-0.57,-0.68,moving,1
8.48,607616.023689626,22,0,0,0,0,11.32,-2.77,-0.31,1.56,-2.26,0.42,-53.1875,-29.8125,-33.875,0.0709228515625,-0.73248291015625,-0.03814697265625,-0.676025390625,-43.875,-6.0625,16.5,9.76,-0.51,-0.74,moving,1
8.49,607616.023689626,22,0,0,0,0,10.72,-2.3,-0.03,0.95,-1.87,0.74,-57.5625,-19.5,-41.75,0.064697265625,-0.73382568359375,-0.03753662109375,-0.6751708984375,-43.875,-6.0625,16.5,9.76,-0.43,-0.78,moving,1
8.5,607616.03599765,22,0,0,0,0,10.49,-1.82,0.53,0.72,-1.48,1.34,-54.25,-10.875,-50.0625,0.0582275390625,-0.734619140625,-0.03759765625,-0.6749267578125,-43.875,-6.0625,16.5,9.76,-0.34,-0.8,moving,1
8.51,607616.03599765,22,0,0,0,0,10.24,-1.29,0.66,0.47,-1.06,1.48,-38.8125,-11.125,-60.25,0.05218505859375,-0.7352294921875,-0.03924560546875,-0.67462158203125,-43.875,-6.0625,16.5,9.76,-0.23,-0.82,moving,1
8.52,607616.052688975,22,0,0,0,0,9.48,-0.98,0.51,-0.29,-0.87,1.32,-13.8125,5.6875,-72.8125,0.0469970703125,-0.7347412109375,-0.04302978515625,-0.67535400390625,-43.5,-6.875,16.5,9.77,-0.1,-0.81,moving,1
8.53,607616.052688975,22,0,0,0,0,9.45,-0.78,0.16,-0.31,-0.8,0.95,10.9375,16.1875,-80.8125,0.04302978515625,-0.7333984375,-0.048828125,-0.67669677734375,-43.5,-6.875,16.5,9.77,0.02,-0.78,moving,1
8.54,607616.081943085,22,0,0,0,0,8.88,-1.17,-0.36,-0.89,-1.33,0.4,20.0,12.1875,-79.625,0.0396728515625,-0.73223876953125,-0.0550537109375,-0.67767333984375,-43.5,-6.875,16.5,9.77,0.16,-0.76,moving,1
8.55,607616.081943085,22,0,0,0,0,9.15,-1.26,-0.88,-0.61,-1.55,-0.11,25.5625,1.25,-72.6875,0.0369873046875,-0.731689453125,-0.0611572265625,-0.6778564453125,-43.5,-6.875,16.5,9.77,0.28,-0.76,moving,1
8.56,607616.095516693,22,0,0,0,0,9.44,-0.55,-0.8,-0.32,-0.93,-0.02,36.0625,-4.0625,-61.25,0.03570556640625,-0.73150634765625,-0.0672607421875,-0.6776123046875,-43.5,-6.875,16.5,9.76,0.38,-0.77,moving,1
8.57,607616.095516693,22,0,0,0,0,9.8,0.45,-0.83,0.03,0.0,-0.04,47.3125,-7.5625,-46.875,0.035888671875,-0.73150634765625,-0.07305908203125,-0.67694091796875,-43.75,-9.0,16.5,9.76,0.45,-0.79,moving,1
8.58,607616.111170421,22,0,0,0,0,10.22,1.65,-0.92,0.46,1.15,-0.11,63.5625,-6.125,-32.8125,0.0379638671875,-0.7314453125,-0.07891845703125,-0.67626953125,-43.75,-9.0,16.5,9.76,0.5,-0.8,moving,1
8.59,607616.111170421,22,0,0,0,0,10.7,3.78,-1.93,0.94,3.26,-1.11,81.6875,0.8125,-19.4375,0.04205322265625,-0.73095703125,-0.0849609375,-0.67578125,-43.75,-9.0,16.5,9.75,0.52,-0.81,moving,1
8.6,607616.141685069,22,0,0,0,0,11.07,4.51,-2.73,1.31,3.98,-1.93,95.875,9.6875,-7.625,0.04779052734375,-0.72998046875,-0.091064453125,-0.67572021484375,-43.75,-9.0,16.5,9.75,0.52,-0.8,moving,1
8.61,607616.141685069,22,0,0,0,0,11.42,5.12,-2.98,1.66,4.62,-2.19,110.25,18.375,0.9375,0.05499267578125,-0.7283935546875,-0.097412109375,-0.67596435546875,-43.75,-9.0,16.5,9.76,0.5,-0.78,moving,1
8.62,607616.156302012,22,0,0,0,0,11.55,5.4,-3.13,1.79,4.92,-2.39,118.1875,34.125,7.8125,0.063232421875,-0.725830078125,-0.10369873046875,-0.67706298828125,-42.6875,-9.375,17.0,9.76,0.47,-0.73,moving,1
8.63,607616.156302012,22,0,0,0,0,12.08,5.49,-1.44,2.31,5.05,-0.78,111.625,54.3125,13.75,0.0716552734375,-0.72210693359375,-0.109130859375,-0.67938232421875,-42.6875,-9.375,17.0,9.77,0.43,-0.65,moving,1
8.64,607616.1709664,22,0,0,0,0,11.72,4.77,-0.4,1.94,4.37,0.14,84.6875,65.6875,19.75,0.0787353515625,-0.71783447265625,-0.11248779296875,-0.68255615234375,-42.6875,-9.375,17.0,9.78,0.39,-0.54,moving,1
8.65,607616.1709664,22,0,0,0,0,11.04,3.47,-0.17,1.25,3.12,0.27,48.6875,58.75,22.0625,0.08367919921875,-0.7142333984375,-0.11358642578125,-0.685546875,-42.6875,-9.375,17.0,9.78,0.35,-0.45,moving,1
8.66,607616.20169337,22,0,0,0,0,8.51,2.37,-0.7,-1.27,2.05,-0.32,23.5,45.8125,22.5,0.0869140625,-0.71148681640625,-0.11328125,-0.68798828125,-42.6875,-9.375,17.0,9.79,0.31,-0.37,moving,1
8.67,607616.20169337,22,0,0,0,0,7.47,1.43,-1.44,-2.31,1.17,-1.16,-18.125,53.9375,32.0625,0.0882568359375,-0.708740234375,-0.10980224609375,-0.6912841796875,-42.875,-8.5625,17.25,9.79,0.26,-0.28,moving,1
8.68,607616.215714854,22,0,0,0,0,6.2,-0.05,-1.71,-3.6,-0.26,-1.52,-18.125,53.9375,32.0625,0.08953857421875,-0.70587158203125,-0.1063232421875,-0.69451904296875,-42.875,-8.5625,17.25,9.8,0.2,-0.18,moving,1
8.69,607616.215714854,22,0,0,0,0,6.54,0.11,-1.4,-3.25,-0.02,-1.27,-38.5,33.6875,41.25,0.0899658203125,-0.70452880859375,-0.1011962890625,-0.6966552734375,-42.875,-8.5625,17.25,9.8,0.13,-0.12,moving,1
8.7,607616.230727916,22,0,0,0,0,7.27,0.43,-0.37,-2.52,0.37,-0.29,-48.0625,23.875,45.3125,0.0899658203125,-0.703857421875,-0.0953369140625,-0.6981201171875,-42.875,-8.5625,17.25,9.8,0.06,-0.08,moving,1
8.71,607616.230727916,22,0,0,0,0,7.75,0.76,-0.28,-2.05,0.76,-0.21,-48.3125,13.5,37.1875,0.08935546875,-0.7037353515625,-0.09002685546875,-0.6990966796875,-42.875,-8.5625,17.25,9.8,0.0,-0.06,moving,1
8.72,607616.246307384,22,0,0,0,0,9.37,0.49,0.12,-0.42,0.57,0.24,-68.6875,-29.375,44.25,0.08758544921875,-0.70635986328125,-0.08331298828125,-0.69744873046875,-43.5625,-7.875,15.75,9.8,-0.07,-0.11,moving,1
8.73,607616.246307384,22,0,0,0,0,9.37,0.49,0.12,-0.42,0.57,0.24,-68.6875,-29.375,44.25,0.08758544921875,-0.70635986328125,-0.08331298828125,-0.69744873046875,-43.5625,-7.875,15.75,9.8,-0.07,-0.11,moving,1
8.73,607616.260819224,22,0,0,0,0,10.4,-2.55,-1.05,0.59,-2.4,-0.88,-94.9375,-28.0625,46.3125,0.0843505859375,-0.7091064453125,-0.074951171875,-0.69598388671875,-43.5625,-7.875,15.75,9.8,-0.15,-0.16,moving,1
8.74,607616.260819224,22,0,0,0,0,11.07,-3.05,-0.94,1.26,-2.82,-0.74,-110.3125,-14.3125,49.4375,0.0804443359375,-0.7110595703125,-0.0653076171875,-0.6954345703125,-43.5625,-7.875,15.75,9.8,-0.23,-0.19,moving,1
8.75,607616.291317637,22,0,0,0,0,11.73,-4.18,1.03,1.93,-3.89,1.29,-102.4375,-34.125,38.0,0.076171875,-0.71405029296875,-0.05694580078125,-0.693603515625,-43.5625,-7.875,15.75,9.79,-0.29,-0.25,moving,1
8.76,607616.291317637,22,0,0,0,0,11.79,-4.6,1.45,2.0,-4.26,1.81,-122.8125,-58.9375,31.9375,0.07012939453125,-0.71856689453125,-0.04791259765625,-0.69024658203125,-43.5625,-7.875,15.75,9.79,-0.33,-0.36,moving,1
8.77,607616.306590872,22,0,0,0,0,11.64,-4.57,1.2,1.85,-4.2,1.68,-139.4375,-62.875,24.125,0.06256103515625,-0.7232666015625,-0.03839111328125,-0.68670654296875,-45.0625,-7.875,15.0,9.78,-0.37,-0.48,moving,1
8.78,607616.306590872,22,0,0,0,0,10.7,-5.71,0.56,0.91,-5.34,1.1,-130.375,-30.6875,8.125,0.05474853515625,-0.72576904296875,-0.0302734375,-0.68511962890625,-45.0625,-7.875,15.0,9.78,-0.37,-0.54,moving,1
8.79,607616.323000417,22,0,0,0,0,10.9,-5.07,2.37,1.11,-4.72,2.9,-95.1875,5.8125,-5.125,0.04840087890625,-0.725830078125,-0.02484130859375,-0.68572998046875,-45.0625,-7.875,15.0,9.78,-0.35,-0.53,moving,1
8.8,607616.323000417,22,0,0,0,0,10.29,-2.92,1.7,0.49,-2.61,2.17,-50.9375,40.0625,-28.0,0.0435791015625,-0.72357177734375,-0.0234375,-0.6884765625,-45.0625,-7.875,15.0,9.79,-0.3,-0.47,moving,1
8.81,607616.352652354,22,0,0,0,0,10.23,-2.21,1.18,0.43,-2.0,1.61,-10.4375,29.75,-51.1875,0.0399169921875,-0.72174072265625,-0.02587890625,-0.6905517578125,-45.0625,-7.875,15.0,9.79,-0.21,-0.42,moving,1
8.82,607616.352652354,22,0,0,0,0,9.82,-1.11,0.13,0.02,-1.01,0.52,17.5,18.1875,-66.0625,0.037109375,-0.72039794921875,-0.03106689453125,-0.69189453125,-44.0,-7.1875,16.1875,9.79,-0.1,-0.39,moving,1
8.83,607616.366172048,22,0,0,0,0,9.33,-0.71,-0.23,-0.46,-0.74,0.13,38.6875,12.8125,-78.1875,0.03485107421875,-0.71923828125,-0.03826904296875,-0.69281005859375,-44.0,-7.1875,16.1875,9.79,0.02,-0.36,moving,1
8.84,607616.366172048,22,0,0,0,0,8.19,-0.62,-1.21,-1.6,-0.79,-0.87,51.125,20.25,-84.25,0.03302001953125,-0.71759033203125,-0.04656982421875,-0.69415283203125,-44.0,-7.1875,16.1875,9.79,0.16,-0.33,moving,1
8.85,607616.386120128,22,0,0,0,0,7.35,-0.65,-1.16,-2.44,-0.98,-0.86,61.1875,22.375,-93.3125,0.03131103515625,-0.71563720703125,-0.0560302734375,-0.695556640625,-44.0,-7.1875,16.1875,9.79,0.32,-0.29,moving,1
8.86,607616.386120128,22,0,0,0,0,6.56,-0.39,-0.66,-3.23,-0.87,-0.38,64.125,14.25,-92.0625,0.02978515625,-0.714111328125,-0.06561279296875,-0.69635009765625,-44.0,-7.1875,16.1875,9.79,0.47,-0.27,moving,1
8.87,607616.411841563,22,0,0,0,0,6.63,0.06,-0.69,-3.14,-0.54,-0.38,53.125,-12.6875,-79.75,0.0281982421875,-0.7142333984375,-0.0738525390625,-0.6954345703125,-43.875,-7.1875,14.5625,9.78,0.61,-0.3,moving,1
8.88,607616.411841563,22,0,0,0,0,8.26,0.92,-1.19,-1.5,0.2,-0.79,42.25,-50.8125,-65.0625,0.02655029296875,-0.716796875,-0.08056640625,-0.692138671875,-43.875,-7.1875,14.5625,9.77,0.71,-0.39,moving,1
8.89,607616.425981415,22,0,0,0,0,9.73,1.47,-1.19,-0.03,0.67,-0.66,34.5,-71.125,-47.625,0.025390625,-0.72064208984375,-0.08575439453125,-0.6875,-43.875,-7.1875,14.5625,9.76,0.79,-0.52,moving,1
8.9,607616.425981415,22,0,0,0,0,10.89,2.5,-0.96,1.14,1.65,-0.31,32.0625,-68.625,-32.0,0.02496337890625,-0.72442626953125,-0.08984375,-0.68304443359375,-43.875,-7.1875,14.5625,9.74,0.84,-0.64,moving,1
8.91,607616.447799286,22,0,0,0,0,12.22,3.69,-0.14,2.48,2.8,0.58,44.9375,-51.125,-24.1875,0.02593994140625,-0.7271728515625,-0.09417724609375,-0.67950439453125,-43.875,-7.1875,14.5625,9.73,0.88,-0.73,moving,1
8.92,607616.447799286,22,0,0,0,0,11.96,4.14,-0.13,2.23,3.23,0.63,58.8125,-10.625,-22.25,0.0283203125,-0.72747802734375,-0.09906005859375,-0.6783447265625,-43.875,-10.375,15.75,9.73,0.91,-0.76,moving,1
8.93,607616.472702525,22,0,0,0,0,11.08,4.9,-1.66,1.35,3.96,-0.92,76.4375,25.0,-21.1875,0.0321044921875,-0.7255859375,-0.1048583984375,-0.6793212890625,-43.875,-10.375,15.75,9.73,0.94,-0.73,moving,1
8.94,607616.472702525,22,0,0,0,0,10.81,4.23,-1.6,1.08,3.27,-0.91,84.0625,32.5,-17.75,0.03668212890625,-0.7232666015625,-0.11090087890625,-0.6806640625,-43.875,-10.375,15.75,9.73,0.96,-0.69,moving,1
8.95,607616.48708017,22,0,0,0,0,9.83,2.81,-2.0,0.09,1.85,-1.36,66.6875,39.75,-4.125,0.041015625,-0.72064208984375,-0.114990234375,-0.6824951171875,-43.875,-10.375,15.75,9.73,0.95,-0.63,moving,1
8.96,607616.48708017,22,0,0,0,0,9.58,2.57,-1.94,-0.16,1.64,-1.37,40.8125,38.875,14.625,0.04486083984375,-0.71826171875,-0.1163330078125,-0.68450927734375,-43.875,-10.375,15.75,9.74,0.93,-0.57,moving,1
8.97,607616.50621811,22,0,0,0,0,9.34,2.13,-1.02,-0.4,1.26,-0.48,20.1875,21.5,32.8125,0.04827880859375,-0.71722412109375,-0.11541748046875,-0.68548583984375,-42.6875,-10.75,16.5,9.75,0.87,-0.54,moving,1
8.98,607616.50621811,22,0,0,0,0,9.69,2.24,0.22,-0.06,1.45,0.76,3.875,7.5625,47.75,0.05145263671875,-0.71728515625,-0.11260986328125,-0.68572998046875,-42.6875,-10.75,16.5,9.76,0.79,-0.53,moving,1
8.99,607616.531282441,22,0,0,0,0,9.54,1.92,0.24,-0.22,1.23,0.76,-2.5625,7.6875,56.375,0.05474853515625,-0.71734619140625,-0.10894775390625,-0.68597412109375,-42.6875,-10.75,16.5,9.76,0.69,-0.51,moving,1
9.0,607616.531282441,22,0,0,0,0,9.05,1.86,-0.11,-0.72,1.27,0.37,1.375,18.375,58.75,0.05853271484375,-0.716796875,-0.105224609375,-0.68682861328125,-42.6875,-10.75,16.5,9.77,0.59,-0.48,moving,1
9.01,607616.536634085,22,0,0,0,0,9.05,1.86,-0.11,-0.72,1.27,0.37,1.375,18.375,58.75,0.05853271484375,-0.716796875,-0.105224609375,-0.68682861328125,-42.6875,-10.75,16.5,9.77,0.59,-0.48,moving,1
9.01,607616.536634085,22,0,0,0,0,8.62,2.14,-0.19,-1.15,1.64,0.23,7.6875,31.6875,58.3125,0.062744140625,-0.71539306640625,-0.1019287109375,-0.68841552734375,-42.6875,-10.75,16.5,9.78,0.49,-0.43,moving,1
9.02,607616.561782685,22,0,0,0,0,7.96,1.26,-0.63,-1.82,0.87,-0.26,12.25,38.8125,59.5,0.06744384765625,-0.7135009765625,-0.0987548828125,-0.69036865234375,-43.375,-9.375,15.375,9.79,0.39,-0.36,moving,1
9.03,607616.561782685,22,0,0,0,0,8.09,1.12,-0.91,-1.7,0.83,-0.61,11.0625,36.5625,59.3125,0.072021484375,-0.71173095703125,-0.09552001953125,-0.69219970703125,-43.375,-9.375,15.375,9.79,0.29,-0.3,moving,1
9.04,607616.575676443,22,0,0,0,0,8.29,0.69,-0.86,-1.5,0.49,-0.61,10.3125,35.1875,51.625,0.0760498046875,-0.7099609375,-0.09271240234375,-0.6939697265625,-43.375,-9.375,15.375,9.8,0.2,-0.24,moving,1
9.05,607616.575676443,22,0,0,0,0,8.97,0.66,-0.6,-0.82,0.53,-0.41,-1.1875,34.75,44.625,0.0789794921875,-0.70819091796875,-0.08966064453125,-0.69580078125,-43.375,-9.375,15.375,9.8,0.12,-0.18,moving,1
9.06,607616.591861176,22,0,0,0,0,10.33,0.38,-0.58,0.52,0.34,-0.39,-22.875,0.5625,52.1875,0.0806884765625,-0.708740234375,-0.08502197265625,-0.6956787109375,-43.375,-9.375,15.375,9.8,0.03,-0.18,moving,1
9.07,607616.591861176,22,0,0,0,0,11.61,-0.29,-1.56,1.8,-0.24,-1.31,-57.375,-35.375,52.5625,0.080078125,-0.711669921875,-0.07855224609375,-0.69354248046875,-43.875,-8.25,15.75,9.8,-0.04,-0.24,moving,1
9.08,607616.621168956,22,0,0,0,0,11.28,-1.96,-1.2,1.48,-1.83,-0.92,-84.9375,-18.0,49.25,0.07763671875,-0.713623046875,-0.07049560546875,-0.692626953125,-43.875,-8.25,15.75,9.8,-0.12,-0.27,moving,1
9.09,607616.621168956,22,0,0,0,0,12.04,-1.79,1.43,2.24,-1.59,1.73,-84.4375,-11.3125,39.375,0.07470703125,-0.71514892578125,-0.06298828125,-0.692138671875,-43.875,-8.25,15.75,9.8,-0.19,-0.3,moving,1
9.1,607616.635970754,22,0,0,0,0,11.65,-2.33,3.53,1.85,-2.11,3.86,-70.1875,-15.0625,17.375,0.0712890625,-0.716552734375,-0.05780029296875,-0.69146728515625,-43.875,-8.25,15.75,9.79,-0.21,-0.32,moving,1
9.11,607616.635970754,22,0,0,0,0,10.26,-2.52,1.09,0.46,-2.29,1.41,-69.125,6.125,9.5625,0.06756591796875,-0.7166748046875,-0.052978515625,-0.692138671875,-43.875,-8.25,15.75,9.79,-0.23,-0.32,moving,1
9.12,607616.651000906,22,0,0,0,0,9.56,-2.85,0.81,-0.23,-2.63,1.13,-51.3125,6.625,-3.75,0.06414794921875,-0.716552734375,-0.05010986328125,-0.69281005859375,-43.1875,-7.1875,16.5,9.79,-0.22,-0.31,moving,1
9.13,607616.651000906,22,0,0,0,0,8.55,-2.57,0.46,-1.24,-2.38,0.76,-36.9375,7.875,-16.0,0.0609130859375,-0.7161865234375,-0.048828125,-0.69354248046875,-43.1875,-7.1875,16.5,9.8,-0.19,-0.3,moving,1
9.14,607616.680493419,22,0,0,0,0,8.48,-2.25,0.31,-1.31,-2.11,0.6,-33.5625,8.375,-26.5,0.0572509765625,-0.71575927734375,-0.04840087890625,-0.6943359375,-43.1875,-7.1875,16.5,9.8,-0.14,-0.28,moving,1
9.15,607616.680493419,22,0,0,0,0,8.56,-2.27,0.45,-1.23,-2.19,0.73,-32.375,2.875,-36.125,0.05303955078125,-0.715576171875,-0.04864501953125,-0.69482421875,-43.1875,-7.1875,16.5,9.8,-0.08,-0.28,moving,1
9.16,607616.696091645,22,0,0,0,0,9.43,-0.82,0.47,-0.36,-0.82,0.78,-23.25,-11.625,-45.4375,0.04876708984375,-0.7161865234375,-0.0501708984375,-0.69439697265625,-43.1875,-7.1875,16.5,9.8,0.0,-0.3,moving,1
9.17,607616.696091645,22,0,0,0,0,9.69,-0.23,0.89,-0.1,-0.33,1.22,-7.875,-20.125,-57.8125,0.044677734375,-0.7171630859375,-0.0533447265625,-0.69342041015625,-44.5625,-7.5,15.375,9.8,0.09,-0.33,moving,1
9.18,607616.711288137,22,0,0,0,0,9.4,0.03,1.2,-0.38,-0.18,1.56,5.4375,-11.0625,-69.5,0.040771484375,-0.71746826171875,-0.05810546875,-0.6929931640625,-44.5625,-7.5,15.375,9.79,0.21,-0.35,moving,1
9.19,607616.711288137,22,0,0,0,0,8.82,0.33,1.18,-0.96,-0.01,1.55,18.4375,-4.5625,-76.8125,0.03729248046875,-0.71728515625,-0.06402587890625,-0.69287109375,-44.5625,-7.5,15.375,9.79,0.34,-0.36,moving,1
9.2,607616.741160492,22,0,0,0,0,7.92,0.49,0.03,-1.86,0.01,0.41,30.8125,-7.125,-77.25,0.03448486328125,-0.7171630859375,-0.07073974609375,-0.69244384765625,-44.5625,-7.5,15.375,9.78,0.47,-0.37,moving,1
9.21,607616.741160492,22,0,0,0,0,7.62,0.8,-0.51,-2.15,0.2,-0.11,46.8125,-11.0,-73.8125,0.03289794921875,-0.7171630859375,-0.07818603515625,-0.69171142578125,-44.5625,-7.5,15.375,9.78,0.59,-0.4,moving,1
9.22,607616.755733897,22,0,0,0,0,7.94,1.15,-0.89,-1.82,0.45,-0.45,54.5,-15.125,-63.5625,0.0323486328125,-0.71746826171875,-0.08551025390625,-0.6905517578125,-43.0625,-9.375,15.0,9.77,0.7,-0.43,moving,1
9.23,607616.755733897,22,0,0,0,0,9.53,1.33,-1.0,-0.22,0.54,-0.52,47.9375,-23.75,-50.5625,0.03216552734375,-0.7183837890625,-0.09161376953125,-0.6888427734375,-43.0625,-9.375,15.0,9.76,0.78,-0.47,moving,1
9.24,607616.770588064,22,0,0,0,0,10.51,1.15,-0.78,0.75,0.32,-0.23,34.25,-36.375,-33.3125,0.031982421875,-0.72021484375,-0.09588623046875,-0.6864013671875,-43.0625,-9.375,15.0,9.75,0.83,-0.54,moving,1
9.25,607616.770588064,22,0,0,0,0,11.04,1.52,-0.47,1.29,0.66,0.13,20.9375,-39.8125,-15.1875,0.0321044921875,-0.72235107421875,-0.09820556640625,-0.68377685546875,-43.0625,-9.375,15.0,9.74,0.86,-0.61,moving,1
9.26,607616.801250825,22,0,0,0,0,11.1,2.45,-0.29,1.36,1.58,0.36,22.75,-22.1875,-2.3125,0.033203125,-0.7236328125,-0.0997314453125,-0.68218994140625,-43.0625,-9.375,15.0,9.74,0.86,-0.65,moving,1
9.27,607616.801250825,22,0,0,0,0,10.74,4.43,-0.55,1.0,3.58,0.11,38.625,1.0625,2.25,0.0357666015625,-0.72344970703125,-0.10186767578125,-0.681884765625,-42.375,-8.5625,16.1875,9.74,0.85,-0.66,moving,1
9.27,607616.806616588,22,0,0,0,0,10.74,4.43,-0.55,1.0,3.58,0.11,38.625,1.0625,2.25,0.0357666015625,-0.72344970703125,-0.10186767578125,-0.681884765625,-42.375,-8.5625,16.1875,9.74,0.85,-0.66,moving,1
9.28,607616.806616588,22,0,0,0,0,10.54,4.31,-1.12,0.79,3.47,-0.48,49.875,14.875,6.125,0.0394287109375,-0.722412109375,-0.10443115234375,-0.682373046875,-42.375,-8.5625,16.1875,9.74,0.83,-0.64,moving,1
9.29,607616.831685965,22,0,0,0,0,10.32,3.78,-1.64,0.57,2.97,-1.04,49.125,31.3125,13.125,0.0435791015625,-0.72052001953125,-0.1064453125,-0.683837890625,-42.375,-8.5625,16.1875,9.75,0.81,-0.59,moving,1
9.3,607616.831685965,22,0,0,0,0,10.45,3.64,-2.03,0.69,2.87,-1.5,38.8125,43.5,23.25,0.04779052734375,-0.71795654296875,-0.10711669921875,-0.6861572265625,-42.375,-8.5625,16.1875,9.76,0.76,-0.52,moving,1
9.31,607616.84597637,22,0,0,0,0,10.2,2.33,-1.68,0.43,1.62,-1.22,18.125,39.875,32.8125,0.05126953125,-0.7158203125,-0.10595703125,-0.68829345703125,-42.375,-8.5625,16.1875,9.76,0.71,-0.46,moving,1
9.32,607616.84597637,22,0,0,0,0,10.12,2.17,-1.09,0.34,1.54,-0.68,-5.9375,31.125,46.1875,0.053955078125,-0.71435546875,-0.10260009765625,-0.69012451171875,-43.0625,-9.6875,16.1875,9.77,0.63,-0.4,moving,1
9.33,607616.861634573,22,0,0,0,0,9.68,1.92,-0.44,-0.09,1.38,-0.07,-23.875,20.125,54.625,0.055908203125,-0.7137451171875,-0.09765625,-0.6912841796875,-43.0625,-9.6875,16.1875,9.78,0.54,-0.37,moving,1
9.34,607616.861634573,22,0,0,0,0,8.71,1.05,-0.19,-1.08,0.6,0.13,-30.8125,24.3125,55.1875,0.05755615234375,-0.712890625,-0.09228515625,-0.69281005859375,-43.0625,-9.6875,16.1875,9.79,0.44,-0.32,moving,1
9.35,607616.891310314,22,0,0,0,0,8.49,0.73,-0.23,-1.3,0.38,0.03,-29.0,30.0625,55.375,0.059326171875,-0.71160888671875,-0.0869140625,-0.69464111328125,-43.0625,-9.6875,16.1875,9.79,0.35,-0.27,moving,1
9.36,607616.891310314,22,0,0,0,0,8.36,0.22,-0.38,-1.43,-0.04,-0.14,-27.0625,18.25,54.25,0.06103515625,-0.7110595703125,-0.08184814453125,-0.6956787109375,-43.0625,-9.6875,16.1875,9.8,0.26,-0.24,moving,1
9.37,607616.906232758,22,0,0,0,0,8.38,-0.15,-0.22,-1.41,-0.33,0.0,-26.1875,10.375,51.0,0.06256103515625,-0.7109375,-0.0770263671875,-0.69622802734375,-42.875,-8.5,16.1875,9.8,0.17,-0.22,moving,1
9.38,607616.906232758,22,0,0,0,0,9.1,-0.27,0.01,-0.7,-0.37,0.22,-30.0625,11.1875,46.3125,0.0635986328125,-0.710693359375,-0.072265625,-0.6968994140625,-42.875,-8.5,16.1875,9.8,0.1,-0.2,moving,1
9.39,607616.921231293,22,0,0,0,0,9.41,-0.47,-0.19,-0.39,-0.5,0.0,-37.75,7.9375,42.125,0.0638427734375,-0.710693359375,-0.06732177734375,-0.6973876953125,-42.875,-8.5,16.1875,9.8,0.03,-0.18,moving,1
9.4,607616.921231293,22,0,0,0,0,9.47,-0.77,-0.04,-0.33,-0.73,0.15,-39.6875,-4.375,37.375,0.0635986328125,-0.71136474609375,-0.0626220703125,-0.6971435546875,-42.875,-8.5,16.1875,9.8,-0.03,-0.19,moving,1
9.41,607616.952464244,22,0,0,0,0,9.85,-2.12,0.51,0.05,-2.03,0.73,-30.1875,-13.125,30.9375,0.06353759765625,-0.7125244140625,-0.0589599609375,-0.6962890625,-42.875,-8.5,16.1875,9.8,-0.08,-0.21,moving,1
9.42,607616.952464244,22,0,0,0,0,9.75,-2.55,-0.19,-0.04,-2.43,0.04,-38.0625,-12.9375,23.75,0.06256103515625,-0.713623046875,-0.05523681640625,-0.695556640625,-44.0,-7.75,14.5625,9.8,-0.12,-0.24,moving,1
9.43,607616.966605439,22,0,0,0,0,9.58,-3.34,0.39,-0.22,-3.19,0.65,-52.1875,-10.1875,15.6875,0.0601806640625,-0.714599609375,-0.0511474609375,-0.695068359375,-44.0,-7.75,14.5625,9.8,-0.14,-0.25,moving,1
9.44,607616.966605439,22,0,0,0,0,9.41,-4.36,0.62,-0.38,-4.21,0.89,-51.9375,-7.25,7.3125,0.057373046875,-0.71533203125,-0.047607421875,-0.69482421875,-44.0,-7.75,14.5625,9.8,-0.15,-0.27,moving,1
9.45,607616.995392263,22,0,0,0,0,9.22,-3.9,0.81,-0.57,-3.75,1.1,-32.1875,-9.6875,-4.8125,0.05499267578125,-0.716064453125,-0.04595947265625,-0.69439697265625,-44.0,-7.75,14.5625,9.8,-0.14,-0.29,moving,1
9.46,607616.995392263,22,0,0,0,0,9.83,-3.16,1.02,0.03,-3.05,1.33,-24.1875,-10.8125,-15.3125,0.05255126953125,-0.71673583984375,-0.0455322265625,-0.69384765625,-44.0,-7.75,14.5625,9.8,-0.11,-0.3,moving,1
9.48,607617.011157644,22,0,0,0,0,10.79,-0.82,0.28,0.99,-0.81,0.65,5.875,-17.5,-38.1875,0.04815673828125,-0.7183837890625,-0.0494384765625,-0.69219970703125,-44.0,-7.75,15.0,9.79,0.0,-0.36,moving,1
9.49,607617.011157644,22,0,0,0,0,10.85,-0.33,0.36,1.05,-0.41,0.75,16.4375,-14.9375,-51.1875,0.0460205078125,-0.718994140625,-0.0537109375,-0.69140625,-44.0,-7.75,15.0,9.79,0.07,-0.38,moving,1
9.5,607617.040859752,22,0,0,0,0,10.61,-0.01,0.29,0.81,-0.19,0.69,18.625,-10.75,-61.75,0.04345703125,-0.71923828125,-0.0587158203125,-0.69091796875,-44.0,-7.75,15.0,9.79,0.18,-0.4,moving,1
9.51,607617.040859752,22,0,0,0,0,10.11,0.22,0.04,0.32,-0.07,0.47,22.0,-8.125,-70.375,0.04052734375,-0.71929931640625,-0.06451416015625,-0.6905517578125,-44.0,-7.75,15.0,9.79,0.3,-0.42,moving,1
9.52,607617.056101858,22,0,0,0,0,8.96,0.32,-0.47,-0.81,-0.11,-0.04,26.5625,-5.875,-78.125,0.0374755859375,-0.71905517578125,-0.07098388671875,-0.69024658203125,-44.0,-8.5,15.0,9.78,0.43,-0.43,moving,1
9.53,607617.056101858,22,0,0,0,0,8.79,0.37,-0.51,-0.98,-0.2,-0.07,41.625,-0.125,-84.6875,0.03497314453125,-0.7183837890625,-0.07879638671875,-0.6903076171875,-44.0,-8.5,15.0,9.78,0.57,-0.43,moving,1
9.54,607617.071067963,22,0,0,0,0,8.72,0.44,-0.49,-1.04,-0.27,-0.05,51.0,1.1875,-85.875,0.03302001953125,-0.717529296875,-0.0872802734375,-0.69024658203125,-44.0,-8.5,15.0,9.77,0.71,-0.44,moving,1
9.55,607617.071067963,22,0,0,0,0,8.91,0.65,-0.46,-0.84,-0.19,-0.01,51.4375,-4.25,-79.625,0.03143310546875,-0.71697998046875,-0.0953369140625,-0.6898193359375,-44.0,-8.5,15.0,9.75,0.84,-0.45,moving,1
9.56,607617.101256521,22,0,0,0,0,9.42,1.08,-1.39,-0.31,0.12,-0.9,46.4375,-19.0625,-67.375,0.0301513671875,-0.71746826171875,-0.1024169921875,-0.68841552734375,-44.0,-8.5,15.0,9.74,0.95,-0.49,moving,1
9.57,607617.101256521,22,0,0,0,0,9.93,1.23,-1.63,0.2,0.19,-1.07,37.625,-38.9375,-50.25,0.02911376953125,-0.71923828125,-0.10791015625,-0.68572998046875,-42.5,-9.25,15.375,9.73,1.04,-0.56,moving,1
9.58,607617.106721487,22,0,0,0,0,9.93,1.23,-1.63,0.2,0.19,-1.07,37.625,-38.9375,-50.25,0.02911376953125,-0.71923828125,-0.10791015625,-0.68572998046875,-42.5,-9.25,15.375,9.73,1.04,-0.56,moving,1
9.58,607617.106721487,22,0,0,0,0,10.53,1.86,-1.6,0.81,0.77,-0.95,33.8125,-43.1875,-33.4375,0.02886962890625,-0.72137451171875,-0.11212158203125,-0.68280029296875,-42.5,-9.25,15.375,9.72,1.09,-0.64,moving,1
9.59,607617.132510306,22,0,0,0,0,11.04,3.28,-1.12,1.32,2.16,-0.42,34.9375,-30.3125,-19.1875,0.02960205078125,-0.722900390625,-0.115478515625,-0.68060302734375,-42.5,-9.25,15.375,9.71,1.12,-0.7,moving,1
9.6,607617.132510306,22,0,0,0,0,11.01,3.63,-0.91,1.3,2.5,-0.17,37.875,-14.9375,-7.5,0.03143310546875,-0.7236328125,-0.11822509765625,-0.67926025390625,-42.5,-9.25,15.375,9.71,1.12,-0.73,moving,1
9.61,607617.146410655,22,0,0,0,0,11.1,3.56,-0.63,1.39,2.44,0.12,42.0,-5.8125,3.0,0.0341796875,-0.723876953125,-0.12054443359375,-0.678466796875,-42.5,-9.25,15.375,9.71,1.11,-0.75,moving,1
9.62,607617.146410655,22,0,0,0,0,10.89,3.51,-1.04,1.18,2.42,-0.29,46.0625,6.0625,10.6875,0.03778076171875,-0.72344970703125,-0.12261962890625,-0.6783447265625,-41.6875,-10.6875,15.75,9.71,1.09,-0.75,moving,1
9.63,607617.162217581,22,0,0,0,0,9.84,3.34,-1.29,0.11,2.28,-0.57,50.6875,24.3125,15.875,0.04217529296875,-0.72198486328125,-0.12451171875,-0.67926025390625,-41.6875,-10.6875,15.75,9.72,1.06,-0.72,moving,1
9.64,607617.162217581,22,0,0,0,0,9.39,3.19,-1.47,-0.33,2.18,-0.8,42.0625,32.5625,26.75,0.0467529296875,-0.72021484375,-0.12518310546875,-0.6807861328125,-41.6875,-10.6875,15.75,9.73,1.01,-0.67,moving,1
9.65,607617.191300629,22,0,0,0,0,9.44,3.24,-1.38,-0.29,2.3,-0.75,29.75,29.0,38.5,0.05126953125,-0.71875,-0.12445068359375,-0.68212890625,-41.6875,-10.6875,15.75,9.74,0.94,-0.62,moving,1
9.66,607617.191300629,22,0,0,0,0,8.98,3.24,-0.9,-0.76,2.37,-0.32,19.8125,29.375,45.625,0.0555419921875,-0.7174072265625,-0.12261962890625,-0.68353271484375,-41.6875,-10.6875,15.75,9.75,0.86,-0.58,moving,1
9.67,607617.206395885,22,0,0,0,0,8.49,3.15,-1.16,-1.26,2.37,-0.64,13.125,38.125,49.0625,0.0596923828125,-0.715576171875,-0.1201171875,-0.685546875,-42.1875,-10.25,17.0625,9.76,0.77,-0.51,moving,1
9.68,607617.206395885,22,0,0,0,0,7.75,2.63,-1.14,-2.01,1.93,-0.7,8.875,49.375,47.625,0.0635986328125,-0.71307373046875,-0.117431640625,-0.688232421875,-42.1875,-10.25,17.0625,9.77,0.69,-0.43,moving,1
9.69,607617.221882335,22,0,0,0,0,7.14,1.84,-1.16,-2.63,1.22,-0.83,7.4375,58.3125,47.375,0.0675048828125,-0.71002197265625,-0.1146240234375,-0.6915283203125,-42.1875,-10.25,17.0625,9.78,0.61,-0.33,moving,1
9.7,607617.221882335,22,0,0,0,0,6.75,0.88,-1.46,-3.03,0.34,-1.18,-3.5625,35.1875,47.5,0.0704345703125,-0.7083740234375,-0.11126708984375,-0.6934814453125,-42.1875,-10.25,17.0625,9.78,0.53,-0.27,moving,1
9.71,607617.254658011,22,0,0,0,0,7.11,0.45,-0.96,-2.67,0.0,-0.7,-16.75,9.0,45.375,0.072265625,-0.70831298828125,-0.107421875,-0.69390869140625,-42.1875,-10.25,17.0625,9.79,0.45,-0.26,moving,1
9.72,607617.254658011,22,0,0,0,0,7.8,0.21,-0.83,-1.98,-0.17,-0.58,-29.125,6.625,40.3125,0.07293701171875,-0.70849609375,-0.1031494140625,-0.6943359375,-42.875,-8.875,16.5625,9.79,0.39,-0.24,moving,1
9.73,607617.268215343,22,0,0,0,0,9.11,0.0,-0.99,-0.68,-0.32,-0.74,-45.375,-1.1875,37.375,0.0723876953125,-0.70916748046875,-0.09808349609375,-0.69439697265625,-42.875,-8.875,16.5625,9.79,0.32,-0.24,moving,1
9.74,607617.268215343,22,0,0,0,0,10.01,-0.54,-0.14,0.21,-0.81,0.13,-50.5625,-18.1875,35.625,0.07122802734375,-0.71087646484375,-0.09295654296875,-0.6934814453125,-42.875,-8.875,16.5625,9.79,0.27,-0.27,moving,1
9.75,607617.281906017,22,0,0,0,0,10.7,-1.17,-0.04,0.9,-1.38,0.28,-58.5625,-33.875,35.25,0.0694580078125,-0.71356201171875,-0.08740234375,-0.69158935546875,-42.875,-8.875,16.5625,9.79,0.21,-0.33,moving,1
9.76,607617.281906017,22,0,0,0,0,10.61,-1.47,-0.06,0.81,-1.63,0.31,-78.5625,-28.375,34.1875,0.06640625,-0.71600341796875,-0.08074951171875,-0.69024658203125,-42.875,-8.875,16.5625,9.79,0.16,-0.37,moving,1
9.77,607617.312442272,22,0,0,0,0,10.06,-3.56,0.6,0.26,-3.69,1.0,-79.1875,-15.125,22.0625,0.06268310546875,-0.717529296875,-0.07464599609375,-0.689697265625,-42.875,-8.5,15.0625,9.79,0.12,-0.4,moving,1
9.78,607617.312442272,22,0,0,0,0,9.84,-3.38,0.01,0.04,-3.5,0.45,-56.125,-23.0,6.3125,0.05938720703125,-0.71923828125,-0.071044921875,-0.68853759765625,-42.875,-8.5,15.0625,9.79,0.12,-0.43,moving,1
9.79,607617.342891246,22,0,0,0,0,9.5,-3.74,-0.45,-0.29,-3.87,0.03,-50.8125,-31.25,0.0,0.05596923828125,-0.72137451171875,-0.068115234375,-0.6868896484375,-42.875,-8.5,15.0625,9.79,0.12,-0.49,moving,1
9.8,607617.342891246,22,0,0,0,0,9.77,-3.27,-0.77,-0.01,-3.4,-0.23,-49.25,-26.6875,-4.4375,0.052490234375,-0.72320556640625,-0.06561279296875,-0.685546875,-42.875,-8.5,15.0625,9.79,0.13,-0.53,moving,1
9.81,607617.348576712,22,0,0,0,0,11.42,-1.5,0.01,1.64,-1.66,0.59,-42.125,-24.875,-13.8125,0.048828125,-0.72479248046875,-0.0640869140625,-0.68426513671875,-42.875,-8.5,15.0625,9.78,0.16,-0.57,moving,1
9.82,607617.348576712,22,0,0,0,0,11.86,-0.98,0.0,2.07,-1.19,0.58,-40.1875,-10.0,-25.5625,0.04473876953125,-0.72540283203125,-0.06329345703125,-0.6839599609375,-42.5,-8.5,15.875,9.78,0.21,-0.59,moving,1
9.83,607617.374192353,22,0,0,0,0,11.92,-0.89,-0.13,2.13,-1.17,0.44,-34.6875,3.5,-37.375,0.04034423828125,-0.72509765625,-0.0635986328125,-0.68450927734375,-42.5,-8.5,15.875,9.78,0.28,-0.58,moving,1
9.84,607617.374192353,22,0,0,0,0,11.37,-0.45,0.33,1.59,-0.82,0.91,-22.5,-0.5,-49.75,0.03594970703125,-0.72491455078125,-0.06536865234375,-0.684814453125,-42.5,-8.5,15.875,9.78,0.36,-0.58,moving,1
9.84,607617.379682791,22,0,0,0,0,11.37,-0.45,0.33,1.59,-0.82,0.91,-22.5,-0.5,-49.75,0.03594970703125,-0.72491455078125,-0.06536865234375,-0.684814453125,-42.5,-8.5,15.875,9.78,0.36,-0.58,moving,1
9.85,607617.379682791,22,0,0,0,0,10.61,-0.18,0.33,0.83,-0.65,0.89,-6.1875,9.375,-60.6875,0.031982421875,-0.7239990234375,-0.06884765625,-0.68560791015625,-42.5,-8.5,15.875,9.77,0.47,-0.56,moving,1
9.86,607617.402897797,22,0,0,0,0,9.65,0.05,-0.24,-0.12,-0.53,0.27,7.25,25.1875,-65.875,0.02862548828125,-0.7220458984375,-0.0733642578125,-0.68731689453125,-42.5,-8.5,15.875,9.77,0.58,-0.52,moving,1
9.87,607617.402897797,22,0,0,0,0,9.13,-0.1,-0.78,-0.63,-0.79,-0.29,13.75,22.25,-65.0625,0.0257568359375,-0.72027587890625,-0.07818603515625,-0.68878173828125,-42.0625,-8.875,15.5,9.76,0.69,-0.48,moving,1
9.88,607617.416971609,22,0,0,0,0,8.83,0.11,-1.6,-0.92,-0.67,-1.13,20.125,13.375,-59.625,0.0235595703125,-0.718994140625,-0.0831298828125,-0.68963623046875,-42.0625,-8.875,15.5,9.76,0.79,-0.46,moving,1
9.89,607617.416971609,22,0,0,0,0,9.09,0.51,-1.57,-0.66,-0.36,-1.11,28.625,11.125,-54.125,0.02215576171875,-0.71783447265625,-0.08819580078125,-0.69024658203125,-42.0625,-8.875,15.5,9.75,0.88,-0.45,moving,1
9.9,607617.43442449,22,0,0,0,0,8.89,0.99,-1.22,-0.85,0.03,-0.78,33.4375,11.8125,-46.75,0.02154541015625,-0.7166748046875,-0.0931396484375,-0.6907958984375,-42.0625,-8.875,15.5,9.74,0.95,-0.43,moving,1
9.91,607617.43442449,22,0,0,0,0,9.2,2.37,-0.97,-0.54,1.36,-0.54,29.4375,8.0,-33.875,0.02142333984375,-0.71588134765625,-0.09698486328125,-0.69110107421875,-42.0625,-8.875,15.5,9.74,1.01,-0.42,moving,1
9.92,607617.461785208,22,0,0,0,0,9.35,2.84,-0.87,-0.38,1.79,-0.44,20.25,3.625,-21.3125,0.02142333984375,-0.7154541015625,-0.09954833984375,-0.69122314453125,-41.6875,-10.25,15.875,9.74,1.04,-0.42,moving,1
9.93,607617.461785208,22,0,0,0,0,9.27,3.11,-0.63,-0.46,2.04,-0.21,17.625,8.0,-12.625,0.0218505859375,-0.71484375,-0.10137939453125,-0.69158935546875,-41.6875,-10.25,15.875,9.73,1.06,-0.41,moving,1
9.94,607617.476369681,22,0,0,0,0,9.07,3.05,-0.86,-0.66,1.97,-0.48,17.0,20.875,-4.25,0.0228271484375,-0.7135009765625,-0.10260009765625,-0.6927490234375,-41.6875,-10.25,15.875,9.74,1.07,-0.38,moving,1
9.95,607617.476369681,22,0,0,0,0,9.19,3.44,-0.69,-0.54,2.37,-0.34,15.6875,21.5625,1.375,0.02410888671875,-0.712158203125,-0.10345458984375,-0.69390869140625,-41.6875,-10.25,15.875,9.74,1.07,-0.35,moving,1
9.96,607617.49203358,22,0,0,0,0,9.0,2.84,-1.43,-0.73,1.79,-1.13,8.1875,29.0,7.1875,0.02532958984375,-0.71044921875,-0.1033935546875,-0.69561767578125,-41.6875,-10.25,15.875,9.74,1.05,-0.3,moving,1
9.97,607617.49203358,22,0,0,0,0,9.31,2.26,-1.64,-0.43,1.23,-1.39,2.25,30.25,15.125,0.02667236328125,-0.708740234375,-0.1025390625,-0.69744873046875,-42.75,-9.875,15.0625,9.74,1.03,-0.25,moving,1
9.98,607617.521881644,22,0,0,0,0,10.11,1.91,-1.59,0.36,0.92,-1.38,-1.5625,22.125,25.875,0.0283203125,-0.7076416015625,-0.100830078125,-0.69879150390625,-42.75,-9.875,15.0625,9.75,0.98,-0.21,moving,1
