timestamp,android_nano_timestamp,temperature,calib_mag,calib_accel,calib_gyro,calib_sys,acc_x,acc_y,acc_z,lacc_x,lacc_y,lacc_z,gyro_x,gyro_y,gyro_z,quat_w,quat_x,quat_y,quat_z,mag_x,mag_y,mag_z,gravity_x,gravity_y,gravity_z,label,person
5.88,1145746.94350983,29,3,3,3,0,1.2,0.93,8.43,9.2,0.12,14.05,66.9375,-173.4375,-5.1875,0.37188720703125,0.59600830078125,0.656494140625,-0.274658203125,25.0625,52.6875,60.875,-7.99,0.81,-5.61,moving,4
5.89,1145746.94350983,29,3,3,3,0,-1.86,2.06,5.49,6.28,1.3,10.9,42.75,-151.9375,-7.625,0.378173828125,0.59326171875,0.65087890625,-0.2852783203125,24.75,53.6875,61.5625,-8.14,0.75,-5.4,moving,4
5.9,1145746.95797504,29,3,3,3,0,-3.18,2.38,3.96,5.08,1.67,9.18,34.75,-134.8125,-7.5,0.38385009765625,0.590576171875,0.6458740234375,-0.29443359375,24.75,53.6875,61.5625,-8.27,0.71,-5.21,moving,4
5.91,1145746.95797504,29,3,3,3,0,-3.57,2.04,2.62,4.81,1.35,7.66,18.4375,-125.75,-7.75,0.3897705078125,0.58746337890625,0.64154052734375,-0.30218505859375,24.75,53.6875,61.5625,-8.38,0.68,-5.03,moving,4
5.92,1145746.988167341,29,3,3,3,0,-2.95,1.8,1.71,5.52,1.12,6.58,-4.25,-108.4375,-4.9375,0.39593505859375,0.58416748046875,0.63818359375,-0.30767822265625,24.75,53.6875,61.5625,-8.48,0.68,-4.87,moving,4
5.93,1145746.988167341,29,3,3,3,0,-1.74,1.27,-1.05,6.8,0.57,3.7,-27.0,-79.6875,-2.6875,0.40167236328125,0.5809326171875,0.63629150390625,-0.31036376953125,24.75,53.6875,61.5625,-8.54,0.7,-4.75,moving,4
5.94,1145747.003549706,29,3,3,3,0,-1.85,0.89,-2.32,6.74,0.15,2.32,-47.8125,-61.25,-1.4375,0.407470703125,0.5775146484375,0.635498046875,-0.31085205078125,26.5,54.5,56.6875,-8.59,0.74,-4.65,moving,4
5.95,1145747.003549706,29,3,3,3,0,-2.87,0.62,-3.79,5.77,-0.17,0.75,-73.75,-60.6875,1.875,0.41461181640625,0.57330322265625,0.63519287109375,-0.30975341796875,26.5,54.5,56.6875,-8.64,0.8,-4.55,moving,4
5.96,1145747.018616642,29,3,3,3,0,-4.02,-0.35,-5.52,4.67,-1.25,-1.07,-118.1875,-56.125,-0.625,0.42364501953125,0.56744384765625,0.6363525390625,-0.3060302734375,26.5,54.5,56.6875,-8.69,0.89,-4.45,moving,4
5.97,1145747.018616642,29,3,3,3,0,-11.48,-4.01,-14.29,-2.8,-5.01,-9.83,-139.125,21.6875,-0.6875,0.42926025390625,0.56280517578125,0.64080810546875,-0.2972412109375,26.5,54.5,56.6875,-8.67,1.0,-4.45,moving,4
5.98,1145747.048825992,29,3,3,3,0,-12.66,0.06,-16.1,-4.13,-0.93,-11.37,17.125,181.625,9.75,0.41851806640625,0.568603515625,0.6466064453125,-0.28887939453125,26.5,54.5,56.6875,-8.52,1.0,-4.73,moving,4
5.99,1145747.048825992,29,3,3,3,0,-14.83,-0.76,-19.45,-6.44,-1.7,-14.45,111.8125,164.375,19.125,0.40411376953125,0.57781982421875,0.64874267578125,-0.2862548828125,26.5,54.75,56.25,-8.38,0.93,-4.99,moving,4
6.0,1145747.064102319,29,3,3,3,0,-16.41,-1.79,-14.46,-8.03,-2.69,-9.45,56.1875,2.25,6.75,0.40130615234375,0.58026123046875,0.64703369140625,-0.28912353515625,26.5,54.75,56.25,-8.38,0.89,-5.0,moving,4
6.01,1145747.064102319,29,3,3,3,0,-19.86,-2.26,-5.76,-11.37,-3.15,-0.95,8.5,-130.8125,-0.625,0.408203125,0.5771484375,0.64227294921875,-0.29620361328125,26.5,54.75,56.25,-8.49,0.88,-4.81,moving,4
6.02,1145747.078935896,29,3,3,3,0,-19.86,-2.26,-5.76,-11.37,-3.15,-0.95,8.5,-130.8125,-0.625,0.408203125,0.5771484375,0.64227294921875,-0.29620361328125,26.5,54.75,56.25,-8.49,0.88,-4.81,moving,4
6.03,1145747.078935896,29,3,3,3,0,-24.2,-0.67,-8.77,-15.58,-1.56,-4.17,-3.0,-149.9375,0.1875,0.416748046875,0.5731201171875,0.636962890625,-0.3035888671875,26.5,54.75,56.25,-8.61,0.89,-4.59,moving,4
6.03,1145747.092897973,29,3,3,3,0,-29.16,0.72,-13.43,-20.45,-0.18,-9.02,-24.0625,-112.8125,-1.3125,0.42413330078125,0.56915283203125,0.633544921875,-0.30792236328125,26.5,54.75,56.25,-8.7,0.9,-4.41,moving,4
6.04,1145747.092897973,29,3,3,3,0,-32.46,3.45,-16.11,-23.68,2.52,-11.84,-31.4375,-98.8125,-2.8125,0.43109130859375,0.56512451171875,0.63079833984375,-0.3111572265625,25.375,55.1875,55.875,-8.78,0.92,-4.26,moving,4
6.05,1145747.108672224,29,3,3,3,0,-31.73,4.13,-14.3,-22.89,3.18,-10.17,-33.1875,-85.875,3.25,0.4375,0.56170654296875,0.6282958984375,-0.3134765625,25.375,55.1875,55.875,-8.84,0.95,-4.12,moving,4
6.06,1145747.108672224,29,3,3,3,0,-30.52,4.1,-13.96,-21.63,3.1,-9.92,-36.5625,-52.375,6.3125,0.44232177734375,0.5592041015625,0.62701416015625,-0.31378173828125,25.375,55.1875,55.875,-8.88,0.99,-4.03,moving,4
6.07,1145747.15403575,29,3,3,3,0,-28.06,3.97,-13.87,-19.17,2.94,-9.85,-30.875,-11.0625,8.625,0.4447021484375,0.5582275390625,0.62701416015625,-0.31231689453125,25.375,55.1875,55.875,-8.88,1.02,-4.01,moving,4
6.08,1145747.15403575,29,3,3,3,0,-20.38,3.36,-8.78,-11.51,2.3,-4.74,-30.5,21.1875,10.0,0.4453125,0.55810546875,0.628173828125,-0.3092041015625,25.375,55.1875,55.875,-8.87,1.06,-4.04,moving,4
6.09,1145747.159338077,29,3,3,3,0,-16.95,2.56,-7.25,-8.1,1.46,-3.17,-33.5,28.0,4.8125,0.44549560546875,0.557861328125,0.62994384765625,-0.30584716796875,26.1875,55.5625,54.6875,-8.85,1.09,-4.07,moving,4
6.1,1145747.159338077,29,3,3,3,0,-13.57,2.7,-6.1,-4.75,1.58,-1.96,-31.625,43.375,4.0625,0.44476318359375,0.5579833984375,0.63226318359375,-0.30181884765625,26.1875,55.5625,54.6875,-8.81,1.12,-4.14,moving,4
6.12,1145747.167961205,29,3,3,3,0,-10.84,2.36,-4.86,-2.07,1.21,-0.63,-28.875,62.0625,4.8125,0.44287109375,0.55877685546875,0.63519287109375,-0.2969970703125,26.1875,55.5625,54.6875,-8.77,1.15,-4.22,moving,4
6.12,1145747.167961205,29,3,3,3,0,-7.26,2.19,-3.71,1.43,1.01,0.64,-28.1875,86.4375,4.4375,0.4395751953125,0.56011962890625,0.63897705078125,-0.29107666015625,26.1875,55.5625,54.6875,-8.7,1.18,-4.35,moving,4
6.13,1145747.198616601,29,3,3,3,0,-6.16,1.91,-2.93,2.45,0.7,1.58,-35.875,112.1875,4.375,0.43511962890625,0.56182861328125,0.64398193359375,-0.28338623046875,26.1875,55.5625,54.6875,-8.61,1.21,-4.51,moving,4
6.14,1145747.198616601,29,3,3,3,0,-5.15,1.51,-2.31,3.35,0.25,2.39,-38.4375,129.6875,6.25,0.42987060546875,0.56390380859375,0.64947509765625,-0.274658203125,26.75,55.1875,57.0625,-8.51,1.25,-4.7,moving,4
6.15,1145747.213282291,29,3,3,3,0,-4.36,0.88,-1.75,4.03,-0.41,3.14,-36.4375,141.0625,10.25,0.42388916015625,0.56640625,0.65509033203125,-0.2652587890625,26.75,55.1875,57.0625,-8.39,1.3,-4.9,moving,4
6.16,1145747.213282291,29,3,3,3,0,-1.98,0.32,-0.78,6.27,-1.02,4.31,-33.5625,146.5,10.6875,0.4173583984375,0.56915283203125,0.66070556640625,-0.25567626953125,26.75,55.1875,57.0625,-8.26,1.34,-5.1,moving,4
6.17,1145747.228414697,29,3,3,3,0,0.07,0.17,-0.44,8.2,-1.21,4.85,-27.1875,144.4375,11.125,0.41064453125,0.57196044921875,0.66595458984375,-0.24652099609375,26.75,55.1875,57.0625,-8.12,1.38,-5.3,moving,4
6.18,1145747.228414697,29,3,3,3,0,2.0,0.23,-0.26,9.99,-1.18,5.24,-11.8125,140.5,16.6875,0.40338134765625,0.57550048828125,0.67034912109375,-0.2381591796875,26.75,55.1875,57.0625,-7.99,1.42,-5.5,moving,4
6.19,1145747.243348209,29,3,3,3,0,4.3,0.62,0.48,12.16,-0.81,6.16,6.25,130.0,17.1875,0.39581298828125,0.579345703125,0.67388916015625,-0.23138427734375,25.75,53.6875,60.6875,-7.86,1.43,-5.68,moving,4
6.2,1145747.243348209,29,3,3,3,0,5.67,0.86,1.13,13.42,-0.56,6.97,19.375,112.125,9.9375,0.388427734375,0.58282470703125,0.67681884765625,-0.22650146484375,25.75,53.6875,60.6875,-7.74,1.43,-5.84,moving,4
6.21,1145747.274487003,29,3,3,3,0,6.64,0.42,1.79,14.3,-0.98,7.76,35.3125,87.0625,9.0,0.38165283203125,0.5863037109375,0.6785888671875,-0.223876953125,25.75,53.6875,60.6875,-7.65,1.4,-5.96,moving,4
6.22,1145747.274487003,29,3,3,3,0,7.12,-0.02,2.7,14.73,-1.35,8.74,79.375,39.75,2.75,0.375244140625,0.58984375,0.67822265625,-0.2264404296875,25.75,53.6875,60.6875,-7.61,1.32,-6.03,moving,4
6.23,1145747.288213321,29,3,3,3,0,7.8,-2.17,5.88,15.41,-3.35,11.94,117.5,-3.3125,-18.5,0.3690185546875,0.592529296875,0.67669677734375,-0.234130859375,25.75,53.6875,60.6875,-7.61,1.18,-6.06,moving,4
6.24,1145747.288213321,29,3,3,3,0,7.87,-3.27,8.54,15.56,-4.29,14.55,101.5625,-54.875,-45.5,0.3660888671875,0.5919189453125,0.6751708984375,-0.24444580078125,26.5,52.6875,63.375,-7.68,1.01,-6.0,moving,4
6.25,1145747.338354801,29,3,3,3,0,6.97,-2.57,8.92,14.72,-3.49,14.86,40.4375,-53.4375,-35.8125,0.3663330078125,0.5899658203125,0.6744384765625,-0.250732421875,26.5,52.6875,63.375,-7.74,0.92,-5.94,moving,4
6.26,1145747.338354801,29,3,3,3,0,5.19,-0.41,8.3,12.97,-1.35,14.18,-38.375,-35.25,-18.625,0.3699951171875,0.58685302734375,0.67510986328125,-0.2508544921875,26.5,52.6875,63.375,-7.78,0.93,-5.88,moving,4
6.27,1145747.343820581,29,3,3,3,0,1.68,1.09,4.93,9.52,0.1,10.73,-80.875,-50.625,-17.6875,0.376708984375,0.58209228515625,0.6761474609375,-0.249267578125,26.5,52.6875,63.375,-7.84,0.99,-5.8,moving,4
6.28,1145747.343820581,29,3,3,3,0,1.68,1.09,4.93,9.52,0.1,10.73,-80.875,-50.625,-17.6875,0.376708984375,0.58209228515625,0.6761474609375,-0.249267578125,26.5,52.6875,63.375,-7.84,0.99,-5.8,moving,4
6.28,1145747.34958767,29,3,3,3,0,-1.08,-0.22,3.22,6.84,-1.29,8.89,-93.9375,-88.6875,-19.0,0.38629150390625,0.575927734375,0.6761474609375,-0.24884033203125,26.5,52.6875,63.375,-7.93,1.06,-5.66,moving,4
6.29,1145747.34958767,29,3,3,3,0,-3.18,-0.87,2.23,4.87,-2.02,7.7,-110.5625,-122.9375,-18.625,0.398681640625,0.568359375,0.67529296875,-0.24908447265625,24.6875,54.0625,62.5625,-8.05,1.14,-5.47,moving,4
6.3,1145747.396927067,29,3,3,3,0,-4.59,-1.29,0.85,3.57,-2.53,6.14,-123.5,-112.125,-18.0625,0.41094970703125,0.56048583984375,0.67486572265625,-0.24798583984375,24.6875,54.0625,62.5625,-8.16,1.23,-5.28,moving,4
6.31,1145747.396927067,29,3,3,3,0,-6.01,-0.25,-5.12,2.25,-1.55,-0.02,-108.25,-113.5,-17.8125,0.4224853515625,0.55303955078125,0.6739501953125,-0.24774169921875,24.6875,54.0625,62.5625,-8.27,1.3,-5.1,moving,4
6.32,1145747.402501936,29,3,3,3,0,-8.34,-1.18,-11.05,0.05,-2.54,-6.18,-95.75,-143.6875,-26.3125,0.4349365234375,0.5447998046875,0.67193603515625,-0.25,24.6875,54.0625,62.5625,-8.4,1.35,-4.86,moving,4
6.33,1145747.402501936,29,3,3,3,0,-7.59,0.03,-22.24,0.96,-1.28,-17.63,-4.8125,-178.125,-24.0625,0.445068359375,0.53924560546875,0.66632080078125,-0.25909423828125,24.6875,54.0625,62.5625,-8.55,1.32,-4.6,moving,4
6.34,1145747.407369287,29,3,3,3,0,-11.3,2.24,-14.52,-2.62,1.0,-10.14,90.375,-162.5,-9.375,0.449951171875,0.5384521484375,0.65838623046875,-0.2723388671875,25.0,53.375,64.0625,-8.68,1.23,-4.38,moving,4
6.35,1145747.407369287,29,3,3,3,0,-17.59,2.71,-0.26,-8.86,1.5,4.03,38.3125,-58.0,3.5,0.4515380859375,0.53875732421875,0.65496826171875,-0.277099609375,25.0,53.375,64.0625,-8.72,1.21,-4.3,moving,4
6.36,1145747.424529362,29,3,3,3,0,-23.36,4.33,-4.18,-14.6,3.14,0.06,53.75,-44.0625,11.8125,0.45184326171875,0.54052734375,0.6513671875,-0.28179931640625,25.0,53.375,64.0625,-8.75,1.18,-4.24,moving,4
6.37,1145747.424529362,29,3,3,3,0,-25.14,5.81,-7.65,-16.28,4.66,-3.61,35.4375,-135.125,-9.9375,0.45751953125,0.5379638671875,0.6456298828125,-0.29052734375,25.0,53.375,64.0625,-8.85,1.14,-4.04,moving,4
6.38,1145747.452999902,29,3,3,3,0,-32.31,3.38,-12.81,-23.31,2.22,-9.09,-46.3125,-202.125,-12.25,0.470703125,0.53021240234375,0.63922119140625,-0.2978515625,25.0,53.375,64.0625,-8.99,1.16,-3.72,moving,4
6.39,1145747.452999902,29,3,3,3,0,-35.72,1.64,-14.51,-26.64,0.46,-11.01,-59.4375,-133.625,-13.3125,0.48052978515625,0.52349853515625,0.63580322265625,-0.30126953125,25.75,54.75,60.0625,-9.08,1.17,-3.49,moving,4
6.4,1145747.459044458,29,3,3,3,0,-33.68,1.46,-11.57,-24.6,0.29,-8.06,-25.125,11.1875,-11.4375,0.48077392578125,0.5220947265625,0.637451171875,-0.2998046875,25.75,54.75,60.0625,-9.08,1.17,-3.51,moving,4
6.41,1145747.459044458,29,3,3,3,0,-32.08,2.53,-9.1,-23.01,1.34,-5.56,-30.25,20.9375,-3.3125,0.48089599609375,0.52117919921875,0.6392822265625,-0.29730224609375,25.75,54.75,60.0625,-9.06,1.18,-3.53,moving,4
6.42,1145747.483019392,29,3,3,3,0,-28.33,4.37,-8.61,-19.26,3.15,-5.1,-45.5625,-13.5625,5.5,0.48382568359375,0.51922607421875,0.6396484375,-0.295166015625,25.75,54.75,60.0625,-9.07,1.22,-3.5,moving,4
6.43,1145747.483019392,29,3,3,3,0,-25.96,4.76,-8.67,-16.88,3.49,-5.19,-45.4375,-10.375,12.6875,0.48681640625,0.51776123046875,0.63983154296875,-0.2926025390625,25.75,54.75,60.0625,-9.07,1.27,-3.47,moving,4
6.44,1145747.528742822,29,3,3,3,0,-24.13,4.74,-8.49,-15.05,3.41,-5.01,-46.3125,3.0625,18.5625,0.48919677734375,0.51690673828125,0.6402587890625,-0.2890625,26.5,54.75,58.5,-9.07,1.32,-3.47,moving,4
6.45,1145747.528742822,29,3,3,3,0,-22.87,4.11,-8.69,-13.81,2.72,-5.21,-40.8125,13.8125,21.625,0.49078369140625,0.51666259765625,0.64093017578125,-0.2852783203125,26.5,54.75,58.5,-9.06,1.38,-3.48,moving,4
6.46,1145747.533687117,29,3,3,3,0,-17.98,3.99,-7.48,-8.93,2.54,-3.96,-32.8125,23.75,22.5625,0.49151611328125,0.51715087890625,0.6417236328125,-0.2813720703125,26.5,54.75,58.5,-9.04,1.44,-3.51,moving,4
6.47,1145747.533687117,29,3,3,3,0,-15.41,3.4,-5.78,-6.4,1.9,-2.21,-24.75,43.4375,27.75,0.49090576171875,0.5186767578125,0.6429443359375,-0.27685546875,26.5,54.75,58.5,-9.0,1.5,-3.57,moving,4
6.48,1145747.543808089,29,3,3,3,0,-12.91,2.76,-4.41,-3.96,1.2,-0.72,-15.0,73.375,30.125,0.4881591796875,0.521484375,0.64508056640625,-0.2713623046875,26.5,54.75,58.5,-8.95,1.55,-3.68,moving,4
6.49,1145747.543808089,29,3,3,3,0,-10.66,2.3,-3.21,-1.78,0.68,0.62,-12.25,95.125,29.9375,0.48406982421875,0.52484130859375,0.64801025390625,-0.26507568359375,28.0,53.375,60.5,-8.88,1.61,-3.83,moving,4
6.5,1145747.574480127,29,3,3,3,0,-6.54,1.57,-0.65,2.26,-0.08,3.33,-12.9375,104.8125,28.1875,0.4793701171875,0.5283203125,0.65142822265625,-0.25836181640625,28.0,53.375,60.5,-8.8,1.66,-3.99,moving,4
6.52,1145747.574480127,29,3,3,3,0,-4.59,1.29,0.04,4.1,-0.41,4.22,-16.0,124.25,24.5625,0.47357177734375,0.53179931640625,0.65582275390625,-0.25067138671875,28.0,53.375,60.5,-8.7,1.71,-4.17,moving,4
6.52,1145747.580010848,29,3,3,3,0,-3.24,0.86,0.1,5.34,-0.89,4.49,-20.1875,142.125,21.8125,0.46685791015625,0.5352783203125,0.6610107421875,-0.24200439453125,28.0,53.375,60.5,-8.59,1.76,-4.38,moving,4
6.53,1145747.580010848,29,3,3,3,0,-0.27,-0.48,0.77,8.2,-2.29,5.36,-21.9375,144.4375,18.125,0.45989990234375,0.53839111328125,0.66650390625,-0.2332763671875,28.0,53.375,60.5,-8.47,1.8,-4.59,moving,4
6.54,1145747.587687361,29,3,3,3,0,-0.27,-0.48,0.77,8.2,-2.29,5.36,-21.9375,144.4375,18.125,0.45989990234375,0.53839111328125,0.66650390625,-0.2332763671875,28.0,53.375,60.5,-8.47,1.8,-4.59,moving,4
6.55,1145747.587687361,29,3,3,3,0,1.07,-0.7,0.76,9.43,-2.54,5.56,-17.4375,142.8125,16.1875,0.45269775390625,0.54150390625,0.6717529296875,-0.224853515625,26.6875,52.25,61.1875,-8.35,1.84,-4.79,moving,4
6.55,1145747.603255639,29,3,3,3,0,2.21,-0.93,1.08,10.44,-2.8,6.07,-9.8125,136.0625,14.0,0.4454345703125,0.5445556640625,0.67657470703125,-0.21734619140625,26.6875,52.25,61.1875,-8.23,1.87,-4.98,moving,4
6.56,1145747.603255639,29,3,3,3,0,3.17,-0.88,1.05,11.28,-2.78,6.23,-1.6875,137.5625,11.625,0.4376220703125,0.54779052734375,0.68133544921875,-0.210205078125,26.6875,52.25,61.1875,-8.1,1.89,-5.18,moving,4
6.57,1145747.635183292,29,3,3,3,0,4.94,-0.63,1.62,12.92,-2.53,7.0,2.25,134.5625,10.4375,0.4296875,0.5509033203125,0.6859130859375,-0.20355224609375,26.6875,52.25,61.1875,-7.97,1.9,-5.37,moving,4
6.58,1145747.635183292,29,3,3,3,0,5.44,-0.31,2.45,13.3,-2.23,7.98,5.3125,112.6875,10.5625,0.4228515625,0.5537109375,0.68951416015625,-0.197998046875,26.6875,52.25,61.1875,-7.86,1.91,-5.53,moving,4
6.59,1145747.649421004,29,3,3,3,0,5.75,-0.41,3.91,13.56,-2.33,9.52,10.8125,59.625,9.5,0.41888427734375,0.5556640625,0.6910400390625,-0.1954345703125,26.0625,50.875,64.375,-7.8,1.91,-5.61,moving,4
6.61,1145747.649421004,29,3,3,3,0,6.22,-0.95,6.0,14.04,-2.86,11.61,16.4375,-8.0,-0.1875,0.4185791015625,0.55615234375,0.6904296875,-0.19683837890625,26.0625,50.875,64.375,-7.81,1.9,-5.6,moving,4
6.62,1145747.663652938,29,3,3,3,0,7.35,-0.87,8.25,15.21,-2.74,13.8,20.6875,-47.375,-12.875,0.42022705078125,0.5552978515625,0.68896484375,-0.20086669921875,26.0625,50.875,64.375,-7.86,1.86,-5.55,moving,4
6.62,1145747.663652938,29,3,3,3,0,6.71,-0.72,7.77,14.64,-2.53,13.25,14.625,-56.75,-25.25,0.4224853515625,0.55328369140625,0.6878662109375,-0.2054443359375,26.0625,50.875,64.375,-7.92,1.81,-5.47,moving,4
6.63,1145747.694204777,29,3,3,3,0,3.92,0.1,6.05,11.91,-1.66,11.45,6.1875,-55.625,-28.0625,0.425048828125,0.55084228515625,0.68701171875,-0.20953369140625,26.0625,50.875,64.375,-7.99,1.76,-5.4,moving,4
6.64,1145747.694204777,29,3,3,3,0,0.7,0.85,4.0,8.76,-0.88,9.31,-4.4375,-64.4375,-21.25,0.4287109375,0.5482177734375,0.68572998046875,-0.213134765625,25.25,51.5625,67.0625,-8.05,1.74,-5.31,moving,4
6.65,1145747.708708032,29,3,3,3,0,-1.8,1.18,0.69,6.33,-0.54,5.87,-12.75,-85.1875,-17.875,0.43414306640625,0.5450439453125,0.68359375,-0.21710205078125,25.25,51.5625,67.0625,-8.14,1.72,-5.18,moving,4
6.66,1145747.708708032,29,3,3,3,0,-1.68,1.48,-1.13,6.56,-0.24,3.88,-22.5625,-107.625,-12.125,0.44140625,0.5413818359375,0.68048095703125,-0.22137451171875,25.25,51.5625,67.0625,-8.24,1.73,-5.02,moving,4
6.67,1145747.770879256,29,3,3,3,0,-1.41,2.02,-1.41,6.94,0.26,3.39,-42.25,-142.5,-5.875,0.45172119140625,0.53662109375,0.676025390625,-0.22576904296875,25.25,51.5625,67.0625,-8.36,1.76,-4.8,moving,4
6.69,1145747.770879256,29,3,3,3,0,-2.28,2.67,-2.45,6.2,0.86,2.1,-65.9375,-152.875,-0.5625,0.4637451171875,0.53094482421875,0.6712646484375,-0.22906494140625,25.25,51.5625,67.0625,-8.49,1.81,-4.55,moving,4
6.7,1145747.778555322,29,3,3,3,0,-4.97,3.25,-3.32,3.62,1.35,0.99,-92.9375,-138.1875,6.6875,0.47625732421875,0.52471923828125,0.6671142578125,-0.229736328125,25.25,51.875,65.0625,-8.59,1.89,-4.32,moving,4
6.7,1145747.778555322,29,3,3,3,0,-7.88,3.86,-5.02,0.78,1.86,-0.89,-114.5,-99.4375,13.75,0.487548828125,0.51873779296875,0.66461181640625,-0.22705078125,25.25,51.875,65.0625,-8.66,2.0,-4.13,moving,4
6.71,1145747.798516341,29,3,3,3,0,-10.99,4.17,-16.23,-2.33,2.11,-12.12,-53.375,-0.4375,14.1875,0.490234375,0.51727294921875,0.66497802734375,-0.22332763671875,25.25,51.875,65.0625,-8.65,2.06,-4.11,moving,4
6.72,1145747.798516341,29,3,3,3,0,-12.83,4.54,-11.17,-4.18,2.51,-7.03,85.0625,-0.875,20.6875,0.48687744140625,0.5220947265625,0.662353515625,-0.2274169921875,25.25,51.875,65.0625,-8.65,2.03,-4.14,moving,4
6.73,1145747.803505273,29,3,3,3,0,-14.69,3.74,-3.13,-6.01,1.72,0.95,53.0625,-49.0625,19.5,0.4876708984375,0.52447509765625,0.65826416015625,-0.23187255859375,25.25,51.875,65.0625,-8.68,2.02,-4.08,moving,4
6.74,1145747.803505273,29,3,3,3,0,-21.31,3.19,-3.35,-12.59,1.2,0.65,56.875,-60.6875,5.25,0.4886474609375,0.5260009765625,0.654296875,-0.2376708984375,26.0,51.5625,64.1875,-8.72,1.99,-4.01,moving,4
6.75,1145747.813192,29,3,3,3,0,-24.13,3.13,-6.35,-15.35,1.19,-2.43,64.4375,-78.125,-6.5,0.49005126953125,0.5267333984375,0.64990234375,-0.24517822265625,26.0,51.5625,64.1875,-8.77,1.93,-3.91,moving,4
6.76,1145747.813192,29,3,3,3,0,-24.08,0.19,-10.14,-15.21,-1.7,-6.41,24.6875,-124.75,-12.4375,0.49566650390625,0.52435302734375,0.64453125,-0.25286865234375,26.0,51.5625,64.1875,-8.86,1.9,-3.73,moving,4
6.78,1145747.828370548,29,3,3,3,0,-26.37,1.56,-12.85,-17.4,-0.31,-9.39,0.75,-172.0625,-10.75,0.5050048828125,0.5198974609375,0.63751220703125,-0.26123046875,26.0,51.5625,64.1875,-8.97,1.88,-3.46,moving,4
6.78,1145747.828370548,29,3,3,3,0,-28.91,2.97,-13.34,-19.85,1.12,-10.1,24.75,-144.875,-9.25,0.51171875,0.51715087890625,0.63092041015625,-0.26953125,26.0,51.5625,64.1875,-9.06,1.85,-3.24,moving,4
6.79,1145747.883966129,29,3,3,3,0,-31.94,3.37,-10.02,-22.82,1.56,-6.89,51.9375,-78.75,-11.6875,0.513427734375,0.5169677734375,0.62664794921875,-0.2764892578125,26.0,53.6875,61.5,-9.11,1.8,-3.13,moving,4
6.8,1145747.883966129,29,3,3,3,0,-31.94,3.37,-10.02,-22.82,1.56,-6.89,51.9375,-78.75,-11.6875,0.513427734375,0.5169677734375,0.62664794921875,-0.2764892578125,26.0,53.6875,61.5,-9.11,1.8,-3.13,moving,4
6.81,1145747.889264713,29,3,3,3,0,-33.76,4.13,-9.93,-24.61,2.37,-6.87,43.0625,-58.5625,-13.0625,0.51434326171875,0.5167236328125,0.62359619140625,-0.28204345703125,26.0,53.6875,61.5,-9.14,1.76,-3.05,moving,4
6.81,1145747.889264713,29,3,3,3,0,-30.08,4.09,-10.55,-20.9,2.35,-7.56,25.9375,-46.1875,-7.875,0.5155029296875,0.51629638671875,0.6212158203125,-0.28594970703125,26.0,53.6875,61.5,-9.17,1.73,-2.99,moving,4
6.82,1145747.893956771,29,3,3,3,0,-24.99,3.53,-8.42,-15.82,1.8,-5.43,19.25,-2.3125,2.25,0.51483154296875,0.51727294921875,0.62054443359375,-0.2869873046875,26.0,53.6875,61.5,-9.17,1.73,-2.99,moving,4
6.83,1145747.893956771,29,3,3,3,0,-21.05,3.36,-7.19,-11.89,1.62,-4.15,1.6875,23.875,6.75,0.51361083984375,0.518310546875,0.6212158203125,-0.28570556640625,26.0,53.6875,61.5,-9.16,1.74,-3.03,moving,4
6.84,1145747.903532007,29,3,3,3,0,-15.13,2.87,-4.85,-5.99,1.11,-1.77,-10.4375,28.5625,8.9375,0.51275634765625,0.51898193359375,0.62237548828125,-0.283447265625,27.375,54.5,57.5,-9.14,1.75,-3.07,moving,4
6.86,1145747.903532007,29,3,3,3,0,-12.93,2.81,-4.77,-3.82,1.03,-1.62,-5.9375,48.5,8.5625,0.5106201171875,0.5203857421875,0.62432861328125,-0.280517578125,27.375,54.5,57.5,-9.11,1.77,-3.14,moving,4
6.87,1145747.93298973,29,3,3,3,0,-11.61,2.46,-4.63,-2.55,0.66,-1.35,-9.1875,86.5625,11.5,0.506591796875,0.522705078125,0.62786865234375,-0.27557373046875,27.375,54.5,57.5,-9.06,1.79,-3.28,moving,4
6.87,1145747.93298973,29,3,3,3,0,-7.65,2.16,-2.51,1.33,0.32,0.94,-21.5,113.25,12.9375,0.50164794921875,0.525146484375,0.63275146484375,-0.2686767578125,27.375,54.5,57.5,-8.99,1.83,-3.45,moving,4
6.88,1145747.938143457,29,3,3,3,0,-5.99,1.39,-1.39,2.91,-0.47,2.24,-27.9375,127.125,10.875,0.49615478515625,0.5274658203125,0.638427734375,-0.26080322265625,27.375,54.5,57.5,-8.91,1.86,-3.64,moving,4
6.89,1145747.938143457,29,3,3,3,0,-4.62,0.91,-0.63,4.19,-0.99,3.2,-35.0625,137.125,15.875,0.490478515625,0.5299072265625,0.64434814453125,-0.25189208984375,28.5,53.6875,58.25,-8.81,1.91,-3.84,moving,4
6.9,1145747.962918563,29,3,3,3,0,-3.95,0.51,-0.02,4.76,-1.45,4.01,-37.5625,136.1875,22.1875,0.4849853515625,0.532470703125,0.64996337890625,-0.24249267578125,28.5,53.6875,58.25,-8.71,1.97,-4.03,moving,4
6.91,1145747.962918563,29,3,3,3,0,-2.47,0.81,0.77,6.13,-1.22,4.99,-38.0,126.875,25.125,0.4801025390625,0.53497314453125,0.6549072265625,-0.2333984375,28.5,53.6875,58.25,-8.61,2.03,-4.21,moving,4
6.92,1145747.979315291,29,3,3,3,0,-0.79,0.89,1.01,7.72,-1.18,5.39,-31.25,116.5625,13.4375,0.47515869140625,0.5367431640625,0.65972900390625,-0.2255859375,28.5,53.6875,58.25,-8.52,2.08,-4.38,moving,4
6.94,1145747.979315291,29,3,3,3,0,1.7,0.82,1.51,10.14,-1.27,6.05,-17.0625,111.125,-2.3125,0.469482421875,0.53802490234375,0.664794921875,-0.219482421875,28.5,53.6875,58.25,-8.43,2.09,-4.53,moving,4
6.95,1145747.995011011,29,3,3,3,0,4.04,0.93,1.53,12.39,-1.13,6.23,5.1875,109.5,-13.0625,0.462646484375,0.53955078125,0.66973876953125,-0.2152099609375,26.5625,51.875,62.5,-8.35,2.06,-4.7,moving,4
6.95,1145747.995011011,29,3,3,3,0,6.44,1.78,0.78,14.72,-0.22,5.62,37.5,86.0,-16.75,0.45550537109375,0.54168701171875,0.67327880859375,-0.2139892578125,26.5625,51.875,62.5,-8.28,2.01,-4.83,moving,4
6.96,1145748.024513981,29,3,3,3,0,6.95,0.75,1.09,15.21,-1.17,6.02,57.0,45.6875,-23.0,0.44970703125,0.54345703125,0.67510986328125,-0.21612548828125,26.5625,51.875,62.5,-8.25,1.93,-4.92,moving,4
6.97,1145748.024513981,29,3,3,3,0,6.63,-0.69,2.31,14.87,-2.54,7.3,44.8125,33.9375,-30.375,0.44500732421875,0.5440673828125,0.677001953125,-0.21832275390625,26.5625,51.875,62.5,-8.23,1.84,-4.98,moving,4
6.98,1145748.054246484,29,3,3,3,0,6.64,-2.31,4.58,14.86,-4.09,9.63,37.6875,32.5,-26.0,0.4407958984375,0.5445556640625,0.67877197265625,-0.22003173828125,26.5625,51.875,62.5,-8.21,1.77,-5.04,moving,4
6.99,1145748.054246484,29,3,3,3,0,2.98,-1.81,5.23,11.16,-3.54,10.35,37.5625,43.8125,-14.5,0.43609619140625,0.5460205078125,0.680419921875,-0.22076416015625,25.1875,51.5625,64.875,-8.18,1.72,-5.12,moving,4
7.01,1145748.059186019,29,3,3,3,0,1.35,-0.6,4.5,9.52,-2.28,9.64,37.625,10.9375,-9.5625,0.4334716796875,0.54705810546875,0.6805419921875,-0.22283935546875,25.1875,51.5625,64.875,-8.17,1.67,-5.14,moving,4
7.02,1145748.059186019,29,3,3,3,0,0.37,0.7,3.05,8.6,-0.94,8.13,24.0,-50.1875,-5.0625,0.43524169921875,0.54669189453125,0.67840576171875,-0.226806640625,25.1875,51.5625,64.875,-8.22,1.64,-5.08,moving,4
7.03,1145748.099578719,29,3,3,3,0,0.09,1.35,1.88,8.39,-0.29,6.83,-1.1875,-96.125,-2.375,0.44091796875,0.5445556640625,0.67486572265625,-0.2314453125,25.1875,51.5625,64.875,-8.3,1.64,-4.94,moving,4
7.03,1145748.099578719,29,3,3,3,0,-0.5,1.04,0.67,7.89,-0.62,5.44,-25.0625,-110.6875,-2.5625,0.4486083984375,0.54119873046875,0.67120361328125,-0.23529052734375,25.1875,51.5625,64.875,-8.4,1.66,-4.77,moving,4
7.04,1145748.106808984,29,3,3,3,0,-0.91,0.9,-0.32,7.57,-0.78,4.28,-43.375,-100.1875,-4.875,0.4564208984375,0.537109375,0.6683349609375,-0.2376708984375,24.6875,52.6875,65.5625,-8.48,1.69,-4.61,moving,4
7.05,1145748.106808984,29,3,3,3,0,-1.2,0.92,-0.9,7.35,-0.8,3.55,-57.625,-89.625,-7.0625,0.46417236328125,0.53253173828125,0.666259765625,-0.23876953125,24.6875,52.6875,65.5625,-8.55,1.72,-4.46,moving,4
7.06,1145748.114573389,29,3,3,3,0,-1.2,0.92,-0.9,7.35,-0.8,3.55,-57.625,-89.625,-7.0625,0.46417236328125,0.53253173828125,0.666259765625,-0.23876953125,24.6875,52.6875,65.5625,-8.55,1.72,-4.46,moving,4
7.06,1145748.114573389,29,3,3,3,0,-2.45,0.85,-1.7,6.16,-0.91,2.62,-70.0,-75.75,-11.1875,0.4715576171875,0.5274658203125,0.6651611328125,-0.23870849609375,24.6875,52.6875,65.5625,-8.62,1.76,-4.32,moving,4
7.07,1145748.129188501,29,3,3,3,0,-3.07,0.73,-2.63,5.58,-1.06,1.59,-78.5625,-48.125,-12.6875,0.47772216796875,0.5224609375,0.66534423828125,-0.23687744140625,24.6875,52.6875,65.5625,-8.66,1.8,-4.22,moving,4
7.09,1145748.129188501,29,3,3,3,0,-4.08,0.2,-5.08,4.59,-1.62,-0.9,-62.6875,-18.8125,-11.8125,0.4814453125,0.51873779296875,0.6663818359375,-0.23455810546875,24.6875,52.6875,65.5625,-8.67,1.83,-4.18,moving,4
7.1,1145748.160645369,29,3,3,3,0,-5.02,0.69,-11.05,3.61,-1.11,-6.77,20.6875,64.0625,-5.625,0.4766845703125,0.52056884765625,0.66888427734375,-0.23309326171875,25.875,53.0,63.1875,-8.63,1.8,-4.28,moving,4
7.11,1145748.160645369,29,3,3,3,0,-6.8,1.99,-11.54,1.77,0.25,-7.12,88.3125,72.125,1.375,0.46844482421875,0.5257568359375,0.66998291015625,-0.23492431640625,25.875,53.0,63.1875,-8.57,1.74,-4.42,moving,4
7.12,1145748.175076847,29,3,3,3,0,-7.73,1.68,-4.34,0.87,0.0,0.04,67.25,-33.125,-8.75,0.46710205078125,0.52734375,0.66766357421875,-0.24072265625,25.875,53.0,63.1875,-8.6,1.67,-4.39,moving,4
7.12,1145748.175076847,29,3,3,3,0,-9.55,1.48,-1.45,-0.88,-0.12,2.83,33.375,-71.5,-25.3125,0.46917724609375,0.52569580078125,0.66522216796875,-0.24700927734375,25.875,53.0,63.1875,-8.66,1.61,-4.29,moving,4
7.13,1145748.187880802,29,3,3,3,0,-12.24,2.17,-4.5,-3.52,0.64,-0.28,39.375,-52.625,-38.875,0.4696044921875,0.52392578125,0.6639404296875,-0.2532958984375,25.875,53.0,63.1875,-8.71,1.52,-4.22,moving,4
7.14,1145748.187880802,29,3,3,3,0,-20.31,2.55,-9.59,-11.49,1.11,-5.56,22.0,-126.8125,-46.875,0.474853515625,0.519287109375,0.660400390625,-0.26226806640625,24.6875,53.375,64.375,-8.82,1.43,-4.03,moving,4
7.15,1145748.219264551,29,3,3,3,0,-27.73,3.24,-10.22,-18.75,1.86,-6.53,-24.4375,-218.0,-49.0,0.4873046875,0.51031494140625,0.65399169921875,-0.272705078125,24.6875,53.375,64.375,-8.98,1.38,-3.69,moving,4
7.17,1145748.219264551,29,3,3,3,0,-37.21,3.54,-13.52,-28.1,2.18,-10.15,-62.375,-193.875,-40.4375,0.5001220703125,0.50067138671875,0.64892578125,-0.2794189453125,24.6875,53.375,64.375,-9.1,1.35,-3.36,moving,4
7.18,1145748.233175114,29,3,3,3,0,-39.41,2.93,-13.25,-30.27,1.58,-9.94,-30.9375,-36.25,-10.75,0.50323486328125,0.497802734375,0.6485595703125,-0.27972412109375,24.6875,53.375,64.375,-9.13,1.35,-3.3,moving,4
7.19,1145748.233175114,29,3,3,3,0,-28.3,5.4,-5.3,-19.22,4.03,-1.87,9.0625,81.8125,15.125,0.49859619140625,0.50103759765625,0.6512451171875,-0.2760009765625,24.6875,53.375,64.375,-9.08,1.37,-3.43,moving,4
7.2,1145748.248394881,29,3,3,3,0,-27.32,6.18,-5.03,-18.27,4.77,-1.51,5.1875,50.8125,21.4375,0.4959716796875,0.50372314453125,0.65240478515625,-0.273193359375,25.0625,55.875,62.0,-9.04,1.4,-3.51,moving,4
7.2,1145748.248394881,29,3,3,3,0,-24.33,6.6,-7.66,-15.29,5.16,-4.16,-2.625,-9.9375,20.625,0.4971923828125,0.5045166015625,0.651123046875,-0.2725830078125,25.0625,55.875,62.0,-9.04,1.43,-3.5,moving,4
7.21,1145748.278346501,29,3,3,3,0,-23.37,4.82,-9.47,-14.3,3.34,-6.06,-16.75,-54.5625,16.9375,0.50140380859375,0.50347900390625,0.64837646484375,-0.27325439453125,25.0625,55.875,62.0,-9.07,1.47,-3.41,moving,4
7.22,1145748.278346501,29,3,3,3,0,-22.19,3.48,-9.81,-13.1,1.98,-6.48,-12.5625,-44.625,13.125,0.50482177734375,0.5025634765625,0.64617919921875,-0.27392578125,25.0625,55.875,62.0,-9.09,1.5,-3.33,moving,4
7.24,1145748.293396346,29,3,3,3,0,-20.39,2.55,-8.78,-11.3,1.04,-5.44,8.4375,4.875,12.0625,0.50445556640625,0.5037841796875,0.6456298828125,-0.273681640625,25.0625,55.875,62.0,-9.09,1.51,-3.34,moving,4
7.25,1145748.293396346,29,3,3,3,0,-18.69,2.27,-7.12,-9.63,0.75,-3.71,25.625,37.6875,12.0625,0.50152587890625,0.5064697265625,0.6461181640625,-0.27294921875,25.0625,55.1875,61.25,-9.06,1.52,-3.41,moving,4
7.26,1145748.308152734,29,3,3,3,0,-15.03,1.31,-4.85,-5.99,-0.2,-1.35,27.3125,48.5,11.5,0.497802734375,0.50946044921875,0.6470947265625,-0.2718505859375,25.0625,55.1875,61.25,-9.03,1.52,-3.49,moving,4
7.27,1145748.308152734,29,3,3,3,0,-13.18,0.85,-4.09,-4.19,-0.67,-0.49,21.9375,57.75,10.1875,0.49383544921875,0.5123291015625,0.64862060546875,-0.27008056640625,25.0625,55.1875,61.25,-8.99,1.52,-3.59,moving,4
7.28,1145748.337847599,29,3,3,3,0,-11.56,0.52,-3.22,-2.61,-1.0,0.48,15.0,69.5,8.5,0.48944091796875,0.51507568359375,0.65087890625,-0.2674560546875,25.0625,55.1875,61.25,-8.94,1.53,-3.7,moving,4
7.28,1145748.337847599,29,3,3,3,0,-9.9,0.43,-2.31,-1.01,-1.09,1.52,9.375,84.125,8.625,0.48443603515625,0.5179443359375,0.65380859375,-0.2637939453125,25.0625,55.1875,61.25,-8.89,1.53,-3.83,moving,4
7.29,1145748.352986353,29,3,3,3,0,-6.94,0.39,-0.91,1.87,-1.15,3.07,5.4375,96.75,8.125,0.47882080078125,0.52081298828125,0.6573486328125,-0.2593994140625,25.875,54.0625,60.75,-8.82,1.54,-3.98,moving,4
7.3,1145748.352986353,29,3,3,3,0,-5.55,0.26,-0.33,3.18,-1.29,3.82,-2.6875,109.6875,7.25,0.47283935546875,0.52362060546875,0.66168212890625,-0.25396728515625,25.875,54.0625,60.75,-8.74,1.55,-4.15,moving,4
7.32,1145748.383889632,29,3,3,3,0,-4.25,-0.02,0.15,4.39,-1.6,4.49,-10.625,125.0625,5.5625,0.4661865234375,0.52618408203125,0.666748046875,-0.24737548828125,25.875,54.0625,60.75,-8.64,1.57,-4.34,moving,4
7.32,1145748.383889632,29,3,3,3,0,-4.25,-0.02,0.15,4.39,-1.6,4.49,-10.625,125.0625,5.5625,0.4661865234375,0.52618408203125,0.666748046875,-0.24737548828125,25.875,54.0625,60.75,-8.64,1.57,-4.34,moving,4
7.33,1145748.388750024,29,3,3,3,0,-2.93,-0.41,0.47,5.6,-2.0,5.01,-14.4375,134.375,3.75,0.4591064453125,0.5286865234375,0.67230224609375,-0.240234375,25.875,54.0625,60.75,-8.54,1.59,-4.54,moving,4
7.34,1145748.388750024,29,3,3,3,0,-0.59,-1.06,0.91,7.83,-2.67,5.65,-16.8125,134.4375,3.3125,0.4520263671875,0.531005859375,0.6778564453125,-0.23291015625,25.875,54.0625,60.75,-8.43,1.61,-4.73,moving,4
7.35,1145748.416755518,29,3,3,3,0,0.89,-1.27,0.77,9.21,-2.9,5.7,-14.9375,134.75,4.8125,0.44482421875,0.53338623046875,0.68316650390625,-0.2255859375,25.5,54.0625,63.0625,-8.32,1.63,-4.92,moving,4
7.36,1145748.416755518,29,3,3,3,0,2.64,-1.19,0.32,10.84,-2.83,5.45,-9.1875,138.375,3.9375,0.43707275390625,0.53594970703125,0.6884765625,-0.21844482421875,25.5,54.0625,63.0625,-8.19,1.64,-5.12,moving,4
7.37,1145748.422290715,29,3,3,3,0,4.46,-0.95,0.36,12.54,-2.61,5.67,-8.4375,136.125,4.375,0.42938232421875,0.53839111328125,0.693603515625,-0.21142578125,25.5,54.0625,63.0625,-8.07,1.65,-5.31,moving,4
7.37,1145748.422290715,29,3,3,3,0,4.91,-0.99,1.23,12.88,-2.66,6.69,-1.75,109.1875,7.6875,0.4229736328125,0.540771484375,0.69732666015625,-0.20587158203125,25.5,54.0625,63.0625,-7.96,1.67,-5.46,moving,4
7.38,1145748.444532983,29,3,3,3,0,5.48,-1.16,1.94,13.38,-2.82,7.5,9.5,72.25,5.3125,0.418212890625,0.542724609375,0.69952392578125,-0.202880859375,25.5,54.0625,63.0625,-7.89,1.66,-5.56,moving,4
7.39,1145748.444532983,29,3,3,3,0,5.77,-1.05,2.83,13.64,-2.7,8.44,18.75,25.375,2.25,0.41583251953125,0.54400634765625,0.70001220703125,-0.2027587890625,24.0,53.0,65.0625,-7.87,1.65,-5.6,moving,4
7.41,1145748.459859277,29,3,3,3,0,6.32,-0.51,4.64,14.22,-2.14,10.21,22.4375,-27.4375,-1.4375,0.41644287109375,0.54425048828125,0.69866943359375,-0.20550537109375,24.0,53.0,65.0625,-7.9,1.62,-5.57,moving,4
7.42,1145748.459859277,29,3,3,3,0,6.29,-0.42,5.2,14.26,-2.01,10.69,18.75,-66.9375,-11.25,0.41943359375,0.54302978515625,0.6964111328125,-0.210205078125,24.0,53.0,65.0625,-7.96,1.59,-5.48,moving,4
7.43,1145748.489583154,29,3,3,3,0,4.87,-0.17,4.88,12.92,-1.73,10.25,11.1875,-85.5,-16.875,0.42376708984375,0.54083251953125,0.69390869140625,-0.215576171875,24.0,53.0,65.0625,-8.05,1.56,-5.37,moving,4
7.44,1145748.489583154,29,3,3,3,0,2.52,0.64,3.98,10.65,-0.89,9.24,1.25,-74.125,-12.75,0.42791748046875,0.5386962890625,0.69171142578125,-0.21966552734375,24.0,53.0,65.0625,-8.12,1.54,-5.26,moving,4
7.45,1145748.503938013,29,3,3,3,0,-0.61,0.86,1.64,7.57,-0.66,6.81,-0.75,-67.875,-11.625,0.431884765625,0.53662109375,0.689697265625,-0.22320556640625,23.6875,52.25,67.0,-8.19,1.52,-5.17,moving,4
7.45,1145748.503938013,29,3,3,3,0,-0.91,1.19,0.68,7.34,-0.3,5.75,2.4375,-71.8125,-15.125,0.435791015625,0.53436279296875,0.6876220703125,-0.227294921875,23.6875,52.25,67.0,-8.25,1.5,-5.06,moving,4
7.46,1145748.517899927,29,3,3,3,0,-0.84,1.43,-0.18,7.49,-0.02,4.76,5.875,-80.6875,-19.1875,0.43994140625,0.5318603515625,0.68536376953125,-0.232177734375,23.6875,52.25,67.0,-8.33,1.46,-4.95,moving,4
7.47,1145748.517899927,29,3,3,3,0,-0.78,1.66,-1.03,7.62,0.23,3.78,7.0,-89.5625,-21.0,0.444580078125,0.52899169921875,0.68267822265625,-0.237548828125,23.6875,52.25,67.0,-8.41,1.43,-4.82,moving,4
7.49,1145748.54897797,29,3,3,3,0,-1.31,2.54,-2.32,7.19,1.15,2.36,0.3125,-95.8125,-23.0625,0.44976806640625,0.525634765625,0.67999267578125,-0.24285888671875,23.6875,52.25,67.0,-8.5,1.39,-4.68,moving,4
7.5,1145748.54897797,29,3,3,3,0,-2.29,3.17,-2.43,6.29,1.79,2.1,-18.125,-95.1875,-21.5625,0.455810546875,0.5216064453125,0.6776123046875,-0.24700927734375,22.875,53.0,64.6875,-8.58,1.38,-4.53,moving,4
7.51,1145748.562794417,29,3,3,3,0,-3.54,3.69,-2.82,5.11,2.31,1.56,-33.25,-92.1875,-16.8125,0.46240234375,0.51727294921875,0.6754150390625,-0.2498779296875,22.875,53.0,64.6875,-8.66,1.38,-4.38,moving,4
7.52,1145748.562794417,29,3,3,3,0,-5.3,4.35,-3.24,3.42,2.96,0.99,-42.125,-89.9375,-16.375,0.46923828125,0.51263427734375,0.67340087890625,-0.25213623046875,22.875,53.0,64.6875,-8.73,1.38,-4.24,moving,4
7.53,1145748.576851546,29,3,3,3,0,-13.47,4.6,-5.91,-4.68,3.2,-1.8,-53.125,-77.75,-18.5625,0.47576904296875,0.50762939453125,0.67218017578125,-0.25323486328125,22.875,53.0,64.6875,-8.79,1.39,-4.1,moving,4
7.53,1145748.576851546,29,3,3,3,0,-23.61,2.18,-20.44,-14.74,0.82,-16.49,-25.375,-97.25,-34.75,0.4818115234375,0.50238037109375,0.67022705078125,-0.2574462890625,22.875,53.0,64.6875,-8.87,1.36,-3.95,moving,4
7.54,1145748.609438705,29,3,3,3,0,-30.81,4.32,-20.25,-21.79,3.08,-16.61,83.625,-213.0625,-44.625,0.489501953125,0.4984130859375,0.66119384765625,-0.27349853515625,22.75,54.0625,65.875,-9.02,1.23,-3.63,moving,4
7.55,1145748.609438705,29,3,3,3,0,-30.57,-0.77,-7.44,-21.48,-1.97,-3.95,22.8125,-95.1875,-14.875,0.49365234375,0.4962158203125,0.6572265625,-0.27960205078125,22.75,54.0625,65.875,-9.08,1.2,-3.49,moving,4
7.57,1145748.623997176,29,3,3,3,0,-32.06,0.42,-12.71,-22.98,-0.75,-9.21,17.5,1.75,-1.875,0.49273681640625,0.49688720703125,0.65692138671875,-0.28057861328125,22.75,54.0625,65.875,-9.08,1.18,-3.5,moving,4
7.58,1145748.623997176,29,3,3,3,0,-33.78,2.33,-11.65,-24.67,1.15,-8.22,21.4375,-45.625,9.5,0.49462890625,0.49725341796875,0.654052734375,-0.28338623046875,22.75,54.0625,65.875,-9.1,1.18,-3.43,moving,4
7.58,1145748.653786483,29,3,3,3,0,-33.78,2.33,-11.65,-24.67,1.15,-8.22,21.4375,-45.625,9.5,0.49462890625,0.49725341796875,0.654052734375,-0.28338623046875,22.75,54.0625,65.875,-9.1,1.18,-3.43,moving,4
7.59,1145748.653786483,29,3,3,3,0,-38.73,2.7,-10.68,-29.56,1.48,-7.42,0.875,-109.9375,19.5625,0.5013427734375,0.49566650390625,0.64837646484375,-0.287353515625,22.75,54.0625,65.875,-9.16,1.21,-3.25,moving,4
7.6,1145748.659014185,29,3,3,3,0,-32.02,4.4,-12.23,-22.82,3.14,-9.09,-0.0625,-74.125,21.25,0.50604248046875,0.4949951171875,0.64422607421875,-0.28961181640625,23.1875,57.0,62.6875,-9.2,1.25,-3.13,moving,4
7.61,1145748.659014185,29,3,3,3,0,-26.75,2.77,-10.16,-17.55,1.5,-7.01,10.125,6.5625,11.125,0.50555419921875,0.4962158203125,0.64373779296875,-0.2894287109375,23.1875,57.0,62.6875,-9.19,1.26,-3.15,moving,4
7.62,1145748.699517603,29,3,3,3,0,-23.63,2.91,-10.25,-14.46,1.66,-7.02,20.875,44.1875,2.5,0.502197265625,0.4984130859375,0.64508056640625,-0.28857421875,23.1875,57.0,62.6875,-9.17,1.25,-3.22,moving,4
7.62,1145748.699517603,29,3,3,3,0,-19.94,1.61,-7.93,-10.8,0.36,-4.62,11.25,52.0,1.75,0.49884033203125,0.50030517578125,0.64697265625,-0.286865234375,23.1875,57.0,62.6875,-9.14,1.25,-3.31,moving,4
7.64,1145748.705194076,29,3,3,3,0,-16.29,1.18,-7.28,-7.17,-0.06,-3.88,15.8125,49.0,0.75,0.495361328125,0.50225830078125,0.648681640625,-0.28558349609375,23.1875,57.0,62.6875,-9.11,1.24,-3.39,moving,4
7.65,1145748.705194076,29,3,3,3,0,-14.23,0.95,-6.04,-5.15,-0.28,-2.55,18.4375,58.5625,0.5,0.49127197265625,0.5045166015625,0.6507568359375,-0.2840576171875,25.0,55.875,61.375,-9.08,1.23,-3.49,moving,4
7.66,1145748.713684961,29,3,3,3,0,-12.0,1.54,-4.82,-2.97,0.32,-1.2,24.6875,76.375,0.75,0.48583984375,0.50750732421875,0.6533203125,-0.28204345703125,25.0,55.875,61.375,-9.03,1.22,-3.61,moving,4
7.67,1145748.713684961,29,3,3,3,0,-10.49,1.86,-4.03,-1.51,0.65,-0.25,24.5625,94.25,5.25,0.4794921875,0.5111083984375,0.656494140625,-0.279052734375,25.0,55.875,61.375,-8.97,1.21,-3.77,moving,4
7.68,1145748.727846379,29,3,3,3,0,-7.0,2.33,-2.28,1.89,1.11,1.65,10.1875,104.375,10.5625,0.4732666015625,0.51470947265625,0.66009521484375,-0.2745361328125,25.0,55.875,61.375,-8.89,1.22,-3.93,moving,4
7.69,1145748.727846379,29,3,3,3,0,-5.69,2.2,-2.16,3.12,0.96,1.94,-2.625,111.125,13.5,0.46728515625,0.51800537109375,0.66412353515625,-0.268798828125,25.0,55.875,61.375,-8.81,1.24,-4.1,moving,4
7.7,1145748.758777735,29,3,3,3,0,-4.75,1.68,-2.2,3.97,0.4,2.07,-16.4375,114.0,17.875,0.46185302734375,0.52099609375,0.6683349609375,-0.261962890625,25.0,55.5625,61.75,-8.73,1.28,-4.27,moving,4
7.7,1145748.758777735,29,3,3,3,0,-2.13,0.17,-1.21,6.5,-1.15,3.22,-29.5,111.625,20.9375,0.45709228515625,0.5235595703125,0.6724853515625,-0.25433349609375,25.0,55.5625,61.75,-8.64,1.33,-4.43,moving,4
7.72,1145748.788959782,29,3,3,3,0,-1.11,0.03,-0.91,7.43,-1.36,3.68,-33.125,111.3125,21.3125,0.4525146484375,0.52593994140625,0.67669677734375,-0.24639892578125,25.0,55.5625,61.75,-8.54,1.39,-4.59,moving,4
7.73,1145748.788959782,29,3,3,3,0,0.26,-0.12,-0.19,8.72,-1.57,4.55,-24.5,105.5,17.3125,0.44781494140625,0.5281982421875,0.6805419921875,-0.23944091796875,25.0,55.5625,61.75,-8.45,1.44,-4.74,moving,4
7.74,1145748.796624699,29,3,3,3,0,1.9,-0.3,0.06,10.27,-1.77,4.97,-8.4375,105.3125,14.625,0.44219970703125,0.53094482421875,0.68414306640625,-0.2335205078125,25.0,55.5625,61.75,-8.36,1.47,-4.9,moving,4
7.75,1145748.796624699,29,3,3,3,0,4.21,-0.2,0.22,12.48,-1.67,5.29,9.875,115.0625,8.8125,0.43505859375,0.5341796875,0.68792724609375,-0.2283935546875,23.5625,54.5,64.5625,-8.26,1.47,-5.07,moving,4
7.76,1145748.819825993,29,3,3,3,0,5.08,0.07,0.81,13.23,-1.38,6.06,27.5625,117.5625,6.875,0.42681884765625,0.5379638671875,0.69146728515625,-0.22430419921875,23.5625,54.5,64.5625,-8.15,1.46,-5.24,moving,4
7.77,1145748.819825993,29,3,3,3,0,5.88,0.34,1.62,13.94,-1.08,7.03,47.8125,103.875,9.75,0.41845703125,0.54229736328125,0.69390869140625,-0.221923828125,23.5625,54.5,64.5625,-8.05,1.43,-5.4,moving,4
7.78,1145748.833241846,29,3,3,3,0,6.38,0.48,2.69,14.35,-0.89,8.23,67.375,86.6875,8.3125,0.41015625,0.54693603515625,0.69537353515625,-0.22161865234375,23.5625,54.5,64.5625,-7.97,1.37,-5.54,moving,4
7.78,1145748.833241846,29,3,3,3,0,5.47,-0.62,4.79,13.38,-1.92,10.44,89.0625,65.3125,4.8125,0.40203857421875,0.5516357421875,0.6956787109375,-0.22369384765625,23.5625,54.5,64.5625,-7.9,1.29,-5.65,moving,4
7.8,1145748.847484603,29,3,3,3,0,3.86,-0.41,5.28,11.73,-1.62,11.02,93.75,44.125,2.125,0.39483642578125,0.555908203125,0.6953125,-0.2271728515625,23.5625,54.5,66.1875,-7.86,1.2,-5.73,moving,4
7.81,1145748.847484603,29,3,3,3,0,2.08,0.58,5.01,9.93,-0.57,10.78,51.125,15.875,-0.6875,0.391357421875,0.5579833984375,0.69482421875,-0.22955322265625,23.5625,54.5,66.1875,-7.84,1.15,-5.76,moving,4
7.82,1145748.878412704,29,3,3,3,0,0.81,1.19,4.12,8.69,0.04,9.84,8.0625,-34.0,-3.9375,0.3929443359375,0.55731201171875,0.6937255859375,-0.2318115234375,23.5625,54.5,66.1875,-7.88,1.14,-5.72,moving,4
7.83,1145748.878412704,29,3,3,3,0,-0.59,1.14,1.56,7.36,-0.01,7.18,-22.9375,-74.8125,-4.8125,0.39849853515625,0.5546875,0.69183349609375,-0.23419189453125,23.5625,54.5,66.1875,-7.95,1.15,-5.61,moving,4
7.84,1145748.894401758,29,3,3,3,0,-0.76,0.87,0.85,7.28,-0.31,6.33,-51.125,-90.875,-6.5625,0.40631103515625,0.5506591796875,0.69000244140625,-0.2357177734375,23.5625,54.5,66.1875,-8.04,1.19,-5.47,moving,4
7.85,1145748.894401758,29,3,3,3,0,-0.76,0.87,0.85,7.28,-0.31,6.33,-51.125,-90.875,-6.5625,0.40631103515625,0.5506591796875,0.69000244140625,-0.2357177734375,23.5625,54.5,66.1875,-8.04,1.19,-5.47,moving,4
7.85,1145748.899787989,29,3,3,3,0,-1.01,0.41,-0.07,7.12,-0.82,5.25,-62.9375,-94.9375,-7.3125,0.4149169921875,0.5460205078125,0.688232421875,-0.23675537109375,22.75,54.5,64.5,-8.13,1.24,-5.33,moving,4
7.86,1145748.899787989,29,3,3,3,0,-1.34,0.11,-1.01,6.89,-1.17,4.15,-59.4375,-102.8125,-8.0625,0.4237060546875,0.54119873046875,0.68609619140625,-0.23834228515625,22.75,54.5,64.5,-8.23,1.29,-5.17,moving,4
7.87,1145748.92530931,29,3,3,3,0,-3.78,-0.75,-2.28,4.54,-2.08,2.71,-61.1875,-109.0,-11.9375,0.432861328125,0.53594970703125,0.68389892578125,-0.24029541015625,22.75,54.5,64.5,-8.33,1.32,-4.99,moving,4
7.87,1145748.92530931,29,3,3,3,0,-5.77,-0.44,-2.97,2.64,-1.81,1.85,-67.8125,-106.875,-15.625,0.44207763671875,0.5301513671875,0.68194580078125,-0.2418212890625,22.75,54.5,64.5,-8.42,1.36,-4.82,moving,4
7.89,1145748.938193059,29,3,3,3,0,-7.87,-0.39,-3.15,0.64,-1.78,1.49,-70.875,-107.0625,-19.75,0.45123291015625,0.52398681640625,0.68017578125,-0.2432861328125,22.75,54.5,64.5,-8.52,1.39,-4.65,moving,4
7.9,1145748.938193059,29,3,3,3,0,-10.59,1.83,-12.73,-1.98,0.45,-8.22,-14.5,-98.1875,-16.875,0.4573974609375,0.520263671875,0.6773681640625,-0.24755859375,22.75,54.75,64.875,-8.6,1.37,-4.5,moving,4
7.91,1145748.969843531,29,3,3,3,0,-14.06,2.79,-10.51,-5.37,1.5,-6.16,104.0,-117.3125,-6.625,0.45941162109375,0.521484375,0.670654296875,-0.25927734375,22.75,54.75,64.875,-8.69,1.28,-4.34,moving,4
7.92,1145748.969843531,29,3,3,3,0,-17.13,3.03,-6.78,-8.35,1.81,-2.58,72.875,-111.375,-8.6875,0.46240234375,0.52130126953125,0.6649169921875,-0.2689208984375,22.75,54.75,64.875,-8.77,1.22,-4.19,moving,4
7.93,1145748.982744898,29,3,3,3,0,-18.31,4.48,-4.7,-9.44,3.3,-0.68,28.0625,-120.75,-7.5,0.4678955078125,0.5191650390625,0.65966796875,-0.27630615234375,22.75,54.75,64.875,-8.86,1.18,-4.01,moving,4
7.94,1145748.982744898,29,3,3,3,0,-23.4,2.95,-6.27,-14.46,1.78,-2.4,12.25,-98.875,-10.75,0.4727783203125,0.5166015625,0.65582275390625,-0.28192138671875,22.75,54.75,64.875,-8.93,1.16,-3.86,moving,4
7.95,1145748.999710474,29,3,3,3,0,-27.96,1.48,-6.33,-19.0,0.33,-2.53,-14.6875,-39.25,-11.125,0.47540283203125,0.514404296875,0.65509033203125,-0.2833251953125,23.1875,56.25,63.25,-8.96,1.15,-3.79,moving,4
7.95,1145748.999710474,29,3,3,3,0,-28.45,0.69,-7.8,-19.46,-0.45,-4.04,-20.875,-22.8125,-12.5625,0.47735595703125,0.51226806640625,0.65521240234375,-0.28369140625,23.1875,56.25,63.25,-8.98,1.15,-3.75,moving,4
7.97,1145749.028895899,29,3,3,3,0,-25.5,0.37,-8.99,-16.49,-0.78,-5.29,-19.0,-40.875,-4.6875,0.48040771484375,0.51019287109375,0.6541748046875,-0.28460693359375,23.1875,56.25,63.25,-9.01,1.15,-3.69,moving,4
7.98,1145749.028895899,29,3,3,3,0,-21.19,0.91,-7.88,-12.15,-0.25,-4.27,-28.3125,-47.75,0.125,0.484375,0.5078125,0.65283203125,-0.28515625,23.1875,56.25,63.25,-9.04,1.17,-3.61,moving,4
7.99,1145749.044574895,29,3,3,3,0,-19.09,1.88,-7.4,-10.03,0.7,-3.84,-20.3125,-30.3125,-3.5625,0.4869384765625,0.5059814453125,0.6522216796875,-0.28546142578125,23.1875,56.25,63.25,-9.06,1.18,-3.55,moving,4
8.0,1145749.044574895,29,3,3,3,0,-17.25,2.63,-6.49,-8.18,1.45,-2.93,-12.1875,-2.1875,-7.625,0.4874267578125,0.50494384765625,0.65277099609375,-0.28521728515625,23.5625,56.25,61.75,-9.06,1.17,-3.55,moving,4
8.01,1145749.058216618,29,3,3,3,0,-15.28,2.91,-6.53,-6.23,1.75,-2.94,-9.1875,23.5625,-8.375,0.48626708984375,0.504638671875,0.65435791015625,-0.28399658203125,23.5625,56.25,61.75,-9.05,1.16,-3.58,moving,4
8.02,1145749.058216618,29,3,3,3,0,-12.51,1.4,-4.86,-3.48,0.23,-1.23,-21.625,31.0625,-8.625,0.4852294921875,0.5040283203125,0.6566162109375,-0.28179931640625,23.5625,56.25,61.75,-9.03,1.16,-3.63,moving,4
8.03,1145749.087918075,29,3,3,3,0,-11.45,1.34,-5.15,-2.44,0.17,-1.47,-27.0,32.0625,-8.9375,0.484375,0.50311279296875,0.65899658203125,-0.27923583984375,23.5625,56.25,61.75,-9.01,1.17,-3.67,moving,4
8.04,1145749.087918075,29,3,3,3,0,-10.78,1.26,-5.22,-1.79,0.08,-1.49,-29.375,35.125,-6.5625,0.48345947265625,0.50238037109375,0.6614990234375,-0.2762451171875,23.5625,56.25,61.75,-8.99,1.17,-3.72,moving,4
8.05,1145749.102795069,29,3,3,3,0,-9.13,1.39,-4.94,-0.17,0.2,-1.14,-26.6875,49.625,-3.875,0.481689453125,0.502197265625,0.66436767578125,-0.272705078125,23.1875,56.25,61.25,-8.96,1.19,-3.79,moving,4
8.06,1145749.102795069,29,3,3,3,0,-8.21,1.32,-4.28,0.7,0.12,-0.38,-18.5625,69.125,0.375,0.478515625,0.5030517578125,0.667724609375,-0.26861572265625,23.1875,56.25,61.25,-8.91,1.2,-3.9,moving,4
8.07,1145749.117836125,29,3,3,3,0,-7.29,1.22,-3.44,1.56,0.0,0.58,-12.1875,83.75,4.3125,0.4742431640625,0.50469970703125,0.6712646484375,-0.2640380859375,23.1875,56.25,61.25,-8.85,1.21,-4.02,moving,4
8.08,1145749.117836125,29,3,3,3,0,-6.47,1.28,-2.72,2.31,0.04,1.43,-9.5625,87.0625,6.75,0.4697265625,0.5067138671875,0.6748046875,-0.25933837890625,23.1875,56.25,61.25,-8.79,1.23,-4.15,moving,4
8.09,1145749.148946802,29,3,3,3,0,-5.12,1.52,-1.88,3.61,0.26,2.39,-8.25,79.25,7.875,0.465576171875,0.50860595703125,0.6778564453125,-0.25506591796875,23.1875,56.25,61.25,-8.73,1.25,-4.27,moving,4
8.1,1145749.148946802,29,3,3,3,0,-4.5,1.48,-1.68,4.17,0.21,2.69,-6.9375,70.3125,8.5625,0.4619140625,0.5103759765625,0.68048095703125,-0.25115966796875,23.5625,56.25,63.6875,-8.67,1.27,-4.38,moving,4
8.1,1145749.154362858,29,3,3,3,0,-4.5,1.48,-1.68,4.17,0.21,2.69,-6.9375,70.3125,8.5625,0.4619140625,0.5103759765625,0.68048095703125,-0.25115966796875,23.5625,56.25,63.6875,-8.67,1.27,-4.38,moving,4
8.11,1145749.154362858,29,3,3,3,0,-3.9,1.42,-1.76,4.72,0.14,2.7,-5.5625,63.9375,8.0625,0.45855712890625,0.51202392578125,0.68280029296875,-0.2476806640625,23.5625,56.25,63.6875,-8.62,1.28,-4.47,moving,4
8.12,1145749.178486719,29,3,3,3,0,-3.38,1.45,-1.88,5.19,0.15,2.68,-3.9375,58.75,7.625,0.45538330078125,0.51361083984375,0.68487548828125,-0.2445068359375,23.5625,56.25,63.6875,-8.58,1.3,-4.56,moving,4
8.13,1145749.178486719,29,3,3,3,0,-2.73,1.33,-2.11,5.8,0.02,2.52,-1.375,49.8125,5.6875,0.45263671875,0.51495361328125,0.6866455078125,-0.241943359375,23.5625,56.25,63.6875,-8.53,1.31,-4.64,moving,4
8.14,1145749.193496078,29,3,3,3,0,-2.67,1.15,-2.23,5.83,-0.16,2.46,1.1875,38.875,2.4375,0.4503173828125,0.51593017578125,0.68798828125,-0.24017333984375,23.5625,56.25,63.6875,-8.5,1.31,-4.69,moving,4
8.15,1145749.193496078,29,3,3,3,0,-3.17,1.08,-2.37,5.3,-0.22,2.36,2.875,26.9375,-0.1875,0.44854736328125,0.5166015625,0.68902587890625,-0.2391357421875,21.75,54.75,64.875,-8.48,1.31,-4.73,moving,4
8.16,1145749.207920598,29,3,3,3,0,-3.68,1.05,-2.63,4.78,-0.25,2.12,3.5625,11.5625,-1.4375,0.4476318359375,0.51690673828125,0.689453125,-0.2388916015625,21.75,54.75,64.875,-8.47,1.3,-4.75,moving,4
8.17,1145749.207920598,29,3,3,3,0,-5.11,0.85,-3.24,3.36,-0.44,1.5,5.0625,-3.5625,-2.9375,0.44757080078125,0.516845703125,0.6893310546875,-0.239501953125,21.75,54.75,64.875,-8.47,1.29,-4.75,moving,4
8.18,1145749.240872299,29,3,3,3,0,-5.92,0.79,-3.73,2.56,-0.49,0.99,7.5,-15.5,-3.375,0.4481201171875,0.5166015625,0.688720703125,-0.24078369140625,21.75,54.75,64.875,-8.49,1.28,-4.73,moving,4
8.19,1145749.240872299,29,3,3,3,0,-6.86,0.82,-4.38,1.65,-0.45,0.3,11.0625,-27.3125,-2.75,0.44921875,0.51629638671875,0.68756103515625,-0.2427978515625,21.75,54.75,64.875,-8.51,1.27,-4.69,moving,4
8.2,1145749.254139958,29,3,3,3,0,-7.65,0.86,-5.14,0.89,-0.39,-0.5,16.5,-42.0,-1.5,0.450927734375,0.51593017578125,0.68560791015625,-0.2457275390625,21.375,55.875,66.5,-8.55,1.25,-4.63,moving,4
8.21,1145749.254139958,29,3,3,3,0,-8.74,1.31,-6.05,-0.15,0.07,-1.5,19.375,-58.375,-0.3125,0.45355224609375,0.51544189453125,0.682861328125,-0.24951171875,21.375,55.875,66.5,-8.59,1.24,-4.55,moving,4
8.22,1145749.268276596,29,3,3,3,0,-9.54,1.6,-5.72,-0.89,0.37,-1.27,17.75,-67.0,1.25,0.456787109375,0.5147705078125,0.67974853515625,-0.2535400390625,21.375,55.875,66.5,-8.64,1.23,-4.45,moving,4
8.23,1145749.268276596,29,3,3,3,0,-10.47,1.88,-5.46,-1.77,0.66,-1.09,16.875,-59.5,2.8125,0.4595947265625,0.5142822265625,0.6768798828125,-0.257080078125,21.375,55.875,66.5,-8.69,1.22,-4.36,moving,4
8.24,1145749.29781399,29,3,3,3,0,-12.46,2.24,-5.38,-3.73,1.02,-1.09,14.3125,-49.625,4.8125,0.46197509765625,0.5140380859375,0.67431640625,-0.25994873046875,21.375,55.875,66.5,-8.73,1.21,-4.29,moving,4
8.25,1145749.29781399,29,3,3,3,0,-12.95,2.21,-5.37,-4.18,0.99,-1.14,5.0,-45.25,7.8125,0.464599609375,0.513671875,0.67205810546875,-0.261962890625,21.0,55.1875,65.5625,-8.76,1.22,-4.22,moving,4
8.26,1145749.312752751,29,3,3,3,0,-12.83,2.21,-5.41,-4.04,0.97,-1.24,-4.125,-36.375,10.25,0.4671630859375,0.51324462890625,0.67022705078125,-0.262939453125,21.0,55.1875,65.5625,-8.78,1.24,-4.16,moving,4
8.27,1145749.312752751,29,3,3,3,0,-11.85,1.99,-5.57,-3.05,0.72,-1.42,-7.5625,-16.4375,10.0625,0.46868896484375,0.51318359375,0.66925048828125,-0.2628173828125,21.0,55.1875,65.5625,-8.79,1.26,-4.14,moving,4
8.28,1145749.328598454,29,3,3,3,0,-10.12,1.44,-5.49,-1.33,0.16,-1.33,-4.5625,6.0625,8.125,0.46875,0.51361083984375,0.66925048828125,-0.261962890625,21.0,55.1875,65.5625,-8.79,1.28,-4.15,stop,4
8.29,1145749.328598454,29,3,3,3,0,-9.41,1.12,-5.23,-0.64,-0.16,-1.04,-3.8125,20.625,5.6875,0.46783447265625,0.51422119140625,0.669921875,-0.26055908203125,21.0,55.1875,65.5625,-8.77,1.29,-4.18,stop,4
8.3,1145749.359864608,29,3,3,3,0,-8.72,0.78,-5.04,0.02,-0.52,-0.81,-4.375,28.75,3.5,0.4664306640625,0.51495361328125,0.6710205078125,-0.25885009765625,22.75,55.1875,63.5625,-8.75,1.3,-4.22,stop,4
8.31,1145749.359864608,29,3,3,3,0,-8.27,0.55,-4.82,0.45,-0.75,-0.55,-2.9375,31.6875,1.75,0.46478271484375,0.515625,0.67230224609375,-0.2572021484375,22.75,55.1875,63.5625,-8.72,1.3,-4.27,stop,4
8.32,1145749.373916,29,3,3,3,0,-7.6,0.39,-4.41,1.1,-0.91,-0.09,0.0,30.625,-0.3125,0.46295166015625,0.51629638671875,0.67352294921875,-0.25579833984375,22.75,55.1875,63.5625,-8.7,1.3,-4.31,stop,4
8.33,1145749.373916,29,3,3,3,0,-7.25,0.42,-4.42,1.43,-0.87,-0.06,3.25,28.125,-2.125,0.46112060546875,0.5169677734375,0.6746826171875,-0.25482177734375,22.75,55.1875,63.5625,-8.68,1.3,-4.36,stop,4
8.34,1145749.391208765,29,3,3,3,0,-6.95,0.44,-4.45,1.71,-0.84,-0.04,3.75,26.8125,-2.875,0.45928955078125,0.51751708984375,0.67584228515625,-0.25396728515625,22.75,55.1875,63.5625,-8.66,1.29,-4.4,stop,4
8.35,1145749.391208765,29,3,3,3,0,-6.74,0.52,-4.46,1.9,-0.76,-0.01,1.9375,26.6875,-3.25,0.45758056640625,0.51800537109375,0.677001953125,-0.25299072265625,23.1875,55.5625,65.5625,-8.64,1.28,-4.44,stop,4
8.36,1145749.433370834,29,3,3,3,0,-6.88,0.71,-4.09,1.74,-0.57,0.39,-0.875,24.875,-2.8125,0.4560546875,0.51837158203125,0.67816162109375,-0.251953125,23.1875,55.5625,65.5625,-8.62,1.28,-4.48,stop,4
8.37,1145749.433370834,29,3,3,3,0,-7.13,0.86,-3.73,1.47,-0.42,0.77,-3.4375,20.25,-1.5625,0.4549560546875,0.5185546875,0.6790771484375,-0.2508544921875,23.1875,55.5625,65.5625,-8.61,1.28,-4.51,stop,4
8.37,1145749.44083466,29,3,3,3,0,-7.13,0.86,-3.73,1.47,-0.42,0.77,-3.4375,20.25,-1.5625,0.4549560546875,0.5185546875,0.6790771484375,-0.2508544921875,23.1875,55.5625,65.5625,-8.61,1.28,-4.51,stop,4
8.38,1145749.44083466,29,3,3,3,0,-7.5,0.98,-3.46,1.09,-0.3,1.07,-5.3125,14.4375,0.0,0.454345703125,0.5186767578125,0.67974853515625,-0.2498779296875,23.1875,55.5625,65.5625,-8.59,1.29,-4.53,stop,4
8.39,1145749.446463404,29,3,3,3,0,-8.01,1.4,-3.46,0.57,0.1,1.08,-7.6875,8.0,1.625,0.45428466796875,0.51861572265625,0.68017578125,-0.2490234375,23.1875,55.5625,65.5625,-8.59,1.29,-4.54,stop,4
8.4,1145749.446463404,29,3,3,3,0,-8.26,1.61,-3.62,0.32,0.3,0.91,-9.4375,1.0625,2.9375,0.4547119140625,0.5184326171875,0.6802978515625,-0.248291015625,23.1875,55.5625,64.6875,-8.59,1.31,-4.54,stop,4
8.41,1145749.463752792,29,3,3,3,0,-8.52,1.86,-3.81,0.07,0.53,0.71,-10.0625,-4.125,3.5,0.4554443359375,0.5181884765625,0.68017578125,-0.24774169921875,23.1875,55.5625,64.6875,-8.59,1.32,-4.53,stop,4
8.42,1145749.463752792,29,3,3,3,0,-8.75,2.05,-4.08,-0.15,0.71,0.43,-10.0625,-8.4375,3.375,0.45648193359375,0.517822265625,0.679931640625,-0.24737548828125,23.1875,55.5625,64.6875,-8.6,1.33,-4.51,stop,4
8.43,1145749.478189071,29,3,3,3,0,-9.33,2.14,-4.59,-0.72,0.79,-0.1,-9.5625,-12.0625,2.875,0.45770263671875,0.517333984375,0.67950439453125,-0.24725341796875,23.1875,55.5625,64.6875,-8.6,1.34,-4.49,stop,4
8.44,1145749.478189071,29,3,3,3,0,-9.58,1.99,-4.8,-0.96,0.63,-0.32,-9.5,-15.0625,2.25,0.4591064453125,0.5167236328125,0.67901611328125,-0.24725341796875,23.1875,55.5625,64.6875,-8.62,1.36,-4.47,stop,4
8.45,1145749.508059188,29,3,3,3,0,-9.83,1.83,-4.96,-1.19,0.46,-0.52,-8.5,-17.0625,1.25,0.46051025390625,0.51611328125,0.678466796875,-0.24749755859375,23.1875,55.1875,65.5625,-8.63,1.36,-4.44,stop,4
8.46,1145749.508059188,29,3,3,3,0,-10.04,1.78,-5.1,-1.39,0.41,-0.68,-6.4375,-16.25,0.1875,0.4617919921875,0.5155029296875,0.67791748046875,-0.247802734375,23.1875,55.1875,65.5625,-8.64,1.37,-4.41,stop,4
8.47,1145749.523788518,29,3,3,3,0,-9.96,1.66,-5.23,-1.31,0.29,-0.82,-4.5,-11.0625,-0.625,0.462646484375,0.5150146484375,0.6776123046875,-0.24810791015625,23.1875,55.1875,65.5625,-8.65,1.37,-4.4,stop,4
8.48,1145749.523788518,29,3,3,3,0,-9.74,1.64,-5.21,-1.08,0.26,-0.81,-2.4375,-1.125,-1.4375,0.4627685546875,0.51483154296875,0.67767333984375,-0.248046875,23.1875,55.1875,65.5625,-8.65,1.37,-4.39,stop,4
8.49,1145749.537697738,29,3,3,3,0,-9.52,1.6,-5.05,-0.87,0.22,-0.63,0.0,10.5625,-1.0,0.46209716796875,0.5150146484375,0.67816162109375,-0.24761962890625,23.1875,55.1875,65.5625,-8.64,1.37,-4.41,stop,4
8.5,1145749.537697738,29,3,3,3,0,-9.29,1.52,-4.8,-0.66,0.15,-0.35,2.0625,19.75,0.0625,0.46087646484375,0.5155029296875,0.67889404296875,-0.246826171875,21.75,55.875,65.1875,-8.63,1.37,-4.44,stop,4
8.51,1145749.567833887,29,3,3,3,0,-8.86,1.45,-4.37,-0.25,0.08,0.11,2.0625,23.75,1.5,0.45941162109375,0.51617431640625,0.67974853515625,-0.245849609375,21.75,55.875,65.1875,-8.61,1.37,-4.48,stop,4
8.52,1145749.567833887,29,3,3,3,0,-8.58,1.44,-4.35,0.01,0.06,0.16,0.9375,23.9375,2.375,0.4580078125,0.51690673828125,0.68060302734375,-0.24468994140625,21.75,55.875,65.1875,-8.59,1.37,-4.51,stop,4
8.53,1145749.582734766,29,3,3,3,0,-8.3,1.42,-4.34,0.27,0.04,0.21,-0.375,22.9375,3.0,0.4566650390625,0.517578125,0.68133544921875,-0.2435302734375,21.75,55.875,65.1875,-8.57,1.38,-4.55,stop,4
8.54,1145749.582734766,29,3,3,3,0,-7.96,1.38,-4.3,0.58,0.0,0.28,-1.8125,21.5,3.0625,0.45556640625,0.51812744140625,0.68212890625,-0.24237060546875,21.75,55.875,65.1875,-8.55,1.38,-4.58,stop,4
8.55,1145749.597308212,29,3,3,3,0,-7.42,1.32,-4.21,1.11,-0.06,0.39,-3.125,19.75,2.6875,0.45458984375,0.51861572265625,0.682861328125,-0.24114990234375,22.375,54.75,65.5625,-8.54,1.39,-4.61,stop,4
8.56,1145749.597308212,29,3,3,3,0,-7.27,1.29,-4.21,1.24,-0.1,0.42,-4.4375,15.875,1.8125,0.453857421875,0.51885986328125,0.6834716796875,-0.2401123046875,22.375,54.75,65.5625,-8.52,1.4,-4.63,stop,4
8.57,1145749.627724675,29,3,3,3,0,-7.34,1.24,-4.21,1.17,-0.16,0.44,-4.9375,11.9375,0.5,0.453369140625,0.5189208984375,0.68408203125,-0.2392578125,22.375,54.75,65.5625,-8.51,1.4,-4.65,stop,4
8.58,1145749.627724675,29,3,3,3,0,-7.68,1.19,-4.26,0.82,-0.2,0.39,-4.3125,8.25,-0.9375,0.45306396484375,0.51885986328125,0.68450927734375,-0.2386474609375,22.375,54.75,65.5625,-8.51,1.4,-4.66,stop,4
8.59,1145749.643736516,29,3,3,3,0,-8.0,1.23,-4.35,0.5,-0.17,0.31,-3.0625,4.4375,-2.375,0.452880859375,0.5186767578125,0.68487548828125,-0.23834228515625,22.375,54.75,65.5625,-8.5,1.4,-4.66,stop,4
8.6,1145749.643736516,29,3,3,3,0,-8.29,1.27,-4.5,0.21,-0.12,0.16,-1.9375,0.8125,-3.8125,0.45281982421875,0.51837158203125,0.68511962890625,-0.23834228515625,22.0625,55.1875,66.375,-8.5,1.4,-4.67,stop,4
8.61,1145749.658222763,29,3,3,3,0,-8.56,1.26,-4.72,-0.05,-0.12,-0.06,-0.5,-1.3125,-5.0625,0.45281982421875,0.51806640625,0.685302734375,-0.2386474609375,22.0625,55.1875,66.375,-8.51,1.39,-4.66,stop,4
8.62,1145749.658222763,29,3,3,3,0,-8.73,1.36,-5.14,-0.21,-0.02,-0.48,0.8125,-3.6875,-5.8125,0.452880859375,0.5177001953125,0.68536376953125,-0.23907470703125,22.0625,55.1875,66.375,-8.51,1.38,-4.66,stop,4
8.63,1145749.690423813,29,3,3,3,0,-8.67,1.41,-5.27,-0.15,0.04,-0.61,2.8125,-5.5,-5.625,0.45294189453125,0.517333984375,0.68536376953125,-0.23968505859375,22.0625,55.1875,66.375,-8.52,1.37,-4.65,stop,4
8.64,1145749.690423813,29,3,3,3,0,-8.59,1.49,-5.37,-0.06,0.13,-0.72,5.5,-6.25,-4.6875,0.4530029296875,0.51715087890625,0.68524169921875,-0.24053955078125,22.0625,55.1875,66.375,-8.52,1.36,-4.64,stop,4
8.65,1145749.704053533,29,3,3,3,0,-8.5,1.58,-5.39,0.02,0.23,-0.75,8.0,-4.4375,-3.375,0.45281982421875,0.51715087890625,0.68499755859375,-0.2413330078125,22.75,54.5,65.5625,-8.53,1.35,-4.64,stop,4
8.66,1145749.704053533,29,3,3,3,0,-8.4,1.73,-5.22,0.12,0.39,-0.58,9.375,-1.1875,-1.9375,0.45245361328125,0.51739501953125,0.68487548828125,-0.24200439453125,22.75,54.5,65.5625,-8.53,1.34,-4.64,stop,4
8.67,1145749.718744491,29,3,3,3,0,-8.36,1.75,-5.13,0.16,0.42,-0.48,10.375,3.25,-0.625,0.4517822265625,0.517822265625,0.684814453125,-0.24249267578125,22.75,54.5,65.5625,-8.53,1.33,-4.65,stop,4
8.68,1145749.718744491,29,3,3,3,0,-8.27,1.75,-4.98,0.24,0.42,-0.32,11.0,5.875,0.0625,0.450927734375,0.51837158203125,0.684814453125,-0.242919921875,22.75,54.5,65.5625,-8.52,1.32,-4.66,stop,4
8.69,1145749.749540349,29,3,3,3,0,-8.15,1.73,-4.82,0.36,0.41,-0.15,11.625,6.125,0.6875,0.45001220703125,0.51904296875,0.68475341796875,-0.2432861328125,22.75,54.5,65.5625,-8.52,1.31,-4.67,stop,4
8.7,1145749.749540349,29,3,3,3,0,-8.08,1.57,-4.6,0.43,0.26,0.08,12.375,5.5,1.25,0.44915771484375,0.51971435546875,0.6846923828125,-0.24371337890625,22.375,55.1875,65.1875,-8.51,1.3,-4.68,stop,4
8.71,1145749.763766667,29,3,3,3,0,-8.15,1.46,-4.5,0.35,0.16,0.18,12.9375,4.0625,1.25,0.4483642578125,0.5203857421875,0.68450927734375,-0.2442626953125,22.375,55.1875,65.1875,-8.51,1.29,-4.69,stop,4
8.72,1145749.763766667,29,3,3,3,0,-8.28,1.34,-4.46,0.22,0.05,0.23,13.625,2.125,0.9375,0.4476318359375,0.52099609375,0.68426513671875,-0.24493408203125,22.375,55.1875,65.1875,-8.51,1.28,-4.7,stop,4
8.73,1145749.778155909,29,3,3,3,0,-8.5,1.09,-4.39,0.0,-0.17,0.3,14.0625,0.0625,0.3125,0.44696044921875,0.5216064453125,0.6839599609375,-0.24578857421875,22.375,55.1875,65.1875,-8.5,1.27,-4.7,stop,4
8.74,1145749.778155909,29,3,3,3,0,-8.6,1.01,-4.39,-0.09,-0.25,0.3,14.5,-2.1875,0.1875,0.44647216796875,0.5220947265625,0.68353271484375,-0.2467041015625,22.375,55.1875,65.1875,-8.51,1.26,-4.7,stop,4
8.75,1145749.807928736,29,3,3,3,0,-8.71,0.95,-4.45,-0.2,-0.3,0.24,14.375,-3.75,0.0,0.44598388671875,0.5225830078125,0.68310546875,-0.24774169921875,22.375,55.5625,64.75,-8.51,1.25,-4.7,stop,4
8.76,1145749.807928736,29,3,3,3,0,-8.82,0.9,-4.47,-0.3,-0.33,0.22,13.8125,-5.0,0.0,0.4456787109375,0.52301025390625,0.68255615234375,-0.248779296875,22.375,55.5625,64.75,-8.51,1.24,-4.69,stop,4
8.77,1145749.825071965,29,3,3,3,0,-8.9,0.98,-4.58,-0.38,-0.24,0.1,12.25,-5.6875,-0.25,0.4454345703125,0.52337646484375,0.68206787109375,-0.24981689453125,22.375,55.5625,64.75,-8.52,1.23,-4.69,stop,4
8.78,1145749.825071965,29,3,3,3,0,-8.91,0.95,-4.6,-0.38,-0.27,0.07,10.1875,-6.5625,-0.9375,0.44537353515625,0.5235595703125,0.681640625,-0.250732421875,22.375,55.5625,64.75,-8.52,1.22,-4.68,stop,4
8.79,1145749.838315089,29,3,3,3,0,-8.89,0.99,-4.6,-0.36,-0.21,0.06,7.8125,-6.9375,-1.5625,0.44537353515625,0.52362060546875,0.6812744140625,-0.2515869140625,22.375,55.5625,64.75,-8.53,1.21,-4.67,stop,4
8.8,1145749.838315089,29,3,3,3,0,-8.81,1.03,-4.61,-0.27,-0.16,0.04,5.5625,-6.375,-2.1875,0.4454345703125,0.5235595703125,0.6810302734375,-0.2523193359375,22.0625,55.1875,64.75,-8.54,1.2,-4.66,stop,4
8.81,1145749.867795354,29,3,3,3,0,-8.69,1.12,-4.62,-0.14,-0.07,0.03,3.5,-5.75,-2.5625,0.44561767578125,0.5234375,0.68084716796875,-0.25286865234375,22.0625,55.1875,64.75,-8.54,1.19,-4.65,stop,4
8.82,1145749.867795354,29,3,3,3,0,-8.62,1.16,-4.57,-0.07,-0.03,0.07,1.5625,-5.0625,-2.5,0.44573974609375,0.52325439453125,0.68072509765625,-0.2532958984375,22.0625,55.1875,64.75,-8.55,1.19,-4.65,stop,4
8.83,1145749.899069768,29,3,3,3,0,-8.61,1.17,-4.55,-0.05,-0.01,0.09,0.125,-4.125,-2.3125,0.44598388671875,0.52301025390625,0.6806640625,-0.2535400390625,22.0625,55.1875,64.75,-8.55,1.18,-4.64,stop,4
8.84,1145749.899069768,29,3,3,3,0,-8.58,1.19,-4.53,-0.02,0.01,0.1,-1.4375,-2.8125,-2.25,0.4461669921875,0.52276611328125,0.6806640625,-0.25372314453125,22.0625,55.1875,64.75,-8.55,1.18,-4.64,stop,4
8.85,1145749.906539617,29,3,3,3,0,-8.6,1.2,-4.42,-0.04,0.02,0.2,-2.1875,-2.1875,-2.1875,0.44635009765625,0.5224609375,0.68072509765625,-0.25372314453125,21.75,56.25,64.375,-8.55,1.18,-4.63,stop,4
8.86,1145749.906539617,29,3,3,3,0,-8.64,1.15,-4.4,-0.08,-0.02,0.22,-2.1875,-1.75,-2.3125,0.44647216796875,0.522216796875,0.68084716796875,-0.2537841796875,21.75,56.25,64.375,-8.56,1.18,-4.63,stop,4
8.87,1145749.928873357,29,3,3,3,0,-8.65,1.15,-4.42,0.0,-0.01,0.02,-2.0625,-1.3125,-2.375,0.45367431640625,0.51806640625,0.6771240234375,-0.25933837890625,21.75,56.25,64.375,-8.66,1.16,-4.45,stop,4
8.88,1145749.928873357,29,3,3,3,0,-8.68,1.11,-4.43,-0.01,-0.05,0.01,-1.75,-1.8125,-2.375,0.45379638671875,0.517822265625,0.67724609375,-0.2593994140625,21.75,56.25,64.375,-8.66,1.16,-4.44,stop,4
8.89,1145749.942307398,29,3,3,3,0,-8.69,1.11,-4.44,-0.03,-0.04,0.0,-1.25,-2.5,-2.125,0.45391845703125,0.517578125,0.67724609375,-0.259521484375,21.75,56.25,64.375,-8.66,1.16,-4.44,stop,4
8.9,1145749.942307398,29,3,3,3,0,-8.78,1.09,-4.45,-0.11,-0.05,-0.01,-0.4375,-2.6875,-2.0625,0.45404052734375,0.51739501953125,0.67724609375,-0.25970458984375,21.75,55.875,65.1875,-8.66,1.15,-4.44,stop,4
8.91,1145749.958146225,29,3,3,3,0,-8.81,1.08,-4.45,-0.14,-0.06,-0.02,-0.3125,-3.0625,-2.0625,0.4542236328125,0.5172119140625,0.67718505859375,-0.25994873046875,21.75,55.875,65.1875,-8.66,1.15,-4.43,stop,4
8.92,1145749.958146225,29,3,3,3,0,-8.72,1.12,-4.55,-0.05,-0.02,-0.12,-0.5625,-3.6875,-1.875,0.45440673828125,0.51702880859375,0.67718505859375,-0.2601318359375,21.75,55.875,65.1875,-8.67,1.15,-4.42,stop,4
8.93,1145749.99036294,29,3,3,3,0,-8.69,1.12,-4.61,-0.01,-0.02,-0.19,-0.125,-4.625,-1.9375,0.45458984375,0.51678466796875,0.67706298828125,-0.26043701171875,21.75,55.875,65.1875,-8.67,1.14,-4.42,stop,4
8.94,1145749.99036294,29,3,3,3,0,-8.64,1.08,-4.61,0.03,-0.06,-0.19,-0.125,-4.25,-1.5625,0.45477294921875,0.5166015625,0.677001953125,-0.26068115234375,21.75,55.875,65.1875,-8.68,1.14,-4.41,stop,4
8.95,1145750.003796737,29,3,3,3,0,-8.59,1.05,-4.57,0.08,-0.08,-0.16,-0.125,-3.5,-1.125,0.45489501953125,0.5164794921875,0.67694091796875,-0.2608642578125,21.75,56.25,64.375,-8.68,1.14,-4.41,stop,4
8.96,1145750.003796737,29,3,3,3,0,-8.53,1.14,-4.59,0.14,0.0,-0.18,0.4375,-2.3125,-0.625,0.45501708984375,0.516357421875,0.67694091796875,-0.260986328125,21.75,56.25,64.375,-8.68,1.14,-4.41,stop,4
8.97,1145750.019203313,29,3,3,3,0,-8.53,1.15,-4.59,0.15,0.01,-0.18,1.375,-1.5,-0.125,0.4549560546875,0.51641845703125,0.6768798828125,-0.2611083984375,21.75,56.25,64.375,-8.68,1.14,-4.4,stop,4
8.98,1145750.019203313,29,3,3,3,0,-8.54,1.2,-4.59,0.14,0.06,-0.18,2.4375,-0.875,0.5,0.454833984375,0.51654052734375,0.6767578125,-0.26123046875,21.75,56.25,64.375,-8.68,1.14,-4.41,stop,4
8.99,1145750.048856755,29,3,3,3,0,-8.58,1.26,-4.56,0.09,0.12,-0.15,2.875,-1.25,1.375,0.45477294921875,0.5167236328125,0.6766357421875,-0.26141357421875,21.75,56.25,64.375,-8.68,1.14,-4.4,stop,4
9.0,1145750.048856755,29,3,3,3,0,-8.58,1.36,-4.49,0.09,0.21,-0.08,2.9375,-1.0,2.125,0.45477294921875,0.51702880859375,0.67645263671875,-0.261474609375,22.0625,56.5625,65.1875,-8.68,1.14,-4.4,stop,4
9.01,1145750.063127141,29,3,3,3,0,-8.53,1.39,-4.45,0.14,0.24,-0.04,2.375,-0.5625,2.875,0.4547119140625,0.517333984375,0.67620849609375,-0.26141357421875,22.0625,56.5625,65.1875,-8.68,1.14,-4.41,stop,4
9.02,1145750.063127141,29,3,3,3,0,-8.53,1.35,-4.42,0.14,0.2,-0.01,1.5625,-0.375,3.5625,0.45477294921875,0.51763916015625,0.676025390625,-0.26129150390625,22.0625,56.5625,65.1875,-8.68,1.15,-4.41,stop,4
9.03,1145750.077665715,29,3,3,3,0,-8.57,1.35,-4.38,0.1,0.19,0.02,1.375,-0.25,3.9375,0.45477294921875,0.5179443359375,0.67578125,-0.2611083984375,22.0625,56.5625,65.1875,-8.68,1.15,-4.41,stop,4
9.04,1145750.077665715,29,3,3,3,0,-8.64,1.29,-4.4,0.03,0.13,0.0,1.8125,-0.5,4.1875,0.454833984375,0.518310546875,0.675537109375,-0.26104736328125,22.0625,56.5625,65.1875,-8.67,1.16,-4.41,stop,4
9.05,1145750.108009832,29,3,3,3,0,-8.68,1.24,-4.44,0.0,0.07,-0.03,3.0,-0.875,4.3125,0.454833984375,0.5186767578125,0.67523193359375,-0.26104736328125,22.375,56.6875,64.0,-8.67,1.16,-4.41,stop,4
9.06,1145750.108009832,29,3,3,3,0,-8.71,1.24,-4.42,-0.03,0.06,-0.01,4.1875,-1.125,4.0625,0.454833984375,0.51910400390625,0.67486572265625,-0.26116943359375,22.375,56.6875,64.0,-8.67,1.17,-4.41,stop,4
9.07,1145750.12322846,29,3,3,3,0,-8.74,1.14,-4.47,-0.06,-0.02,-0.06,5.4375,-1.25,3.8125,0.4547119140625,0.51947021484375,0.674560546875,-0.26141357421875,22.375,56.6875,64.0,-8.67,1.17,-4.41,stop,4
9.08,1145750.12322846,29,3,3,3,0,-8.72,1.11,-4.52,-0.04,-0.06,-0.11,6.6875,-1.75,3.3125,0.45458984375,0.5198974609375,0.6741943359375,-0.26171875,22.375,56.6875,64.0,-8.68,1.17,-4.4,stop,4
9.09,1145750.155413844,29,3,3,3,0,-8.74,1.08,-4.53,-0.06,-0.08,-0.12,7.9375,-1.625,2.75,0.45440673828125,0.5203857421875,0.673828125,-0.26214599609375,22.375,56.6875,64.0,-8.68,1.17,-4.4,stop,4
9.1,1145750.155413844,29,3,3,3,0,-8.73,1.05,-4.55,-0.05,-0.11,-0.14,9.1875,-1.625,2.375,0.4541015625,0.52081298828125,0.67340087890625,-0.2626953125,22.375,56.25,64.375,-8.68,1.16,-4.4,stop,4
9.11,1145750.168761744,29,3,3,3,0,-8.64,0.96,-4.55,0.03,-0.19,-0.14,10.3125,-1.6875,2.25,0.4537353515625,0.5213623046875,0.67303466796875,-0.2633056640625,22.375,56.25,64.375,-8.68,1.16,-4.4,stop,4
9.12,1145750.168761744,29,3,3,3,0,-8.7,0.96,-4.54,-0.02,-0.19,-0.13,11.0,-1.6875,2.375,0.453369140625,0.5218505859375,0.67266845703125,-0.26397705078125,22.375,56.25,64.375,-8.68,1.15,-4.4,stop,4
9.13,1145750.182745143,29,3,3,3,0,-8.64,0.98,-4.55,0.03,-0.16,-0.14,11.3125,-2.1875,2.375,0.45294189453125,0.52239990234375,0.6722412109375,-0.2646484375,22.375,56.25,64.375,-8.68,1.15,-4.4,stop,4
9.14,1145750.182745143,29,3,3,3,0,-8.65,0.99,-4.59,0.03,-0.14,-0.18,11.6875,-1.625,2.5,0.4525146484375,0.52294921875,0.67181396484375,-0.26531982421875,22.375,56.25,64.375,-8.68,1.14,-4.4,stop,4
9.16,1145750.214249781,29,3,3,3,0,-8.55,0.98,-4.68,0.12,-0.14,-0.26,11.125,0.1875,2.4375,0.451416015625,0.524169921875,0.67120361328125,-0.2664794921875,22.0625,55.875,63.5625,-8.68,1.13,-4.41,stop,4
9.17,1145750.214249781,29,3,3,3,0,-8.56,0.99,-4.69,0.11,-0.13,-0.26,10.75,1.25,2.6875,0.45074462890625,0.5247802734375,0.67095947265625,-0.2669677734375,22.0625,55.875,63.5625,-8.67,1.12,-4.42,stop,4
9.18,1145750.228710597,29,3,3,3,0,-8.57,1.04,-4.68,0.1,-0.08,-0.25,10.8125,2.125,2.875,0.4500732421875,0.52545166015625,0.67071533203125,-0.267333984375,22.0625,55.875,63.5625,-8.67,1.12,-4.43,stop,4
9.19,1145750.228710597,29,3,3,3,0,-8.59,1.1,-4.59,0.07,-0.01,-0.15,11.0,2.625,3.0625,0.44940185546875,0.52618408203125,0.67047119140625,-0.2677001953125,22.0625,55.875,63.5625,-8.67,1.11,-4.43,stop,4
9.2,1145750.258334579,29,3,3,3,0,-8.66,1.1,-4.53,0.0,0.0,-0.08,11.25,3.25,3.3125,0.44873046875,0.52691650390625,0.670166015625,-0.26806640625,22.375,57.0,64.6875,-8.66,1.11,-4.44,stop,4
9.21,1145750.258334579,29,3,3,3,0,-8.64,1.09,-4.44,0.02,-0.01,0.01,10.8125,3.25,3.375,0.4481201171875,0.527587890625,0.669921875,-0.2684326171875,22.375,57.0,64.6875,-8.66,1.11,-4.45,stop,4
9.22,1145750.273653305,29,3,3,3,0,-8.68,1.05,-4.42,-0.02,-0.05,0.03,9.6875,2.6875,3.0625,0.44757080078125,0.5281982421875,0.669677734375,-0.26873779296875,22.375,57.0,64.6875,-8.66,1.1,-4.46,stop,4
9.23,1145750.273653305,29,3,3,3,0,-8.64,1.03,-4.51,0.01,-0.07,-0.05,8.125,1.6875,2.625,0.4471435546875,0.52874755859375,0.66943359375,-0.26904296875,22.375,57.0,64.6875,-8.66,1.1,-4.46,stop,4
9.24,1145750.287999496,29,3,3,3,0,-8.63,1.02,-4.59,0.02,-0.08,-0.12,6.375,0.6875,2.3125,0.44683837890625,0.52911376953125,0.669189453125,-0.269287109375,22.375,57.0,64.6875,-8.65,1.1,-4.46,stop,4
9.25,1145750.287999496,29,3,3,3,0,-8.61,0.97,-4.62,0.04,-0.12,-0.15,4.9375,-0.5625,1.8125,0.4466552734375,0.5294189453125,0.66900634765625,-0.26953125,23.5625,56.25,63.1875,-8.65,1.1,-4.46,stop,4
9.26,1145750.318572901,29,3,3,3,0,-8.57,0.93,-4.7,0.08,-0.16,-0.23,4.0625,-1.6875,1.5625,0.446533203125,0.5296630859375,0.66876220703125,-0.269775390625,23.5625,56.25,63.1875,-8.66,1.09,-4.46,stop,4
9.27,1145750.318572901,29,3,3,3,0,-8.57,0.99,-4.7,0.08,-0.1,-0.23,3.0,-1.75,1.5625,0.44647216796875,0.52984619140625,0.66864013671875,-0.26995849609375,23.5625,56.25,63.1875,-8.66,1.09,-4.46,stop,4
9.28,1145750.332833359,29,3,3,3,0,-8.57,1.0,-4.69,0.08,-0.09,-0.22,1.75,-1.25,1.625,0.4464111328125,0.52996826171875,0.66851806640625,-0.27008056640625,23.5625,56.25,63.1875,-8.66,1.09,-4.46,stop,4
9.29,1145750.332833359,29,3,3,3,0,-8.54,1.04,-4.64,0.11,-0.05,-0.17,0.5625,-1.0,1.625,0.44635009765625,0.53009033203125,0.66845703125,-0.27008056640625,23.5625,56.25,63.1875,-8.65,1.1,-4.46,stop,4
9.3,1145750.347371648,29,3,3,3,0,-8.5,1.15,-4.67,0.15,0.05,-0.2,-0.3125,-0.9375,1.875,0.4464111328125,0.53021240234375,0.6683349609375,-0.27001953125,22.75,55.875,63.1875,-8.65,1.1,-4.46,stop,4
9.31,1145750.347371648,29,3,3,3,0,-8.48,1.19,-4.71,0.16,0.08,-0.23,-0.75,-0.5,2.3125,0.4464111328125,0.53033447265625,0.6683349609375,-0.269775390625,22.75,55.875,63.1875,-8.65,1.1,-4.47,stop,4
9.32,1145750.378139104,29,3,3,3,0,-8.47,1.25,-4.74,0.18,0.13,-0.27,-0.6875,0.75,2.625,0.4464111328125,0.53057861328125,0.66827392578125,-0.26953125,22.75,55.875,63.1875,-8.65,1.11,-4.47,stop,4
9.33,1145750.378139104,29,3,3,3,0,-8.45,1.26,-4.72,0.2,0.14,-0.24,-0.0625,1.4375,2.8125,0.4462890625,0.53082275390625,0.668212890625,-0.269287109375,22.75,55.875,63.1875,-8.65,1.11,-4.47,stop,4
9.34,1145750.392998154,29,3,3,3,0,-8.42,1.27,-4.68,0.22,0.15,-0.2,0.375,1.75,2.875,0.44622802734375,0.5311279296875,0.668212890625,-0.26898193359375,22.75,55.875,63.1875,-8.64,1.12,-4.48,stop,4
9.35,1145750.392998154,29,3,3,3,0,-8.43,1.29,-4.7,0.21,0.16,-0.21,1.375,1.8125,3.1875,0.446044921875,0.531494140625,0.6680908203125,-0.2686767578125,22.75,57.0,63.5625,-8.64,1.12,-4.48,stop,4
9.36,1145750.407878647,29,3,3,3,0,-8.45,1.31,-4.71,0.19,0.18,-0.22,2.1875,1.8125,3.375,0.44586181640625,0.5318603515625,0.66802978515625,-0.26849365234375,22.75,57.0,63.5625,-8.64,1.13,-4.49,stop,4
9.37,1145750.407878647,29,3,3,3,0,-8.47,1.33,-4.73,0.15,0.19,-0.23,2.8125,1.5,3.5,0.44561767578125,0.5323486328125,0.6678466796875,-0.268310546875,22.75,57.0,63.5625,-8.63,1.13,-4.49,stop,4
9.38,1145750.439740178,29,3,3,3,0,-8.48,1.23,-4.66,0.15,0.09,-0.16,3.375,0.9375,3.4375,0.4454345703125,0.53277587890625,0.66766357421875,-0.2681884765625,22.75,57.0,63.5625,-8.63,1.14,-4.5,stop,4
9.39,1145750.439740178,29,3,3,3,0,-8.45,1.21,-4.72,0.17,0.06,-0.21,4.25,0.375,3.75,0.4453125,0.533203125,0.66741943359375,-0.26824951171875,22.75,57.0,63.5625,-8.63,1.14,-4.5,stop,4
9.4,1145750.453528793,29,3,3,3,0,-8.46,1.19,-4.74,0.17,0.04,-0.23,5.4375,-0.0625,3.8125,0.445068359375,0.53369140625,0.66717529296875,-0.268310546875,23.1875,56.5625,62.75,-8.63,1.14,-4.5,stop,4
9.41,1145750.453528793,29,3,3,3,0,-8.46,1.19,-4.77,0.16,0.04,-0.26,6.375,-1.125,4.0,0.44482421875,0.5341796875,0.66680908203125,-0.26849365234375,23.1875,56.5625,62.75,-8.63,1.14,-4.51,stop,4
9.42,1145750.482692449,29,3,3,3,0,-8.47,1.16,-4.79,0.15,0.01,-0.28,6.5625,-1.875,4.375,0.44464111328125,0.53472900390625,0.66644287109375,-0.26873779296875,23.1875,56.5625,62.75,-8.63,1.15,-4.51,stop,4
9.43,1145750.482692449,29,3,3,3,0,-8.48,1.16,-4.77,0.14,0.0,-0.25,6.8125,-2.0625,4.125,0.4444580078125,0.53521728515625,0.66607666015625,-0.26898193359375,23.1875,56.5625,62.75,-8.62,1.15,-4.51,stop,4
9.44,1145750.498078842,29,3,3,3,0,-8.52,1.14,-4.73,0.1,0.0,-0.22,6.625,-2.1875,4.3125,0.44427490234375,0.5357666015625,0.6656494140625,-0.26922607421875,23.1875,56.5625,62.75,-8.62,1.15,-4.51,stop,4
9.45,1145750.498078842,29,3,3,3,0,-8.52,1.07,-4.73,0.1,-0.07,-0.22,6.4375,-2.1875,4.3125,0.44415283203125,0.5362548828125,0.665283203125,-0.26947021484375,23.5625,56.25,62.375,-8.62,1.15,-4.51,stop,4
9.46,1145750.513268824,29,3,3,3,0,-8.51,1.07,-4.74,0.11,-0.08,-0.23,6.375,-2.1875,4.3125,0.4439697265625,0.5367431640625,0.66485595703125,-0.269775390625,23.5625,56.25,62.375,-8.62,1.15,-4.51,stop,4
9.47,1145750.513268824,29,3,3,3,0,-8.53,1.07,-4.75,0.09,-0.07,-0.24,6.5625,-1.9375,4.4375,0.44378662109375,0.5372314453125,0.66448974609375,-0.27001953125,23.5625,56.25,62.375,-8.62,1.15,-4.51,stop,4
9.48,1145750.526939112,29,3,3,3,0,-8.55,1.07,-4.71,0.07,-0.08,-0.19,6.4375,-1.75,4.5625,0.44354248046875,0.5377197265625,0.66412353515625,-0.270263671875,23.5625,56.25,62.375,-8.62,1.15,-4.51,stop,4
9.49,1145750.526939112,29,3,3,3,0,-8.57,1.03,-4.59,0.05,-0.12,-0.07,5.75,-1.375,4.0625,0.44342041015625,0.53814697265625,0.66375732421875,-0.2705078125,23.5625,56.25,62.375,-8.62,1.15,-4.51,stop,4
9.5,1145750.557784571,29,3,3,3,0,-8.53,1.04,-4.56,0.09,-0.11,-0.04,5.0625,-1.5625,3.75,0.44329833984375,0.53851318359375,0.6634521484375,-0.27069091796875,24.25,57.0,63.1875,-8.62,1.15,-4.51,stop,4
9.51,1145750.557784571,29,3,3,3,0,-8.49,1.06,-4.61,0.12,-0.09,-0.1,4.375,-2.0,3.3125,0.4432373046875,0.53887939453125,0.66314697265625,-0.27093505859375,24.25,57.0,63.1875,-8.62,1.16,-4.51,stop,4
9.52,1145750.574093165,29,3,3,3,0,-8.48,1.06,-4.68,0.14,-0.1,-0.17,3.75,-2.8125,3.1875,0.4432373046875,0.53912353515625,0.662841796875,-0.27117919921875,24.25,57.0,63.1875,-8.62,1.16,-4.51,stop,4
9.53,1145750.574093165,29,3,3,3,0,-8.48,1.11,-4.6,0.14,-0.04,-0.09,3.5625,-3.4375,2.6875,0.44329833984375,0.53936767578125,0.66253662109375,-0.27142333984375,24.25,57.0,63.1875,-8.63,1.16,-4.5,stop,4
9.54,1145750.596860987,29,3,3,3,0,-8.47,1.14,-4.57,0.15,-0.02,-0.06,3.125,-3.5,2.625,0.443359375,0.53955078125,0.6622314453125,-0.2716064453125,24.25,57.0,63.1875,-8.63,1.16,-4.5,stop,4
9.55,1145750.596860987,29,3,3,3,0,-8.52,1.15,-4.56,0.11,-0.01,-0.06,2.5,-3.5,2.5,0.4434814453125,0.53973388671875,0.66192626953125,-0.2718505859375,23.5625,56.25,62.375,-8.63,1.16,-4.5,stop,4
9.56,1145750.618515447,29,3,3,3,0,-8.55,1.14,-4.57,0.08,-0.02,-0.07,1.5,-3.375,2.0625,0.443603515625,0.53985595703125,0.66168212890625,-0.27197265625,23.5625,56.25,62.375,-8.63,1.16,-4.49,stop,4
9.57,1145750.618515447,29,3,3,3,0,-8.55,1.14,-4.58,0.08,-0.02,-0.08,0.5625,-3.5625,2.0,0.44378662109375,0.5399169921875,0.66143798828125,-0.2720947265625,23.5625,56.25,62.375,-8.63,1.16,-4.49,stop,4
9.58,1145750.632900172,29,3,3,3,0,-8.58,1.15,-4.58,0.05,-0.02,-0.09,0.0,-4.0625,1.875,0.444091796875,0.5399169921875,0.66119384765625,-0.272216796875,23.5625,56.25,62.375,-8.64,1.17,-4.48,stop,4
9.59,1145750.632900172,29,3,3,3,0,-8.6,1.15,-4.62,0.03,-0.02,-0.14,-0.125,-4.0,1.6875,0.4443359375,0.53997802734375,0.66094970703125,-0.2723388671875,23.5625,56.25,62.375,-8.64,1.17,-4.48,stop,4
9.6,1145750.647513494,29,3,3,3,0,-8.6,1.15,-4.72,0.03,-0.02,-0.24,0.0,-3.75,1.6875,0.44451904296875,0.53997802734375,0.6607666015625,-0.27239990234375,23.875,56.6875,62.0625,-8.64,1.17,-4.47,stop,4
9.61,1145750.647513494,29,3,3,3,0,-8.61,1.15,-4.73,0.03,-0.02,-0.26,0.5,-3.5625,1.625,0.4447021484375,0.5400390625,0.66058349609375,-0.2724609375,23.875,56.6875,62.0625,-8.64,1.17,-4.47,stop,4
9.62,1145750.678158066,29,3,3,3,0,-8.59,1.17,-4.65,0.05,0.0,-0.18,0.5,-3.3125,1.6875,0.44488525390625,0.5400390625,0.660400390625,-0.27252197265625,23.875,56.6875,62.0625,-8.64,1.18,-4.46,stop,4
9.63,1145750.678158066,29,3,3,3,0,-8.59,1.14,-4.57,0.05,-0.04,-0.11,0.25,-2.6875,1.5,0.44500732421875,0.54010009765625,0.6602783203125,-0.2725830078125,23.875,56.6875,62.0625,-8.65,1.18,-4.46,stop,4
9.64,1145750.692972845,29,3,3,3,0,-8.61,1.15,-4.61,0.03,-0.03,-0.15,0.1875,-2.25,1.5,0.44512939453125,0.5401611328125,0.66015625,-0.2725830078125,23.875,56.6875,62.0625,-8.65,1.18,-4.46,stop,4
9.65,1145750.692972845,29,3,3,3,0,-8.6,1.15,-4.48,0.04,-0.03,-0.02,-0.1875,-2.1875,1.3125,0.44525146484375,0.5401611328125,0.65997314453125,-0.27264404296875,23.1875,56.6875,62.75,-8.65,1.18,-4.45,stop,4
9.66,1145750.708069728,29,3,3,3,0,-8.58,1.13,-4.48,0.06,-0.05,-0.02,-0.5625,-1.5,1.3125,0.44537353515625,0.54022216796875,0.659912109375,-0.27264404296875,23.1875,56.6875,62.75,-8.65,1.19,-4.45,stop,4
9.67,1145750.708069728,29,3,3,3,0,-8.59,1.11,-4.57,0.05,-0.07,-0.11,-0.875,-1.0625,1.375,0.44549560546875,0.54022216796875,0.65985107421875,-0.2725830078125,23.1875,56.6875,62.75,-8.65,1.19,-4.45,stop,4
9.68,1145750.740290716,29,3,3,3,0,-8.58,1.13,-4.63,0.06,-0.05,-0.17,-0.75,-1.5625,0.875,0.44561767578125,0.54022216796875,0.6597900390625,-0.2725830078125,23.1875,56.6875,62.75,-8.65,1.19,-4.45,stop,4
9.69,1145750.740290716,29,3,3,3,0,-8.58,1.13,-4.57,0.07,-0.06,-0.11,-0.625,-2.625,0.75,0.44580078125,0.5401611328125,0.65966796875,-0.2725830078125,23.1875,56.6875,62.75,-8.65,1.19,-4.45,stop,4
9.7,1145750.752782456,29,3,3,3,0,-8.58,1.13,-4.58,0.07,-0.06,-0.13,-0.4375,-3.6875,0.375,0.4459228515625,0.54010009765625,0.6595458984375,-0.27276611328125,23.5625,56.25,61.6875,-8.65,1.19,-4.44,stop,4
9.71,1145750.752782456,29,3,3,3,0,-8.59,1.17,-4.57,0.06,-0.01,-0.13,-0.5,-4.0,0.0,0.44610595703125,0.5400390625,0.659423828125,-0.27294921875,23.5625,56.25,61.6875,-8.66,1.19,-4.44,stop,4
9.72,1145750.768935979,29,3,3,3,0,-8.58,1.21,-4.56,0.07,0.02,-0.12,-0.8125,-3.5625,-0.3125,0.44635009765625,0.5399169921875,0.6593017578125,-0.27301025390625,23.5625,56.25,61.6875,-8.66,1.19,-4.43,stop,4
9.73,1145750.768935979,29,3,3,3,0,-8.6,1.21,-4.48,0.05,0.02,-0.05,-1.3125,-3.125,-0.5,0.44659423828125,0.539794921875,0.65924072265625,-0.2730712890625,23.5625,56.25,61.6875,-8.66,1.19,-4.43,stop,4
9.74,1145750.799235865,29,3,3,3,0,-8.61,1.25,-4.49,0.04,0.05,-0.06,-1.25,-3.1875,-0.4375,0.44677734375,0.5396728515625,0.6591796875,-0.27313232421875,23.5625,56.25,61.6875,-8.66,1.19,-4.42,stop,4
9.75,1145750.799235865,29,3,3,3,0,-8.65,1.31,-4.49,0.01,0.12,-0.07,-0.9375,-3.4375,-0.25,0.447021484375,0.53961181640625,0.6590576171875,-0.27325439453125,23.875,56.25,62.0,-8.67,1.19,-4.42,stop,4
9.76,1145750.814665065,29,3,3,3,0,-8.65,1.31,-4.47,0.02,0.11,-0.05,-0.375,-3.3125,0.0,0.44720458984375,0.53955078125,0.658935546875,-0.27337646484375,23.875,56.25,62.0,-8.67,1.19,-4.41,stop,4
9.77,1145750.814665065,29,3,3,3,0,-8.68,1.31,-4.44,0.0,0.11,-0.02,-0.0625,-2.5,0.4375,0.4473876953125,0.53948974609375,0.6588134765625,-0.27349853515625,23.875,56.25,62.0,-8.67,1.19,-4.41,stop,4
9.78,1145750.827982122,29,3,3,3,0,-8.72,1.34,-4.41,-0.04,0.14,0.0,-0.1875,-1.9375,0.6875,0.447509765625,0.53948974609375,0.65869140625,-0.27349853515625,23.875,56.25,62.0,-8.67,1.2,-4.41,stop,4
9.79,1145750.827982122,29,3,3,3,0,-8.77,1.31,-4.41,-0.1,0.11,0.0,-0.75,-1.4375,1.1875,0.4476318359375,0.53948974609375,0.65863037109375,-0.27349853515625,23.875,56.25,62.0,-8.67,1.2,-4.4,stop,4
9.8,1145750.860644435,29,3,3,3,0,-8.76,1.25,-4.41,-0.09,0.04,0.0,-1.875,-1.1875,1.25,0.44781494140625,0.53948974609375,0.6585693359375,-0.27337646484375,23.5625,56.5625,61.5625,-8.67,1.2,-4.4,stop,4
9.81,1145750.860644435,29,3,3,3,0,-8.71,1.21,-4.44,-0.04,0.0,-0.03,-2.5625,-0.8125,1.25,0.44805908203125,0.5394287109375,0.65850830078125,-0.273193359375,23.5625,56.5625,61.5625,-8.67,1.21,-4.4,stop,4
9.82,1145750.873254908,29,3,3,3,0,-8.7,1.18,-4.48,-0.03,-0.03,-0.08,-2.9375,-0.75,1.1875,0.4482421875,0.53936767578125,0.65850830078125,-0.27301025390625,23.5625,56.5625,61.5625,-8.67,1.21,-4.4,stop,4
9.83,1145750.873254908,29,3,3,3,0,-8.65,1.14,-4.49,0.02,-0.07,-0.09,-3.0,-0.875,1.1875,0.448486328125,0.539306640625,0.65850830078125,-0.2728271484375,23.5625,56.5625,61.5625,-8.67,1.21,-4.4,stop,4
9.84,1145750.903711451,29,3,3,3,0,-8.62,1.12,-4.52,0.05,-0.1,-0.12,-2.6875,-0.3125,0.8125,0.4486083984375,0.53924560546875,0.65850830078125,-0.27264404296875,23.5625,56.5625,61.5625,-8.67,1.22,-4.4,stop,4
9.85,1145750.903711451,29,3,3,3,0,-8.61,1.14,-4.48,0.05,-0.07,-0.08,-2.3125,-0.125,0.75,0.44866943359375,0.5391845703125,0.6585693359375,-0.2724609375,23.5625,55.875,62.0625,-8.67,1.22,-4.4,stop,4
9.86,1145750.918874212,29,3,3,3,0,-8.59,1.2,-4.45,0.08,-0.01,-0.04,-2.0625,-0.25,0.875,0.44879150390625,0.5391845703125,0.6585693359375,-0.2723388671875,23.5625,55.875,62.0625,-8.67,1.22,-4.4,stop,4
9.87,1145750.918874212,29,3,3,3,0,-8.57,1.25,-4.46,0.1,0.02,-0.06,-1.875,-0.4375,0.875,0.4488525390625,0.5391845703125,0.6585693359375,-0.27215576171875,23.5625,55.875,62.0625,-8.67,1.23,-4.4,stop,4
9.88,1145750.933312119,29,3,3,3,0,-8.57,1.32,-4.45,0.1,0.09,-0.05,-1.8125,-0.6875,1.0,0.44903564453125,0.53912353515625,0.6585693359375,-0.27203369140625,23.5625,55.875,62.0625,-8.67,1.23,-4.4,stop,4
9.89,1145750.933312119,29,3,3,3,0,-8.54,1.38,-4.44,0.13,0.14,-0.04,-1.875,-0.8125,1.1875,0.44915771484375,0.53912353515625,0.65850830078125,-0.27191162109375,23.5625,55.875,62.0625,-8.67,1.23,-4.39,stop,4
9.9,1145750.963251206,29,3,3,3,0,-8.58,1.46,-4.44,0.09,0.22,-0.04,-1.625,-0.9375,1.5625,0.4493408203125,0.5391845703125,0.658447265625,-0.271728515625,24.5625,56.5625,61.1875,-8.67,1.24,-4.39,stop,4
9.91,1145750.963251206,29,3,3,3,0,-8.6,1.51,-4.39,0.07,0.26,0.0,-1.4375,-1.0,1.875,0.44952392578125,0.53924560546875,0.6583251953125,-0.27154541015625,24.5625,56.5625,61.1875,-8.67,1.24,-4.39,stop,4
9.92,1145750.977992213,29,3,3,3,0,-8.63,1.52,-4.38,0.04,0.27,0.0,-0.875,-1.125,2.25,0.44970703125,0.53936767578125,0.658203125,-0.2713623046875,24.5625,56.5625,61.1875,-8.67,1.25,-4.39,stop,4
9.93,1145750.977992213,29,3,3,3,0,-8.69,1.54,-4.33,-0.01,0.28,0.05,-0.5,-0.5625,2.375,0.44989013671875,0.53948974609375,0.65802001953125,-0.271240234375,24.5625,56.5625,61.1875,-8.67,1.25,-4.39,stop,4
9.94,1145751.008251368,29,3,3,3,0,-8.72,1.53,-4.37,-0.04,0.27,0.01,0.0,-0.125,2.8125,0.45001220703125,0.53973388671875,0.6578369140625,-0.27105712890625,24.5625,56.5625,61.1875,-8.67,1.26,-4.39,stop,4
9.95,1145751.008251368,29,3,3,3,0,-8.7,1.51,-4.43,-0.03,0.23,-0.03,1.0,-0.375,2.8125,0.4500732421875,0.53997802734375,0.65765380859375,-0.27093505859375,23.1875,55.875,62.375,-8.67,1.27,-4.39,stop,4
9.96,1145751.013929917,29,3,3,3,0,-8.66,1.48,-4.45,0.0,0.2,-0.05,2.125,-0.875,3.0625,0.45013427734375,0.54022216796875,0.65740966796875,-0.27093505859375,23.1875,55.875,62.375,-8.67,1.27,-4.39,stop,4
9.97,1145751.013929917,29,3,3,3,0,-8.65,1.47,-4.44,0.01,0.19,-0.04,2.75,-0.3125,3.0625,0.4500732421875,0.54058837890625,0.65716552734375,-0.2708740234375,23.1875,55.875,62.375,-8.67,1.28,-4.39,stop,4
9.98,1145751.037443222,29,3,3,3,0,-8.69,1.42,-4.4,-0.01,0.14,0.0,3.1875,-0.1875,3.3125,0.45001220703125,0.5408935546875,0.65692138671875,-0.2708740234375,23.1875,55.875,62.375,-8.67,1.28,-4.39,stop,4
9.99,1145751.037443222,29,3,3,3,0,-8.69,1.39,-4.36,-0.01,0.1,0.03,3.5625,-0.125,3.25,0.449951171875,0.541259765625,0.6566162109375,-0.27093505859375,23.1875,55.875,62.375,-8.67,1.28,-4.39,stop,4
10.0,1145751.052797999,29,3,3,3,0,-8.73,1.4,-4.35,-0.06,0.11,0.04,3.4375,-0.5625,3.25,0.44989013671875,0.54156494140625,0.6563720703125,-0.27105712890625,23.5625,57.0,61.1875,-8.67,1.28,-4.39,stop,4
10.01,1145751.052797999,29,3,3,3,0,-8.74,1.39,-4.36,-0.07,0.1,0.03,3.4375,-0.8125,3.1875,0.44989013671875,0.5418701171875,0.65606689453125,-0.2711181640625,23.5625,57.0,61.1875,-8.67,1.29,-4.39,stop,4
10.02,1145751.067666692,29,3,3,3,0,-8.72,1.4,-4.42,-0.05,0.1,-0.03,3.6875,-0.625,3.1875,0.4498291015625,0.542236328125,0.65582275390625,-0.271240234375,23.5625,57.0,61.1875,-8.67,1.29,-4.39,stop,4
10.03,1145751.067666692,29,3,3,3,0,-8.72,1.39,-4.38,-0.05,0.09,0.0,3.8125,-0.1875,3.125,0.44970703125,0.54254150390625,0.65557861328125,-0.27130126953125,23.5625,57.0,61.1875,-8.66,1.29,-4.39,stop,4
10.04,1145751.098162949,29,3,3,3,0,-8.7,1.41,-4.36,-0.04,0.11,0.03,3.875,0.125,3.1875,0.44964599609375,0.54290771484375,0.65533447265625,-0.27142333984375,23.5625,57.0,61.1875,-8.66,1.29,-4.39,stop,4
10.05,1145751.098162949,29,3,3,3,0,-8.7,1.4,-4.33,-0.04,0.09,0.06,4.125,0.3125,3.1875,0.44952392578125,0.543212890625,0.65509033203125,-0.271484375,23.875,56.25,61.1875,-8.66,1.3,-4.39,stop,4
10.06,1145751.112362982,29,3,3,3,0,-8.69,1.44,-4.33,-0.02,0.14,0.06,4.375,0.5625,3.25,0.4493408203125,0.54364013671875,0.65478515625,-0.2716064453125,23.875,56.25,61.1875,-8.66,1.3,-4.39,stop,4
10.07,1145751.112362982,29,3,3,3,0,-8.69,1.44,-4.33,-0.02,0.14,0.06,4.1875,0.625,3.25,0.44921875,0.54400634765625,0.654541015625,-0.27166748046875,23.875,56.25,61.1875,-8.66,1.3,-4.4,stop,4
10.08,1145751.127399277,29,3,3,3,0,-8.64,1.46,-4.32,0.01,0.15,0.08,3.8125,0.6875,2.9375,0.4490966796875,0.54437255859375,0.65435791015625,-0.271728515625,23.875,56.25,61.1875,-8.66,1.3,-4.4,stop,4
10.09,1145751.127399277,29,3,3,3,0,-8.58,1.45,-4.31,0.07,0.14,0.08,3.375,0.625,3.0,0.448974609375,0.544677734375,0.65411376953125,-0.271728515625,23.875,56.25,61.1875,-8.66,1.31,-4.4,stop,4
10.1,1145751.158450954,29,3,3,3,0,-8.57,1.43,-4.31,0.08,0.12,0.08,2.8125,0.3125,2.9375,0.448974609375,0.54498291015625,0.6539306640625,-0.271728515625,23.875,56.25,60.75,-8.66,1.31,-4.4,stop,4
10.11,1145751.158450954,29,3,3,3,0,-8.54,1.41,-4.36,0.11,0.09,0.04,2.875,0.125,2.8125,0.44891357421875,0.5452880859375,0.6536865234375,-0.27178955078125,23.875,56.25,60.75,-8.66,1.31,-4.4,stop,4
10.12,1145751.173502752,29,3,3,3,0,-8.52,1.4,-4.39,0.13,0.08,0.0,3.3125,0.0,2.8125,0.44879150390625,0.54559326171875,0.6534423828125,-0.2718505859375,23.875,56.25,60.75,-8.66,1.31,-4.4,stop,4
10.13,1145751.173502752,29,3,3,3,0,-8.54,1.39,-4.33,0.11,0.07,0.07,3.75,0.0,3.0,0.44873046875,0.5458984375,0.6531982421875,-0.27191162109375,23.875,56.25,60.75,-8.66,1.32,-4.4,stop,4
10.14,1145751.189577947,29,3,3,3,0,-8.57,1.36,-4.28,0.08,0.04,0.11,3.9375,-0.0625,2.6875,0.4486083984375,0.54620361328125,0.65301513671875,-0.27203369140625,23.875,56.25,60.75,-8.65,1.32,-4.4,stop,4
10.15,1145751.189577947,29,3,3,3,0,-8.6,1.34,-4.3,0.05,0.02,0.1,3.75,-0.4375,2.625,0.448486328125,0.5465087890625,0.65277099609375,-0.27215576171875,24.5625,56.25,60.375,-8.65,1.32,-4.4,stop,4
10.16,1145751.219103297,29,3,3,3,0,-8.62,1.35,-4.33,0.03,0.02,0.07,3.625,-1.125,2.5625,0.44842529296875,0.54681396484375,0.65252685546875,-0.27227783203125,24.5625,56.25,60.375,-8.65,1.32,-4.4,stop,4
10.17,1145751.219103297,29,3,3,3,0,-8.59,1.32,-4.47,0.06,0.0,-0.06,3.4375,-1.9375,2.25,0.44842529296875,0.5469970703125,0.6522216796875,-0.27252197265625,24.5625,56.25,60.375,-8.66,1.32,-4.4,stop,4
10.18,1145751.233177964,29,3,3,3,0,-8.6,1.31,-4.48,0.05,-0.01,-0.08,3.375,-2.5,2.125,0.448486328125,0.54718017578125,0.6519775390625,-0.272705078125,24.5625,56.25,60.375,-8.66,1.32,-4.4,stop,4
10.19,1145751.233177964,29,3,3,3,0,-8.57,1.33,-4.5,0.08,0.0,-0.1,3.5,-3.0,2.0625,0.448486328125,0.54742431640625,0.65167236328125,-0.27294921875,24.5625,56.25,60.375,-8.66,1.32,-4.39,stop,4
10.2,1145751.263216985,29,3,3,3,0,-8.55,1.33,-4.48,0.11,0.01,-0.09,3.5,-3.5,2.0,0.4486083984375,0.547607421875,0.6513671875,-0.27325439453125,24.25,55.5625,61.5625,-8.66,1.32,-4.39,stop,4
10.21,1145751.263216985,29,3,3,3,0,-8.54,1.36,-4.49,0.12,0.04,-0.1,3.5,-3.8125,1.625,0.44866943359375,0.5477294921875,0.65106201171875,-0.2735595703125,24.25,55.5625,61.5625,-8.66,1.32,-4.39,stop,4
10.22,1145751.278312282,29,3,3,3,0,-8.52,1.36,-4.5,0.14,0.03,-0.12,3.125,-3.5625,1.6875,0.44873046875,0.54791259765625,0.6507568359375,-0.2738037109375,24.25,55.5625,61.5625,-8.66,1.32,-4.38,stop,4
10.23,1145751.278312282,29,3,3,3,0,-8.47,1.32,-4.5,0.2,0.0,-0.12,2.5625,-3.4375,1.5,0.44879150390625,0.54803466796875,0.6505126953125,-0.2740478515625,24.25,55.5625,61.5625,-8.67,1.32,-4.38,stop,4
10.24,1145751.293428371,29,3,3,3,0,-8.33,1.25,-4.38,0.33,-0.07,-0.01,2.125,-4.125,1.5,0.44891357421875,0.548095703125,0.6502685546875,-0.2742919921875,24.25,55.5625,61.5625,-8.67,1.32,-4.37,stop,4
10.25,1145751.293428371,29,3,3,3,0,-8.26,1.29,-4.37,0.4,-0.03,0.0,1.625,-4.9375,1.5625,0.44915771484375,0.54815673828125,0.64996337890625,-0.27447509765625,24.5625,55.875,59.6875,-8.67,1.32,-4.37,stop,4
10.26,1145751.308338405,29,3,3,3,0,-8.17,1.35,-4.34,0.5,0.02,0.01,1.625,-5.875,1.4375,0.449462890625,0.54815673828125,0.64959716796875,-0.27484130859375,24.5625,55.875,59.6875,-8.68,1.33,-4.36,stop,4
10.27,1145751.308338405,29,3,3,3,0,-8.13,1.39,-4.31,0.55,0.06,0.04,1.625,-6.875,1.5,0.44976806640625,0.54815673828125,0.64923095703125,-0.27520751953125,24.5625,55.875,59.6875,-8.68,1.33,-4.35,stop,4
10.28,1145751.340477158,29,3,3,3,0,-7.99,1.37,-4.22,0.7,0.04,0.12,1.625,-8.0,1.5,0.4501953125,0.548095703125,0.6488037109375,-0.27557373046875,24.5625,55.875,59.6875,-8.69,1.33,-4.34,stop,4
10.29,1145751.340477158,29,3,3,3,0,-7.83,1.33,-4.15,0.85,0.0,0.17,1.1875,-8.875,1.375,0.45068359375,0.54803466796875,0.64837646484375,-0.2760009765625,24.5625,55.875,59.6875,-8.69,1.33,-4.32,stop,4
10.3,1145751.353526556,29,3,3,3,0,-7.56,1.3,-4.0,1.14,-0.03,0.3,0.375,-9.5,1.5625,0.45123291015625,0.54791259765625,0.64788818359375,-0.27642822265625,25.375,55.5625,60.875,-8.7,1.33,-4.31,stop,4
10.31,1145751.353526556,29,3,3,3,0,-7.56,1.3,-4.0,1.14,-0.03,0.3,0.375,-9.5,1.5625,0.45123291015625,0.54791259765625,0.64788818359375,-0.27642822265625,25.375,55.5625,60.875,-8.7,1.33,-4.31,stop,4
10.31,1145751.368749497,29,3,3,3,0,-7.18,1.21,-3.88,1.52,-0.12,0.41,-0.25,-9.8125,1.6875,0.45184326171875,0.54779052734375,0.6474609375,-0.27679443359375,25.375,55.5625,60.875,-8.71,1.33,-4.29,stop,4
10.32,1145751.368749497,29,3,3,3,0,-6.31,1.06,-3.74,2.4,-0.27,0.53,-0.1875,-8.9375,2.1875,0.452392578125,0.54766845703125,0.64697265625,-0.27716064453125,25.375,55.5625,60.875,-8.71,1.34,-4.28,stop,4
10.33,1145751.385980861,29,3,3,3,0,-5.8,1.01,-3.65,2.91,-0.33,0.61,0.4375,-7.0625,2.625,0.452880859375,0.54766845703125,0.64654541015625,-0.27740478515625,25.375,55.5625,60.875,-8.72,1.34,-4.27,stop,4
10.34,1145751.385980861,29,3,3,3,0,-5.17,1.01,-3.58,3.54,-0.33,0.68,1.4375,-4.5,3.4375,0.453125,0.54779052734375,0.64617919921875,-0.27752685546875,25.375,55.5625,60.875,-8.72,1.35,-4.26,stop,4
10.35,1145751.398735296,29,3,3,3,0,-4.5,0.96,-3.49,4.22,-0.39,0.76,1.875,-1.1875,4.4375,0.45318603515625,0.548095703125,0.6458740234375,-0.27752685546875,25.0,55.875,59.6875,-8.72,1.35,-4.26,stop,4
10.36,1145751.398735296,29,3,3,3,0,-3.39,0.88,-3.29,5.32,-0.47,0.97,1.25,2.5625,4.875,0.453125,0.5484619140625,0.645751953125,-0.27728271484375,25.0,55.875,59.6875,-8.72,1.36,-4.27,stop,4
10.37,1145751.42864118,29,3,3,3,0,-2.92,0.87,-2.92,5.78,-0.49,1.35,0.0,7.8125,4.0625,0.4527587890625,0.54888916015625,0.64581298828125,-0.2767333984375,25.0,55.875,59.6875,-8.71,1.36,-4.28,stop,4
10.38,1145751.42864118,29,3,3,3,0,-2.69,0.67,-2.4,6.0,-0.7,1.9,-3.0,17.625,2.625,0.45196533203125,0.54937744140625,0.646484375,-0.27557373046875,25.0,55.875,59.6875,-8.7,1.37,-4.31,stop,4
10.39,1145751.442930812,29,3,3,3,0,-2.96,0.41,-2.0,5.71,-0.96,2.34,-4.875,28.5625,0.0625,0.45062255859375,0.54986572265625,0.647705078125,-0.27392578125,25.0,55.875,59.6875,-8.67,1.37,-4.35,stop,4
10.4,1145751.442930812,29,3,3,3,0,-5.13,-0.51,-1.59,3.52,-1.89,2.8,-3.3125,34.625,-3.0625,0.44873046875,0.5504150390625,0.6492919921875,-0.272216796875,25.375,55.5625,60.5,-8.65,1.37,-4.4,stop,4
10.41,1145751.473554103,29,3,3,3,0,-6.77,-1.05,-1.64,1.85,-2.41,2.8,3.375,30.5625,-7.0625,0.4466552734375,0.55084228515625,0.6507568359375,-0.27117919921875,25.375,55.5625,60.5,-8.63,1.36,-4.45,stop,4
10.42,1145751.473554103,29,3,3,3,0,-8.9,-0.76,-1.71,-0.28,-2.1,2.76,15.25,17.3125,-10.125,0.4447021484375,0.55126953125,0.65155029296875,-0.2716064453125,25.375,55.5625,60.5,-8.61,1.33,-4.48,stop,4
10.43,1145751.489634873,29,3,3,3,0,-14.34,1.65,-2.06,-5.71,0.36,2.41,34.0625,-3.8125,-11.5,0.4429931640625,0.5518798828125,0.65118408203125,-0.274169921875,25.375,55.5625,60.5,-8.62,1.29,-4.48,stop,4
10.44,1145751.489634873,29,3,3,3,0,-16.79,2.33,-2.67,-8.14,1.1,1.77,50.5,-28.375,-14.1875,0.44183349609375,0.55230712890625,0.6495361328125,-0.27899169921875,25.375,55.5625,60.5,-8.65,1.23,-4.45,stop,4
10.45,1145751.503777777,29,3,3,3,0,-19.11,3.39,-8.58,-10.41,2.22,-4.21,56.6875,-57.0,-15.5,0.44195556640625,0.55224609375,0.646728515625,-0.2855224609375,23.5625,55.875,60.75,-8.69,1.16,-4.37,stop,4
10.46,1145751.503777777,29,3,3,3,0,-20.51,4.34,-13.89,-11.7,3.23,-9.73,43.5,-147.6875,-15.4375,0.44775390625,0.54931640625,0.640625,-0.295654296875,23.5625,55.875,60.75,-8.81,1.1,-4.16,stop,4
10.47,1145751.518271592,29,3,3,3,0,-28.12,3.44,-11.96,-19.16,2.36,-8.12,2.25,-202.3125,-19.8125,0.4583740234375,0.54296875,0.63348388671875,-0.30621337890625,23.5625,55.875,60.75,-8.95,1.07,-3.84,stop,4
10.48,1145751.518271592,29,3,3,3,0,-31.38,4.97,-12.0,-22.38,3.94,-8.25,-1.875,-60.625,-27.875,0.4610595703125,0.53973388671875,0.6324462890625,-0.31011962890625,23.5625,55.875,60.75,-9.0,1.03,-3.75,stop,4
10.49,1145751.54887706,29,3,3,3,0,-28.69,3.19,-10.97,-19.71,2.21,-7.16,16.125,34.9375,-29.1875,0.45758056640625,0.53973388671875,0.634765625,-0.31048583984375,23.5625,55.875,60.75,-8.98,0.97,-3.8,stop,4
10.5,1145751.54887706,29,3,3,3,0,-26.02,1.14,-9.72,-17.07,0.2,-5.83,16.125,52.6875,-15.5625,0.45343017578125,0.5408935546875,0.63714599609375,-0.3095703125,24.5625,57.6875,57.6875,-8.95,0.94,-3.89,stop,4
10.51,1145751.563920029,29,3,3,3,0,-22.22,1.55,-9.63,-13.29,0.62,-5.67,3.125,39.9375,-7.625,0.45086669921875,0.54168701171875,0.63897705078125,-0.30816650390625,24.5625,57.6875,57.6875,-8.92,0.92,-3.95,stop,4
10.52,1145751.563920029,29,3,3,3,0,-20.41,2.4,-9.39,-11.51,1.48,-5.38,-6.6875,30.375,-9.1875,0.44927978515625,0.541748046875,0.64080810546875,-0.30670166015625,24.5625,57.6875,57.6875,-8.9,0.91,-4.0,stop,4
10.53,1145751.593987493,29,3,3,3,0,-18.7,2.11,-8.37,-9.83,1.2,-4.28,-3.3125,52.5625,-8.75,0.44622802734375,0.54248046875,0.64337158203125,-0.30438232421875,24.5625,57.6875,57.6875,-8.86,0.9,-4.08,stop,4
10.54,1145751.593987493,29,3,3,3,0,-16.63,0.86,-6.95,-7.82,-0.01,-2.73,6.5625,88.25,-9.3125,0.44073486328125,0.5445556640625,0.64703369140625,-0.3009033203125,24.5625,57.6875,57.6875,-8.8,0.88,-4.22,stop,4
10.55,1145751.608307277,29,3,3,3,0,-12.48,0.06,-4.41,-3.75,-0.79,-0.02,10.875,109.625,-12.5625,0.43365478515625,0.547119140625,0.65155029296875,-0.29681396484375,24.25,57.6875,58.875,-8.72,0.86,-4.39,stop,4
10.56,1145751.608307277,29,3,3,3,0,-10.48,0.26,-3.29,-1.83,-0.56,1.24,8.9375,102.75,-14.75,0.427001953125,0.54925537109375,0.6558837890625,-0.29296875,24.25,57.6875,58.875,-8.64,0.83,-4.54,stop,4
10.57,1145751.613867295,29,3,3,3,0,-10.48,0.26,-3.29,-1.83,-0.56,1.24,8.9375,102.75,-14.75,0.427001953125,0.54925537109375,0.6558837890625,-0.29296875,24.25,57.6875,58.875,-8.64,0.83,-4.54,stop,4
10.57,1145751.613867295,29,3,3,3,0,-8.5,0.72,-2.57,0.07,-0.08,2.1,6.625,88.3125,-16.5,0.42120361328125,0.55078125,0.6597900390625,-0.28973388671875,24.25,57.6875,58.875,-8.58,0.8,-4.68,stop,4
10.58,1145751.638873236,29,3,3,3,0,-6.16,0.99,-1.89,2.34,0.22,2.92,0.125,92.1875,-18.5625,0.4154052734375,0.552001953125,0.66400146484375,-0.28594970703125,24.25,57.6875,58.875,-8.5,0.77,-4.81,stop,4
10.59,1145751.638873236,29,3,3,3,0,-4.65,1.17,-1.45,3.76,0.42,3.51,-6.3125,105.0,-16.9375,0.4091796875,0.55340576171875,0.66876220703125,-0.2811279296875,24.25,57.6875,58.875,-8.41,0.75,-4.97,stop,4
10.6,1145751.653822088,29,3,3,3,0,-3.53,1.22,-1.0,4.77,0.48,4.13,-12.75,118.3125,-14.375,0.40252685546875,0.55499267578125,0.6739501953125,-0.27520751953125,23.875,58.0625,60.0625,-8.31,0.74,-5.14,stop,4
10.61,1145751.653822088,29,3,3,3,0,-2.26,1.07,-1.14,5.93,0.33,4.18,-18.375,131.4375,-11.0625,0.39544677734375,0.5567626953125,0.67950439453125,-0.26812744140625,23.875,58.0625,60.0625,-8.19,0.74,-5.32,stop,4
10.62,1145751.684935654,29,3,3,3,0,0.51,0.56,-0.5,8.58,-0.19,5.01,-25.1875,135.0625,-5.6875,0.38848876953125,0.5587158203125,0.68499755859375,-0.26025390625,23.875,58.0625,60.0625,-8.07,0.76,-5.51,stop,4
10.63,1145751.684935654,29,3,3,3,0,1.29,0.57,-0.18,9.23,-0.21,5.52,-28.1875,134.9375,2.5625,0.3818359375,0.5609130859375,0.69000244140625,-0.25189208984375,23.875,58.0625,60.0625,-7.93,0.79,-5.7,stop,4
10.64,1145751.698843695,29,3,3,3,0,1.43,0.26,0.16,9.22,-0.56,6.06,-26.9375,145.0625,9.625,0.3746337890625,0.563720703125,0.69488525390625,-0.24285888671875,23.875,58.0625,60.0625,-7.79,0.83,-5.89,stop,4
10.65,1145751.698843695,29,3,3,3,0,2.15,-0.16,0.34,9.78,-1.02,6.44,-15.5,149.6875,14.0,0.3665771484375,0.56719970703125,0.6993408203125,-0.23406982421875,23.1875,57.0,63.5,-7.63,0.86,-6.09,stop,4
10.66,1145751.714044948,29,3,3,3,0,3.62,0.15,0.54,11.09,-0.73,6.83,2.1875,146.0,18.5625,0.35791015625,0.57135009765625,0.7030029296875,-0.22637939453125,23.1875,57.0,63.5,-7.47,0.88,-6.28,stop,4
10.67,1145751.714044948,29,3,3,3,0,3.98,0.37,1.08,11.29,-0.51,7.56,16.8125,143.25,15.0,0.34857177734375,0.5755615234375,0.70635986328125,-0.21978759765625,23.1875,57.0,63.5,-7.31,0.89,-6.47,stop,4
10.68,1145751.744397324,29,3,3,3,0,4.01,0.39,3.13,11.19,-0.46,9.76,38.9375,116.75,7.8125,0.33953857421875,0.57940673828125,0.70867919921875,-0.216064453125,23.1875,57.0,63.5,-7.17,0.85,-6.62,moving,4
10.69,1145751.744397324,29,3,3,3,0,3.72,0.22,6.33,10.82,-0.56,13.04,70.125,62.5,8.25,0.33233642578125,0.58319091796875,0.70880126953125,-0.21697998046875,23.1875,57.0,63.5,-7.1,0.78,-6.71,moving,4
10.7,1145751.758662542,29,3,3,3,0,3.69,0.66,9.26,10.8,-0.02,15.98,90.1875,-8.6875,8.0625,0.32843017578125,0.58612060546875,0.7064208984375,-0.2227783203125,21.75,56.25,64.6875,-7.11,0.68,-6.71,moving,4
10.71,1145751.758662542,29,3,3,3,0,1.74,1.28,9.55,8.96,0.67,16.15,82.0,-98.1875,8.6875,0.3304443359375,0.5870361328125,0.70147705078125,-0.23260498046875,21.75,56.25,64.6875,-7.22,0.6,-6.6,moving,4
10.72,1145751.773339137,29,3,3,3,0,-1.24,1.16,7.24,6.14,0.59,13.65,43.125,-153.75,9.625,0.33782958984375,0.585693359375,0.69561767578125,-0.2427978515625,21.75,56.25,64.6875,-7.39,0.56,-6.41,moving,4
10.73,1145751.773339137,29,3,3,3,0,-3.13,0.46,5.63,4.47,-0.08,11.79,19.75,-189.75,3.5625,0.348388671875,0.5823974609375,0.6893310546875,-0.2535400390625,21.75,56.25,64.6875,-7.6,0.55,-6.16,moving,4
10.74,1145751.804464911,29,3,3,3,0,-1.96,-0.54,2.65,5.85,-1.08,8.55,6.5,-201.125,-5.875,0.3599853515625,0.57769775390625,0.6832275390625,-0.26434326171875,21.75,56.25,64.6875,-7.81,0.53,-5.89,moving,4
10.75,1145751.804464911,29,3,3,3,0,-1.2,-0.15,1.06,6.8,-0.67,6.7,-0.8125,-187.6875,-6.375,0.37103271484375,0.5728759765625,0.6776123046875,-0.27392578125,20.5,57.375,64.5,-8.0,0.52,-5.63,moving,4
10.76,1145751.818475287,29,3,3,3,0,-1.23,0.04,-1.27,6.92,-0.49,4.14,-10.125,-156.75,-0.1875,0.38079833984375,0.5687255859375,0.67266845703125,-0.2811279296875,20.5,57.375,64.5,-8.15,0.53,-5.41,moving,4
10.77,1145751.818475287,29,3,3,3,0,-1.87,0.12,-4.42,6.4,-0.45,0.79,-42.25,-127.6875,3.8125,0.39044189453125,0.56439208984375,0.66925048828125,-0.28485107421875,20.5,57.375,64.5,-8.27,0.58,-5.22,moving,4
10.78,1145751.83405451,29,3,3,3,0,-2.54,-0.38,-4.61,5.82,-1.06,0.44,-97.0,-103.6875,7.6875,0.4014892578125,0.55889892578125,0.66766357421875,-0.28399658203125,20.5,57.375,64.5,-8.37,0.68,-5.06,moving,4
10.79,1145751.83405451,29,3,3,3,0,-3.51,-1.9,-5.3,4.92,-2.73,-0.38,-155.25,-81.0625,9.4375,0.41400146484375,0.55194091796875,0.6680908203125,-0.278564453125,20.5,57.375,64.5,-8.44,0.83,-4.92,moving,4
10.8,1145751.8646046,29,3,3,3,0,-6.24,-4.23,-11.52,2.19,-5.21,-6.63,-155.0,-5.25,14.3125,0.42205810546875,0.5469970703125,0.6708984375,-0.26922607421875,22.0,57.375,60.875,-8.44,0.98,-4.89,moving,4
10.81,1145751.8646046,29,3,3,3,0,-10.71,3.5,-25.86,-2.43,2.45,-20.71,-25.6875,182.0625,30.3125,0.413330078125,0.55206298828125,0.67669677734375,-0.2579345703125,22.0,57.375,60.875,-8.27,1.05,-5.15,moving,4
10.82,1145751.870134914,29,3,3,3,0,-12.95,3.29,-23.81,-4.84,2.19,-18.4,5.3125,180.3125,37.3125,0.4031982421875,0.55841064453125,0.68121337890625,-0.2481689453125,22.0,57.375,60.875,-8.1,1.1,-5.41,moving,4
10.83,1145751.870134914,29,3,3,3,0,-12.95,3.29,-23.81,-4.84,2.19,-18.4,5.3125,180.3125,37.3125,0.4031982421875,0.55841064453125,0.68121337890625,-0.2481689453125,22.0,57.375,60.875,-8.1,1.1,-5.41,moving,4
10.83,1145751.894374131,29,3,3,3,0,-11.89,1.76,-12.35,-3.74,0.6,-7.03,-41.8125,-54.4375,15.5625,0.4088134765625,0.55670166015625,0.67938232421875,-0.247802734375,22.0,57.375,60.875,-8.15,1.16,-5.32,moving,4
10.84,1145751.894374131,29,3,3,3,0,-14.68,1.11,-6.9,-6.33,-0.07,-1.9,-20.3125,-220.0,6.375,0.4228515625,0.551513671875,0.67156982421875,-0.2569580078125,22.0,57.375,60.875,-8.34,1.18,-5.0,moving,4
10.85,1145751.910576198,29,3,3,3,0,-33.97,1.65,-10.36,-25.39,0.47,-5.75,23.0625,-270.0,3.875,0.43756103515625,0.54638671875,0.66070556640625,-0.2711181640625,21.5625,56.5625,63.5625,-8.57,1.17,-4.61,moving,4
10.86,1145751.910576198,29,3,3,3,0,-34.62,2.88,-13.8,-25.91,1.66,-9.47,-37.9375,-177.8125,3.8125,0.44964599609375,0.5408935546875,0.65460205078125,-0.2772216796875,21.5625,56.5625,63.5625,-8.71,1.21,-4.33,moving,4
10.87,1145751.986849269,29,3,3,3,0,-34.95,4.28,-17.28,-26.15,3.02,-13.13,-62.75,-111.1875,-1.1875,0.4588623046875,0.53558349609375,0.6517333984375,-0.27886962890625,21.5625,56.5625,63.5625,-8.79,1.25,-4.15,moving,4
10.88,1145751.986849269,29,3,3,3,0,-36.7,5.94,-15.5,-27.87,4.66,-11.44,-23.5625,-55.9375,-0.5625,0.463134765625,0.53326416015625,0.65008544921875,-0.2801513671875,21.5625,56.5625,63.5625,-8.83,1.27,-4.06,moving,4
10.89,1145751.995606838,29,3,3,3,0,-33.98,6.67,-13.91,-25.11,5.4,-9.91,-16.0,-37.1875,-6.5625,0.4658203125,0.53131103515625,0.6492919921875,-0.28125,21.5625,56.5625,63.5625,-8.86,1.27,-3.99,moving,4
10.9,1145751.995606838,29,3,3,3,0,-28.43,4.2,-12.51,-19.56,2.94,-8.52,-11.0,1.5,-13.0625,0.46588134765625,0.5301513671875,0.6502685546875,-0.2811279296875,23.0,56.5625,60.375,-8.86,1.25,-3.99,moving,4
10.91,1145752.002323675,29,3,3,3,0,-21.15,2.43,-9.6,-12.34,1.19,-5.49,1.375,67.8125,-6.6875,0.4617919921875,0.531494140625,0.65325927734375,-0.2783203125,23.0,56.5625,60.375,-8.81,1.24,-4.1,moving,4
10.92,1145752.002323675,29,3,3,3,0,-13.46,2.23,-6.15,-4.69,1.01,-1.94,24.25,65.375,-6.5625,0.456787109375,0.53369140625,0.6556396484375,-0.27691650390625,23.0,56.5625,60.375,-8.77,1.22,-4.21,moving,4
10.93,1145752.007875474,29,3,3,3,0,-10.5,2.31,-5.21,-1.78,1.09,-0.88,19.5,74.25,3.5625,0.45172119140625,0.53643798828125,0.65789794921875,-0.2744140625,23.0,56.5625,60.375,-8.71,1.21,-4.32,moving,4
10.94,1145752.007875474,29,3,3,3,0,-8.42,2.22,-4.23,0.21,1.01,0.22,15.6875,89.0625,8.25,0.446044921875,0.5396728515625,0.66064453125,-0.27081298828125,23.0,56.5625,60.375,-8.64,1.21,-4.46,moving,4
10.95,1145752.015086493,29,3,3,3,0,-7.2,2.26,-3.88,1.34,1.05,0.75,10.0,111.3125,8.6875,0.4393310546875,0.54315185546875,0.664306640625,-0.26580810546875,23.375,56.25,60.5,-8.55,1.21,-4.63,moving,4
10.96,1145752.015086493,29,3,3,3,0,-4.13,1.87,-2.66,4.3,0.63,2.17,-9.125,139.75,12.625,0.43194580078125,0.5467529296875,0.66925048828125,-0.2581787109375,23.375,56.25,60.5,-8.43,1.24,-4.84,moving,4
10.97,1145752.027976426,29,3,3,3,0,-2.27,1.59,-1.65,6.02,0.3,3.4,-26.9375,151.9375,15.125,0.42462158203125,0.54998779296875,0.67474365234375,-0.24871826171875,23.375,56.25,60.5,-8.3,1.28,-5.05,moving,4
10.98,1145752.027976426,29,3,3,3,0,-0.69,1.04,-1.05,7.46,-0.3,4.21,-39.1875,154.3125,15.0625,0.417724609375,0.552734375,0.6805419921875,-0.23846435546875,23.375,56.25,60.5,-8.16,1.34,-5.26,moving,4
10.99,1145752.043342556,29,3,3,3,0,0.47,0.29,-0.34,8.48,-1.1,5.13,-39.375,157.75,14.25,0.4105224609375,0.55535888671875,0.68634033203125,-0.22796630859375,23.375,56.25,60.5,-8.0,1.4,-5.48,moving,4
11.0,1145752.043342556,29,3,3,3,0,2.79,-0.84,0.38,10.64,-2.3,6.08,-25.0625,160.0,16.5,0.4024658203125,0.55859375,0.69171142578125,-0.21807861328125,22.5625,55.1875,63.1875,-7.84,1.45,-5.69,moving,4
11.01,1145752.074587632,29,3,3,3,0,3.8,-0.51,0.24,11.48,-2.0,6.15,-1.75,160.4375,24.25,0.39324951171875,0.56298828125,0.69610595703125,-0.20928955078125,22.5625,55.1875,63.1875,-7.68,1.48,-5.91,moving,4
11.02,1145752.074587632,29,3,3,3,0,4.28,0.05,0.4,11.79,-1.45,6.53,16.5625,156.6875,30.125,0.38348388671875,0.56817626953125,0.69964599609375,-0.2015380859375,22.5625,55.1875,63.1875,-7.5,1.5,-6.12,moving,4
11.03,1145752.08758043,29,3,3,3,0,4.65,0.84,2.11,12.01,-0.68,8.42,25.1875,133.9375,38.5,0.37469482421875,0.57366943359375,0.70172119140625,-0.19512939453125,22.5625,55.1875,63.1875,-7.35,1.53,-6.3,moving,4
11.04,1145752.08758043,29,3,3,3,0,5.82,1.58,4.93,13.06,0.07,11.37,59.4375,89.5625,40.9375,0.36688232421875,0.57965087890625,0.7015380859375,-0.19293212890625,22.5625,55.1875,63.1875,-7.24,1.51,-6.43,moving,4
11.05,1145752.103831569,29,3,3,3,0,6.81,1.84,6.38,14.02,0.39,12.87,103.1875,19.75,38.0625,0.361083984375,0.5855712890625,0.698486328125,-0.197021484375,22.1875,53.6875,66.25,-7.2,1.44,-6.48,moving,4
11.06,1145752.103831569,29,3,3,3,0,7.35,2.06,7.79,14.58,0.7,14.28,110.9375,-21.1875,30.0,0.357177734375,0.59051513671875,0.6943359375,-0.203857421875,22.1875,53.6875,66.25,-7.22,1.36,-6.48,moving,4
11.07,1145752.119257676,29,3,3,3,0,7.19,2.37,9.21,14.47,1.06,15.65,73.375,-49.8125,20.0625,0.3568115234375,0.5931396484375,0.6904296875,-0.210205078125,22.1875,53.6875,66.25,-7.27,1.3,-6.44,moving,4
11.08,1145752.119257676,29,3,3,3,0,7.19,2.37,9.21,14.47,1.06,15.65,73.375,-49.8125,20.0625,0.3568115234375,0.5931396484375,0.6904296875,-0.210205078125,22.1875,53.6875,66.25,-7.27,1.3,-6.44,moving,4
11.08,1145752.133741359,29,3,3,3,0,3.0,1.46,7.09,10.34,0.17,13.45,24.0625,-65.875,15.4375,0.35980224609375,0.5936279296875,0.6871337890625,-0.214599609375,22.1875,53.6875,66.25,-7.34,1.29,-6.36,moving,4
11.09,1145752.133741359,29,3,3,3,0,1.46,0.56,4.9,8.88,-0.75,11.17,-4.625,-76.3125,10.875,0.36480712890625,0.5926513671875,0.6842041015625,-0.2178955078125,22.1875,53.6875,66.25,-7.42,1.31,-6.26,moving,4
11.1,1145752.164336167,29,3,3,3,0,0.36,-0.15,2.89,7.89,-1.49,9.04,-18.0,-87.875,6.6875,0.37109375,0.5908203125,0.681396484375,-0.22113037109375,22.1875,54.5,64.0,-7.52,1.34,-6.14,moving,4
11.11,1145752.164336167,29,3,3,3,0,-0.76,-2.12,-0.3,6.86,-3.5,5.7,-30.375,-95.6875,0.0,0.37835693359375,0.58795166015625,0.6788330078125,-0.2242431640625,22.1875,54.5,64.0,-7.62,1.37,-6.01,moving,4
11.12,1145752.178720282,29,3,3,3,0,-1.97,-2.9,-1.58,5.76,-4.31,4.27,-44.5,-106.0,-6.375,0.38677978515625,0.58404541015625,0.676513671875,-0.22723388671875,22.1875,54.5,64.0,-7.73,1.41,-5.85,moving,4
11.13,1145752.178720282,29,3,3,3,0,-2.79,-2.87,-3.19,5.05,-4.33,2.49,-62.0625,-109.75,-11.9375,0.39617919921875,0.57904052734375,0.67462158203125,-0.22955322265625,22.1875,54.5,64.0,-7.84,1.46,-5.69,moving,4
11.14,1145752.209755438,29,3,3,3,0,-3.74,-2.41,-4.36,4.22,-3.92,1.14,-70.0625,-124.75,-14.75,0.40673828125,0.57318115234375,0.67236328125,-0.232177734375,22.1875,54.5,64.0,-7.97,1.51,-5.5,moving,4
11.15,1145752.209755438,29,3,3,3,0,-5.74,0.13,-16.34,2.39,-1.39,-11.08,-43.6875,-166.3125,-17.0,0.41827392578125,0.56719970703125,0.66815185546875,-0.238525390625,23.5625,55.1875,63.375,-8.13,1.52,-5.25,moving,4
11.16,1145752.214588283,29,3,3,3,0,-6.91,1.45,-14.16,1.38,0.01,-9.14,78.3125,-182.3125,-10.5625,0.42474365234375,0.5655517578125,0.6602783203125,-0.25244140625,23.5625,55.1875,63.375,-8.3,1.44,-5.01,moving,4
11.17,1145752.214588283,29,3,3,3,0,-9.3,1.01,-9.72,-0.9,-0.37,-4.86,55.75,-118.25,-0.5,0.42877197265625,0.56500244140625,0.6546630859375,-0.261474609375,23.5625,55.1875,63.375,-8.4,1.39,-4.85,moving,4
11.18,1145752.24004857,29,3,3,3,0,-12.66,2.5,-7.43,-4.16,1.12,-2.74,6.6875,-115.3125,-3.5,0.4349365234375,0.5623779296875,0.65032958984375,-0.26763916015625,23.5625,55.1875,63.375,-8.49,1.38,-4.69,moving,4
11.19,1145752.24004857,29,3,3,3,0,-25.22,4.85,-10.56,-16.62,3.49,-6.04,9.25,-119.875,-14.25,0.44091796875,0.55914306640625,0.646240234375,-0.27459716796875,23.5625,55.1875,63.375,-8.59,1.35,-4.51,moving,4
11.2,1145752.252889431,29,3,3,3,0,-29.81,3.3,-8.87,-21.1,1.96,-4.56,-14.4375,-138.4375,-17.75,0.44891357421875,0.55419921875,0.64208984375,-0.2811279296875,24.0,55.1875,61.5,-8.7,1.33,-4.3,moving,4
11.21,1145752.252889431,29,3,3,3,0,-32.84,3.64,-11.83,-24.06,2.32,-7.67,-20.5625,-91.125,-23.0625,0.4544677734375,0.54986572265625,0.64007568359375,-0.2852783203125,24.0,55.1875,61.5,-8.78,1.31,-4.15,moving,4
11.22,1145752.283517604,29,3,3,3,0,-38.57,4.54,-14.31,-29.79,3.25,-10.14,0.25,0.8125,-17.75,0.45391845703125,0.54888916015625,0.6409912109375,-0.28594970703125,24.0,55.1875,61.5,-8.78,1.29,-4.16,moving,4
11.23,1145752.283517604,29,3,3,3,0,-36.39,3.38,-11.55,-27.62,2.1,-7.36,-5.625,15.3125,-6.3125,0.45318603515625,0.5487060546875,0.64202880859375,-0.28515625,24.0,55.1875,61.5,-8.77,1.28,-4.18,moving,4
11.24,1145752.297996161,29,3,3,3,0,-31.65,2.17,-10.92,-22.9,0.86,-6.69,-16.6875,34.5,7.125,0.4522705078125,0.54931640625,0.64349365234375,-0.28228759765625,24.0,55.1875,61.5,-8.74,1.3,-4.23,moving,4
11.25,1145752.297996161,29,3,3,3,0,-28.13,3.12,-10.74,-19.41,1.79,-6.45,-11.5,40.0625,8.25,0.45074462890625,0.55029296875,0.64495849609375,-0.27935791015625,24.6875,56.5625,60.1875,-8.71,1.33,-4.29,moving,4
11.26,1145752.313793361,29,3,3,3,0,-24.65,3.82,-11.77,-15.95,2.46,-7.45,-22.4375,19.9375,10.1875,0.450927734375,0.55047607421875,0.64581298828125,-0.2767333984375,24.6875,56.5625,60.1875,-8.69,1.36,-4.31,moving,4
11.27,1145752.313793361,29,3,3,3,0,-23.42,4.06,-11.83,-14.75,2.65,-7.47,-28.875,28.375,16.625,0.45111083984375,0.55096435546875,0.64678955078125,-0.27313232421875,24.6875,56.5625,60.1875,-8.67,1.41,-4.35,moving,4
11.28,1145752.327785874,29,3,3,3,0,-20.94,3.12,-8.73,-12.31,1.66,-4.31,-33.75,49.25,20.875,0.45050048828125,0.55194091796875,0.64849853515625,-0.26800537109375,24.6875,56.5625,60.1875,-8.63,1.46,-4.41,moving,4
11.29,1145752.327785874,29,3,3,3,0,-18.51,2.66,-7.42,-9.93,1.12,-2.92,-37.25,63.75,25.875,0.44927978515625,0.55340576171875,0.650634765625,-0.2618408203125,24.6875,56.5625,60.1875,-8.57,1.53,-4.5,moving,4
11.3,1145752.359370469,29,3,3,3,0,-12.32,1.88,-4.45,-3.82,0.27,0.15,-35.75,80.25,27.875,0.44708251953125,0.555419921875,0.65325927734375,-0.25482177734375,25.0625,56.5625,61.0,-8.5,1.6,-4.61,moving,4
11.31,1145752.359370469,29,3,3,3,0,-9.87,1.69,-3.7,-1.46,0.01,1.03,-31.75,96.5625,29.9375,0.4437255859375,0.5579833984375,0.65625,-0.2471923828125,25.0625,56.5625,61.0,-8.41,1.67,-4.74,moving,4
11.32,1145752.373698553,29,3,3,3,0,-7.82,1.69,-2.73,0.48,-0.05,2.16,-28.0,115.3125,32.3125,0.439208984375,0.56121826171875,0.65966796875,-0.23870849609375,25.0625,56.5625,61.0,-8.3,1.74,-4.9,moving,4
11.33,1145752.373698553,29,3,3,3,0,-5.68,1.84,-2.43,2.49,0.02,2.66,-27.9375,134.6875,32.5,0.4334716796875,0.56475830078125,0.66375732421875,-0.229248046875,25.0625,56.5625,61.0,-8.18,1.81,-5.09,moving,4
11.34,1145752.388029527,29,3,3,3,0,-5.68,1.84,-2.43,2.49,0.02,2.66,-27.9375,134.6875,32.5,0.4334716796875,0.56475830078125,0.66375732421875,-0.229248046875,25.0625,56.5625,61.0,-8.18,1.81,-5.09,moving,4
11.34,1145752.388029527,29,3,3,3,0,-1.51,1.89,-2.1,6.51,0.01,3.2,-29.625,159.25,30.75,0.42626953125,0.56854248046875,0.6688232421875,-0.218505859375,25.0625,56.5625,61.0,-8.02,1.88,-5.3,moving,4
11.35,1145752.404914903,29,3,3,3,0,0.18,1.17,-1.69,8.03,-0.78,3.84,-32.1875,177.0,29.9375,0.4180908203125,0.5723876953125,0.6744384765625,-0.20672607421875,24.6875,55.1875,63.0,-7.85,1.95,-5.54,moving,4
11.36,1145752.404914903,29,3,3,3,0,1.82,0.41,-1.25,9.48,-1.61,4.51,-34.875,180.25,32.5625,0.4097900390625,0.57623291015625,0.67987060546875,-0.1944580078125,24.6875,55.1875,63.0,-7.66,2.03,-5.77,moving,4
11.37,1145752.419094143,29,3,3,3,0,4.05,0.0,-0.53,11.53,-2.1,5.43,-31.625,163.8125,32.625,0.40216064453125,0.5797119140625,0.6845703125,-0.18316650390625,24.6875,55.1875,63.0,-7.48,2.11,-5.97,moving,4
11.38,1145752.419094143,29,3,3,3,0,6.42,0.13,-0.18,13.73,-2.04,5.97,-20.375,145.4375,33.4375,0.39501953125,0.58331298828125,0.688232421875,-0.17340087890625,24.6875,55.1875,63.0,-7.31,2.17,-6.15,moving,4
11.39,1145752.449924343,29,3,3,3,0,7.1,0.12,0.7,14.26,-2.1,7.01,-8.125,130.75,33.3125,0.3880615234375,0.58697509765625,0.69110107421875,-0.16510009765625,24.6875,55.1875,63.0,-7.16,2.22,-6.31,moving,4
11.4,1145752.449924343,29,3,3,3,0,6.98,-0.15,0.86,14.01,-2.41,7.31,2.625,106.875,29.8125,0.38189697265625,0.59033203125,0.693115234375,-0.15875244140625,24.25,52.6875,67.0,-7.02,2.26,-6.45,moving,4
11.41,1145752.463832302,29,3,3,3,0,7.62,-0.55,2.25,14.58,-2.8,8.78,27.75,55.3125,16.0,0.3773193359375,0.593017578125,0.69378662109375,-0.15704345703125,24.25,52.6875,67.0,-6.96,2.25,-6.53,moving,4
11.42,1145752.463832302,29,3,3,3,0,8.07,-1.21,4.9,15.03,-3.41,11.46,47.375,7.625,0.0625,0.3743896484375,0.59466552734375,0.693359375,-0.15948486328125,24.25,52.6875,67.0,-6.95,2.19,-6.55,moving,4
11.43,1145752.525197373,29,3,3,3,0,7.83,-1.67,6.88,14.84,-3.79,13.41,46.4375,-42.4375,-20.3125,0.374267578125,0.5943603515625,0.6923828125,-0.1651611328125,24.25,52.6875,67.0,-7.0,2.11,-6.52,moving,4
11.44,1145752.525197373,29,3,3,3,0,6.63,-1.87,7.23,13.74,-3.93,13.66,18.4375,-80.875,-29.75,0.37774658203125,0.59197998046875,0.69097900390625,-0.17144775390625,24.25,52.6875,67.0,-7.11,2.06,-6.43,moving,4
11.45,1145752.530323431,29,3,3,3,0,0.29,-1.2,5.36,7.49,-3.25,11.7,-9.6875,-71.125,-25.1875,0.38214111328125,0.58905029296875,0.6900634765625,-0.17535400390625,23.5,51.875,68.0,-7.19,2.04,-6.33,moving,4
11.46,1145752.530323431,29,3,3,3,0,-0.78,-0.67,3.74,6.49,-2.7,9.99,-13.8125,-70.875,-23.5625,0.38677978515625,0.58612060546875,0.68914794921875,-0.178955078125,23.5,51.875,68.0,-7.28,2.02,-6.24,moving,4
11.47,1145752.535085557,29,3,3,3,0,-0.76,-0.11,1.96,6.59,-2.11,8.12,-4.625,-63.0625,-22.5,0.39044189453125,0.5836181640625,0.688232421875,-0.1826171875,23.5,51.875,68.0,-7.36,2.0,-6.16,moving,4
11.48,1145752.535085557,29,3,3,3,0,-0.29,0.25,0.47,7.13,-1.72,6.55,1.375,-64.0625,-19.5,0.3939208984375,0.5814208984375,0.68701171875,-0.1866455078125,23.5,51.875,68.0,-7.43,1.97,-6.08,moving,4
11.49,1145752.552832383,29,3,3,3,0,0.06,1.16,-0.75,7.59,-0.79,5.21,-0.9375,-82.9375,-17.0625,0.39862060546875,0.57904052734375,0.68499755859375,-0.19134521484375,23.5,51.875,68.0,-7.52,1.95,-5.97,moving,4
11.5,1145752.552832383,29,3,3,3,0,0.16,1.87,-0.94,7.81,-0.05,4.87,-2.1875,-113.0625,-15.9375,0.40521240234375,0.5760498046875,0.681884765625,-0.19744873046875,23.1875,52.25,66.875,-7.65,1.93,-5.82,moving,4
11.51,1145752.568388454,29,3,3,3,0,-0.44,2.25,-1.31,7.34,0.33,4.32,-6.625,-130.9375,-13.1875,0.4130859375,0.57275390625,0.677978515625,-0.2041015625,23.1875,52.25,66.875,-7.78,1.92,-5.64,moving,4
11.52,1145752.568388454,29,3,3,3,0,-1.74,2.52,-1.81,6.17,0.59,3.63,-14.3125,-136.5,-11.75,0.421630859375,0.569091796875,0.673828125,-0.21051025390625,23.1875,52.25,66.875,-7.92,1.92,-5.45,moving,4
11.53,1145752.584657619,29,3,3,3,0,-4.83,2.61,-2.15,3.21,0.68,3.09,-25.5,-137.1875,-13.5625,0.43072509765625,0.56475830078125,0.66986083984375,-0.21624755859375,23.1875,52.25,66.875,-8.05,1.92,-5.25,moving,4
11.54,1145752.584657619,29,3,3,3,0,-7.01,2.68,-3.24,1.15,0.74,1.81,-32.1875,-125.9375,-16.6875,0.4393310546875,0.5601806640625,0.66656494140625,-0.22119140625,23.1875,52.25,66.875,-8.17,1.93,-5.06,moving,4
11.55,1145752.614052354,29,3,3,3,0,-10.12,2.18,-6.58,-1.86,0.26,-1.66,-22.625,-89.0,-23.3125,0.44512939453125,0.55621337890625,0.6646728515625,-0.22509765625,24.0625,53.75,65.5625,-8.25,1.92,-4.92,moving,4
11.56,1145752.614052354,29,3,3,3,0,-11.75,1.23,-13.53,-3.46,-0.61,-8.64,35.125,-33.875,-23.5,0.4449462890625,0.5555419921875,0.663818359375,-0.22967529296875,24.0625,53.75,65.5625,-8.29,1.85,-4.88,moving,4
11.57,1145752.627819973,29,3,3,3,0,-15.77,1.33,-12.24,-7.39,-0.43,-7.47,81.0625,-97.625,-13.6875,0.44635009765625,0.555908203125,0.65899658203125,-0.2396240234375,24.0625,53.75,65.5625,-8.38,1.76,-4.77,moving,4
11.58,1145752.627819973,29,3,3,3,0,-19.33,1.77,-5.95,-10.81,0.04,-1.41,30.25,-161.8125,-6.8125,0.4539794921875,0.55328369140625,0.65234375,-0.24945068359375,24.0625,53.75,65.5625,-8.51,1.73,-4.54,moving,4
11.59,1145752.642786973,29,3,3,3,0,-24.11,3.6,-6.66,-15.48,1.89,-2.35,15.875,-155.3125,-9.6875,0.4617919921875,0.5499267578125,0.646240234375,-0.2581787109375,24.0625,53.75,65.5625,-8.63,1.7,-4.31,moving,4
11.6,1145752.642786973,29,3,3,3,0,-24.11,3.6,-6.66,-15.48,1.89,-2.35,15.875,-155.3125,-9.6875,0.4617919921875,0.5499267578125,0.646240234375,-0.2581787109375,24.0625,53.75,65.5625,-8.63,1.7,-4.31,moving,4
11.61,1145752.676253119,29,3,3,3,0,-31.28,2.92,-13.71,-22.53,1.27,-9.59,20.875,-132.0625,-31.875,0.467529296875,0.54595947265625,0.6419677734375,-0.2669677734375,23.75,55.6875,62.375,-8.74,1.64,-4.12,moving,4
11.61,1145752.676253119,29,3,3,3,0,-30.33,3.53,-14.72,-21.5,1.92,-10.77,-14.375,-111.75,-34.1875,0.4736328125,0.54083251953125,0.6392822265625,-0.27288818359375,23.75,55.6875,62.375,-8.83,1.6,-3.94,moving,4
11.62,1145752.681862413,29,3,3,3,0,-33.68,5.49,-11.73,-24.79,3.91,-7.92,-8.6875,-82.125,-18.5625,0.4781494140625,0.5374755859375,0.636962890625,-0.27703857421875,23.75,55.6875,62.375,-8.89,1.57,-3.81,moving,4
11.63,1145752.681862413,29,3,3,3,0,-38.88,5.61,-10.4,-29.96,4.05,-6.64,8.8125,-38.4375,-11.0,0.4796142578125,0.5362548828125,0.63568115234375,-0.27978515625,23.75,55.6875,62.375,-8.92,1.55,-3.75,moving,4
11.64,1145752.703476141,29,3,3,3,0,-33.06,3.37,-13.33,-24.12,1.84,-9.63,2.6875,-33.1875,-12.4375,0.48101806640625,0.534912109375,0.63482666015625,-0.281982421875,23.75,55.6875,62.375,-8.94,1.53,-3.7,moving,4
11.65,1145752.703476141,29,3,3,3,0,-27.43,3.57,-12.88,-18.47,2.06,-9.2,3.4375,-15.125,-12.625,0.48138427734375,0.533935546875,0.6346435546875,-0.283447265625,24.875,56.6875,60.0625,-8.96,1.51,-3.68,moving,4
11.66,1145752.719064276,29,3,3,3,0,-22.68,3.49,-10.44,-13.73,1.99,-6.72,4.9375,23.0625,-5.5,0.479736328125,0.534423828125,0.6357421875,-0.28289794921875,24.875,56.6875,60.0625,-8.94,1.5,-3.72,moving,4
11.67,1145752.719064276,29,3,3,3,0,-18.85,3.83,-9.19,-9.92,2.34,-5.42,6.375,28.75,-1.9375,0.47784423828125,0.5352783203125,0.63690185546875,-0.281982421875,24.875,56.6875,60.0625,-8.92,1.49,-3.76,moving,4
11.68,1145752.733240302,29,3,3,3,0,-13.18,2.32,-5.63,-4.28,0.83,-1.8,11.875,35.875,2.1875,0.475341796875,0.53680419921875,0.63800048828125,-0.2808837890625,24.875,56.6875,60.0625,-8.9,1.48,-3.82,moving,4
11.69,1145752.733240302,29,3,3,3,0,-11.36,2.01,-4.28,-2.49,0.52,-0.38,17.0,48.4375,8.6875,0.4720458984375,0.5391845703125,0.63916015625,-0.2791748046875,24.875,56.6875,60.0625,-8.86,1.49,-3.9,moving,4
11.7,1145752.778501044,29,3,3,3,0,-9.59,1.79,-3.36,-0.77,0.29,0.64,19.5,67.1875,10.875,0.4676513671875,0.54217529296875,0.64093017578125,-0.27667236328125,24.875,56.5625,60.0625,-8.82,1.49,-4.01,moving,4
11.71,1145752.778501044,29,3,3,3,0,-7.71,1.61,-2.29,1.03,0.1,1.86,9.875,90.5,14.6875,0.46246337890625,0.54559326171875,0.6436767578125,-0.2723388671875,24.875,56.5625,60.0625,-8.75,1.51,-4.15,moving,4
11.72,1145752.78419892,29,3,3,3,0,-4.76,1.07,-1.18,3.9,-0.46,3.14,-2.9375,109.125,15.9375,0.45684814453125,0.5489501953125,0.6473388671875,-0.26629638671875,24.875,56.5625,60.0625,-8.66,1.53,-4.32,moving,4
