timestamp,android_nano_timestamp,temperature,calib_mag,calib_accel,calib_gyro,calib_sys,acc_x,acc_y,acc_z,lacc_x,lacc_y,lacc_z,gyro_x,gyro_y,gyro_z,quat_w,quat_x,quat_y,quat_z,mag_x,mag_y,mag_z,gravity_x,gravity_y,gravity_z,label,person
5.56,29661.086042802,27,3,3,0,3,7.2,0.14,-1.87,-1.83,-1.65,1.47,-41.75,197.5625,-22.6875,0.5726318359375,0.11865234375,-0.8106689453125,-0.02923583984375,-36.5,7.1875,15.5,9.03,1.79,-3.35,moving,11
5.57,29661.117139523,27,3,3,0,3,6.2,0.13,-1.8,-2.94,-1.72,1.18,-33.5,223.8125,-32.5625,0.588623046875,0.11981201171875,-0.79888916015625,-0.03094482421875,-36.5,7.1875,15.5,9.15,1.86,-2.99,moving,11
5.58,29661.117139523,27,3,3,0,3,5.17,0.07,-1.84,-4.07,-1.88,0.76,-37.375,234.9375,-41.1875,0.60516357421875,0.121337890625,-0.78607177734375,-0.033203125,-36.5,7.1875,15.5,9.25,1.95,-2.6,moving,11
5.59,29661.130483435,27,3,3,0,3,2.82,-0.28,-1.08,-6.49,-2.32,1.16,-62.1875,206.6875,-35.0625,0.61981201171875,0.12103271484375,-0.77447509765625,-0.037109375,-36.5,7.1875,15.5,9.32,2.03,-2.24,moving,11
5.6,29661.130483435,27,3,3,0,3,1.73,-0.42,-0.82,-7.64,-2.52,1.13,-89.8125,154.25,-19.3125,0.63104248046875,0.11798095703125,-0.76556396484375,-0.0426025390625,-38.5625,5.0,9.25,9.37,2.09,-1.96,moving,11
5.61,29661.146917233,27,3,3,0,3,0.61,-0.42,-1.04,-8.8,-2.56,0.66,-102.6875,131.5,-5.6875,0.64080810546875,0.11322021484375,-0.75775146484375,-0.04840087890625,-38.5625,5.0,9.25,9.41,2.14,-1.7,moving,11
5.62,29661.146917233,27,3,3,0,3,-0.33,-0.1,-1.42,-9.79,-2.25,0.01,-107.25,134.75,10.0,0.6507568359375,0.1070556640625,-0.74981689453125,-0.0535888671875,-38.5625,5.0,9.25,9.45,2.15,-1.44,moving,11
5.63,29661.176546912,27,3,3,0,3,-1.87,1.12,-1.69,-11.36,-1.0,-0.5,-109.0,129.9375,25.75,0.66033935546875,0.09979248046875,-0.7420654296875,-0.05804443359375,-38.5625,5.0,9.25,9.49,2.13,-1.18,moving,11
5.64,29661.176546912,27,3,3,0,3,-2.49,1.56,-1.67,-12.02,-0.54,-0.74,-110.0625,128.1875,29.125,0.669677734375,0.09222412109375,-0.73431396484375,-0.0623779296875,-38.5625,5.0,9.25,9.53,2.1,-0.93,moving,11
5.65,29661.190940792,27,3,3,0,3,-2.93,1.91,-1.86,-12.49,-0.14,-1.17,-122.375,125.625,37.1875,0.6788330078125,0.0833740234375,-0.72650146484375,-0.0670166015625,-40.75,4.1875,4.375,9.56,2.06,-0.68,moving,11
5.66,29661.190940792,27,3,3,0,3,-2.79,1.78,-2.0,-12.39,-0.21,-1.6,-143.6875,137.1875,47.5,0.688720703125,0.0726318359375,-0.7177734375,-0.072265625,-40.75,4.1875,4.375,9.59,1.99,-0.4,moving,11
5.67,29661.207241818,27,3,3,0,3,-2.05,0.7,-2.76,-11.66,-1.22,-2.67,-163.75,151.0625,48.4375,0.69940185546875,0.0606689453125,-0.70782470703125,-0.07867431640625,-40.75,4.1875,4.375,9.61,1.92,-0.09,moving,11
5.68,29661.207241818,27,3,3,0,3,-1.57,-0.34,-3.04,-11.2,-2.19,-3.26,-165.125,156.0625,38.625,0.71002197265625,0.04931640625,-0.69720458984375,-0.08563232421875,-40.75,4.1875,4.375,9.62,1.85,0.22,moving,11
5.69,29661.235622148,27,3,3,0,3,-1.23,-1.15,-3.14,-10.86,-2.94,-3.65,-141.75,145.0,29.375,0.71954345703125,0.039794921875,-0.68719482421875,-0.091796875,-40.75,4.1875,4.375,9.62,1.79,0.51,moving,11
5.7,29661.235622148,27,3,3,0,3,-0.62,-1.65,-2.64,-10.24,-3.4,-3.38,-106.75,117.5625,20.8125,0.72705078125,0.03277587890625,-0.678955078125,-0.09649658203125,-40.75,5.375,-0.1875,9.62,1.75,0.74,moving,11
5.71,29661.250390377,27,3,3,0,3,-0.48,-1.73,-2.35,-10.09,-3.45,-3.26,-63.75,86.6875,12.6875,0.732421875,0.02874755859375,-0.6729736328125,-0.09918212890625,-40.75,5.375,-0.1875,9.61,1.72,0.9,moving,11
5.72,29661.250390377,27,3,3,0,3,-0.31,-1.58,-1.84,-9.92,-3.29,-2.85,-18.3125,61.0,7.0,0.736083984375,0.02764892578125,-0.66888427734375,-0.09967041015625,-40.75,5.375,-0.1875,9.6,1.7,1.01,moving,11
5.73,29661.265252885,27,3,3,0,3,-0.31,-1.58,-1.84,-9.92,-3.29,-2.85,-18.3125,61.0,7.0,0.736083984375,0.02764892578125,-0.66888427734375,-0.09967041015625,-40.75,5.375,-0.1875,9.6,1.7,1.01,moving,11
5.74,29661.265252885,27,3,3,0,3,-0.21,-1.18,-1.36,-9.81,-2.89,-2.43,16.125,36.5625,3.75,0.73822021484375,0.02880859375,-0.666748046875,-0.098388671875,-40.75,5.375,-0.1875,9.59,1.7,1.07,moving,11
5.74,29661.28069417,27,3,3,0,3,0.14,-0.34,-0.6,-9.44,-2.04,-1.68,36.8125,16.1875,2.9375,0.73907470703125,0.0311279296875,-0.666015625,-0.09600830078125,-40.75,5.375,-0.1875,9.59,1.7,1.08,moving,11
5.75,29661.28069417,27,3,3,0,3,0.46,-0.04,-0.44,-9.12,-1.76,-1.51,48.0625,-2.9375,-1.625,0.73876953125,0.0343017578125,-0.6666259765625,-0.09332275390625,-40.375,6.375,-3.25,9.59,1.71,1.06,moving,11
5.76,29661.296375037,27,3,3,0,3,0.94,0.17,-0.46,-8.65,-1.56,-1.47,55.4375,-24.6875,-5.375,0.737060546875,0.0379638671875,-0.66864013671875,-0.09051513671875,-40.375,6.375,-3.25,9.59,1.73,1.0,moving,11
5.77,29661.296375037,27,3,3,0,3,1.84,0.14,-0.94,-7.76,-1.6,-1.83,61.375,-58.0,-3.6875,0.73345947265625,0.04168701171875,-0.6728515625,-0.08740234375,-40.375,6.375,-3.25,9.6,1.75,0.89,moving,11
5.78,29661.327387692,27,3,3,0,3,7.08,-0.02,-4.72,-2.53,-1.78,-5.41,69.125,-113.6875,4.0,0.72650146484375,0.04498291015625,-0.68060302734375,-0.08349609375,-40.375,6.375,-3.25,9.62,1.75,0.68,moving,11
5.8,29661.327387692,27,3,3,0,3,14.64,0.16,-10.11,4.99,-1.55,-10.39,94.8125,-219.875,24.9375,0.71307373046875,0.04791259765625,-0.6951904296875,-0.07708740234375,-40.375,6.375,-3.25,9.65,1.72,0.28,moving,11
5.8,29661.34426729,27,3,3,0,3,31.57,1.11,-20.75,21.91,-0.47,-20.17,171.5,-481.875,78.125,0.68292236328125,0.050537109375,-0.7259521484375,-0.06378173828125,-40.6875,6.375,-2.5,9.66,1.58,-0.57,moving,11
5.81,29661.34426729,27,3,3,0,3,39.05,6.15,-31.09,29.64,4.96,-28.6,336.0,-1095.8125,181.25,0.60992431640625,0.052734375,-0.78985595703125,-0.03631591796875,-40.6875,6.375,-2.5,9.41,1.19,-2.48,moving,11
5.82,29661.356682858,27,3,3,0,3,39.1,-10.55,-35.57,30.74,-11.12,-30.48,564.75,-1622.8125,162.0625,0.490478515625,0.06573486328125,-0.86895751953125,0.00372314453125,-40.6875,6.375,-2.5,8.36,0.56,-5.08,moving,11
5.83,29661.356682858,27,3,3,0,3,39.11,-7.18,-38.8,31.79,-7.48,-32.29,427.6875,-1018.0625,-116.6875,0.40887451171875,0.09271240234375,-0.90753173828125,0.02520751953125,-40.6875,6.375,-2.5,7.32,0.29,-6.51,moving,11
5.84,29661.387249712,27,3,3,0,3,39.11,12.71,-17.98,31.87,12.19,-11.38,-3.625,-62.875,-177.125,0.40423583984375,0.10675048828125,-0.90826416015625,0.01812744140625,-40.6875,6.375,-2.5,7.23,0.52,-6.59,moving,11
5.85,29661.387249712,27,3,3,0,2,22.06,10.01,-4.87,14.24,9.09,0.97,-65.4375,567.1875,-245.75,0.44940185546875,0.122802734375,-0.884765625,0.00958251953125,-35.0625,10.0625,21.75,7.82,0.91,-5.84,moving,11
5.86,29661.400706865,27,3,3,0,2,12.47,2.8,-6.62,3.71,1.27,-2.48,-222.5,1146.1875,-293.0625,0.53753662109375,0.135009765625,-0.83233642578125,-0.00677490234375,-35.0625,10.0625,21.75,8.75,1.53,-4.13,moving,11
5.87,29661.400706865,27,3,3,0,2,5.35,4.63,0.22,-3.96,2.78,2.66,-225.6875,1035.125,-119.4375,0.612548828125,0.13311767578125,-0.77899169921875,-0.0164794921875,-35.0625,10.0625,21.75,9.31,1.85,-2.44,moving,11
5.89,29661.414879961,27,3,3,0,2,-0.82,3.72,6.57,-10.38,1.93,7.79,-194.25,704.4375,71.9375,0.661376953125,0.11859130859375,-0.74041748046875,-0.017578125,-35.0625,10.0625,21.75,9.56,1.79,-1.22,moving,11
5.89,29661.414879961,27,3,3,0,2,-1.27,-1.56,2.32,-10.93,-3.23,2.71,-132.0,473.1875,81.9375,0.6927490234375,0.1063232421875,-0.713134765625,-0.01641845703125,-35.0625,10.0625,21.75,9.65,1.67,-0.38,moving,11
5.9,29661.44689229,27,3,3,0,1,1.91,-1.19,0.74,-7.74,-2.88,0.72,-140.75,219.0625,-5.25,0.70745849609375,0.098388671875,-0.699462890625,-0.02349853515625,-39.875,5.6875,6.5,9.66,1.68,0.02,moving,11
5.91,29661.44689229,27,3,3,0,1,3.68,-0.76,-0.15,-5.95,-2.55,-0.22,-190.6875,-2.625,-60.25,0.70867919921875,0.09027099609375,-0.69866943359375,-0.038818359375,-39.875,5.6875,6.5,9.64,1.78,0.07,moving,11
5.92,29661.461793454,27,3,3,0,1,5.26,-1.03,-1.8,-4.35,-2.91,-1.79,-157.5625,-83.1875,-54.8125,0.70452880859375,0.0836181640625,-0.7027587890625,-0.05242919921875,-39.875,5.6875,6.5,9.62,1.87,-0.01,moving,11
5.93,29661.461793454,27,3,3,0,1,3.81,-0.45,-2.26,-5.79,-2.38,-2.09,-58.25,-100.625,-31.0,0.69854736328125,0.0814208984375,-0.70849609375,-0.05865478515625,-39.875,5.6875,6.5,9.61,1.93,-0.16,moving,11
5.94,29661.476115678,27,3,3,0,1,1.79,0.06,-2.05,-7.79,-1.9,-1.6,22.3125,-159.125,-20.5,0.6883544921875,0.083251953125,-0.71807861328125,-0.05963134765625,-39.875,5.6875,6.5,9.59,1.96,-0.44,moving,11
5.95,29661.476115678,27,3,3,0,1,0.0,0.95,-1.7,-9.57,-1.03,-0.84,33.25,-243.1875,-19.25,0.672607421875,0.08514404296875,-0.73260498046875,-0.0604248046875,-39.5625,5.0625,-1.1875,9.56,1.99,-0.86,moving,11
5.96,29661.507288042,27,3,3,0,1,-2.92,-0.44,-3.99,-12.42,-2.45,-2.65,5.3125,-288.625,-13.875,0.65380859375,0.08477783203125,-0.749267578125,-0.06298828125,-39.5625,5.0625,-1.1875,9.5,2.01,-1.34,moving,11
5.97,29661.507288042,27,3,3,0,1,-2.02,0.97,0.06,-11.45,-1.03,1.85,-25.25,-272.5,5.1875,0.635986328125,0.08148193359375,-0.7645263671875,-0.06634521484375,-39.5625,5.0625,-1.1875,9.43,2.01,-1.78,moving,11
5.98,29661.521390459,27,3,3,0,1,-2.31,0.31,-0.29,-11.68,-1.65,1.77,-37.1875,-185.0625,29.25,0.62396240234375,0.076416015625,-0.77471923828125,-0.0684814453125,-39.5625,5.0625,-1.1875,9.37,1.97,-2.07,moving,11
5.99,29661.521390459,27,3,3,0,1,-3.95,-0.25,-0.49,-13.33,-2.19,1.62,-78.25,-39.5625,42.1875,0.62200927734375,0.06903076171875,-0.77667236328125,-0.07171630859375,-39.5625,5.0625,-1.1875,9.37,1.93,-2.11,moving,11
6.0,29661.535883541,27,3,3,0,1,-4.07,-0.03,-1.59,-13.5,-1.93,0.32,-149.0,90.875,53.4375,0.6292724609375,0.057861328125,-0.77105712890625,-0.078369140625,-40.25,5.5,6.0625,9.42,1.89,-1.91,moving,11
6.01,29661.535883541,27,3,3,0,1,-4.07,-0.03,-1.59,-13.5,-1.93,0.32,-149.0,90.875,53.4375,0.6292724609375,0.057861328125,-0.77105712890625,-0.078369140625,-40.25,5.5,6.0625,9.42,1.89,-1.91,moving,11
6.02,29661.551110226,27,3,3,0,1,-3.44,-0.27,-3.48,-12.94,-2.16,-2.0,-221.0625,219.1875,50.1875,0.64520263671875,0.04388427734375,-0.75750732421875,-0.08935546875,-40.25,5.5,6.0625,9.5,1.88,-1.48,moving,11
6.02,29661.551110226,27,3,3,0,1,-2.75,-1.56,-4.49,-12.33,-3.47,-3.63,-247.5,326.75,17.5,0.6673583984375,0.03131103515625,-0.73681640625,-0.1033935546875,-40.25,5.5,6.0625,9.58,1.9,-0.86,moving,11
6.03,29661.565461707,27,3,3,0,1,-1.88,-2.52,-4.67,-11.5,-4.46,-4.54,-210.0,394.875,-7.9375,0.69268798828125,0.02313232421875,-0.71142578125,-0.11614990234375,-40.25,5.5,6.0625,9.61,1.93,-0.13,moving,11
6.05,29661.565461707,27,3,3,0,1,-1.66,-2.12,-3.93,-11.26,-4.04,-4.54,-151.0,413.6875,3.3125,0.7181396484375,0.0179443359375,-0.6844482421875,-0.1243896484375,-40.25,5.5,6.0625,9.59,1.92,0.61,moving,11
6.05,29661.598192827,27,3,3,0,1,-1.48,-1.52,-2.83,-11.04,-3.4,-3.99,-32.25,320.75,22.125,0.73724365234375,0.01806640625,-0.663818359375,-0.12432861328125,-39.75,5.0,4.1875,9.55,1.88,1.15,moving,11
6.06,29661.598192827,27,3,3,0,1,-1.22,-0.91,-1.73,-10.7,-2.75,-3.43,-32.25,320.75,22.125,0.7557373046875,0.0181884765625,-0.6427001953125,-0.12420654296875,-39.75,5.0,4.1875,9.48,1.83,1.69,moving,11
6.07,29661.610345781,27,3,3,0,1,-0.45,0.2,-0.49,-9.85,-1.59,-2.61,12.375,259.25,22.3125,0.770263671875,0.02056884765625,-0.62567138671875,-0.12158203125,-39.75,5.0,4.1875,9.4,1.8,2.12,moving,11
6.08,29661.610345781,27,3,3,0,1,0.55,0.02,-0.5,-8.77,-1.76,-2.92,40.75,191.375,19.0625,0.78070068359375,0.0242919921875,-0.61322021484375,-0.11773681640625,-39.75,5.0,4.1875,9.33,1.78,2.41,moving,11
6.09,29661.628263343,27,3,3,0,1,2.16,-0.59,-1.33,-7.12,-2.4,-3.91,71.875,111.625,9.875,0.7864990234375,0.02978515625,-0.6064453125,-0.11297607421875,-39.75,5.0,4.1875,9.28,1.8,2.57,moving,11
6.1,29661.628263343,27,3,3,0,1,9.85,-0.03,-4.34,0.55,-1.86,-6.86,106.0625,-10.375,17.5625,0.7857666015625,0.0360107421875,-0.6082763671875,-0.10614013671875,-39.5,5.6875,-7.0,9.29,1.82,2.52,moving,11
6.11,29661.655683346,27,3,3,0,1,21.41,1.17,-9.07,12.0,-0.63,-11.17,153.1875,-231.5625,43.8125,0.77313232421875,0.0419921875,-0.62554931640625,-0.095703125,-39.5,5.6875,-7.0,9.4,1.81,2.09,moving,11
6.12,29661.655683346,27,3,3,0,1,37.52,2.83,-10.02,27.91,1.13,-11.03,265.75,-610.4375,111.25,0.73846435546875,0.0487060546875,-0.66827392578125,-0.07574462890625,-39.5,5.6875,-7.0,9.6,1.69,1.0,moving,11
6.14,29661.671489051,27,3,3,0,1,39.11,11.05,-14.9,29.49,9.69,-13.58,465.375,-1309.8125,194.75,0.65643310546875,0.0582275390625,-0.7509765625,-0.04132080078125,-39.5,5.6875,-7.0,9.62,1.35,-1.32,moving,11
6.14,29661.671489051,27,3,3,0,1,39.11,-5.4,-34.41,30.38,-6.25,-30.02,748.4375,-1827.75,82.5,0.525390625,0.0877685546875,-0.8463134765625,0.00311279296875,-39.5,5.6875,-7.0,8.72,0.85,-4.39,moving,11
6.15,29661.686039059,27,3,3,0,0,39.11,10.45,-35.57,31.73,9.84,-29.14,438.0,-1406.5,-124.0625,0.41473388671875,0.11639404296875,-0.90228271484375,0.01885986328125,-39.75,6.0625,-2.25,7.38,0.61,-6.42,moving,11
6.16,29661.686039059,27,3,3,0,0,38.38,25.18,-9.67,31.38,24.34,-2.85,-24.8125,-312.75,-154.375,0.39031982421875,0.12811279296875,-0.91168212890625,0.0081787109375,-39.75,6.0625,-2.25,7.0,0.83,-6.81,moving,11
6.17,29661.716512204,27,3,3,0,0,25.52,11.53,-9.94,17.8,10.28,-4.02,-132.25,685.875,-211.5625,0.44549560546875,0.1396484375,-0.88433837890625,-0.0018310546875,-39.75,6.0625,-2.25,7.72,1.25,-5.91,moving,11
6.18,29661.716512204,27,3,3,0,0,9.16,2.7,-3.96,0.59,0.93,0.45,-256.0625,1000.875,-200.5625,0.5235595703125,0.14471435546875,-0.8394775390625,-0.01708984375,-39.75,6.0625,-2.25,8.57,1.76,-4.42,moving,11
6.19,29661.730975949,27,3,3,0,0,4.81,3.92,1.5,-4.28,1.95,4.58,-231.6875,823.875,-31.125,0.58502197265625,0.13726806640625,-0.79888916015625,-0.0250244140625,-39.75,6.0625,-2.25,9.09,1.96,-3.08,moving,11
6.2,29661.730975949,27,3,3,0,0,2.36,3.67,6.49,-7.0,1.68,8.57,-131.9375,592.125,20.125,0.62701416015625,0.1302490234375,-0.76763916015625,-0.02606201171875,-32.5,7.875,19.875,9.37,1.99,-2.08,moving,11
6.22,29661.747170854,27,3,3,0,0,1.74,2.1,3.02,-7.8,0.1,4.08,-131.9375,592.125,20.125,0.66717529296875,0.12286376953125,-0.73419189453125,-0.02703857421875,-32.5,7.875,19.875,9.54,1.99,-1.06,moving,11
6.22,29661.747170854,27,3,3,0,0,4.4,1.84,0.87,-5.18,-0.2,1.19,-75.4375,429.6875,-26.625,0.69488525390625,0.12109375,-0.708251953125,-0.02880859375,-32.5,7.875,19.875,9.58,2.05,-0.31,moving,11
6.23,29661.775898027,27,3,3,0,0,7.88,0.37,1.07,-1.68,-1.75,1.24,-118.375,61.875,-45.0625,0.69976806640625,0.11688232421875,-0.70367431640625,-0.03814697265625,-32.5,7.875,19.875,9.57,2.13,-0.17,moving,11
6.24,29661.775898027,27,3,3,0,0,9.84,-0.25,0.56,0.29,-2.46,0.99,-131.5625,-179.125,-40.625,0.6898193359375,0.1107177734375,-0.71368408203125,-0.050537109375,-32.5,7.875,19.875,9.54,2.2,-0.42,moving,11
6.25,29661.791094967,27,3,3,0,0,8.02,-1.03,-0.78,-1.48,-3.26,0.07,62.9375,-247.625,-24.5625,0.6734619140625,0.11492919921875,-0.72845458984375,-0.05047607421875,-40.375,4.25,-3.5,9.5,2.23,-0.86,moving,11
6.26,29661.791094967,27,3,3,0,0,5.78,-1.12,-0.11,-3.66,-3.39,1.17,62.9375,-247.625,-24.5625,0.65679931640625,0.11907958984375,-0.742919921875,-0.05035400390625,-40.375,4.25,-3.5,9.45,2.26,-1.29,moving,11
6.27,29661.806420488,27,3,3,0,0,3.71,-0.83,0.44,-5.65,-3.12,2.22,70.0,-279.375,-22.0,0.63763427734375,0.12322998046875,-0.7587890625,-0.04998779296875,-40.375,4.25,-3.5,9.36,2.28,-1.78,moving,11
6.28,29661.806420488,27,3,3,0,0,3.71,-0.83,0.44,-5.65,-3.12,2.22,70.0,-279.375,-22.0,0.63763427734375,0.12322998046875,-0.7587890625,-0.04998779296875,-40.375,4.25,-3.5,9.36,2.28,-1.78,moving,11
6.29,29661.821476193,27,3,3,0,0,2.08,-0.32,0.69,-7.19,-2.62,2.89,20.625,-249.125,-13.75,0.62066650390625,0.12420654296875,-0.7724609375,-0.05206298828125,-40.375,4.25,-3.5,9.27,2.3,-2.19,moving,11
6.3,29661.821476193,27,3,3,0,0,-0.35,-0.24,0.94,-9.56,-2.56,3.36,-21.375,-147.0,-9.8125,0.61083984375,0.12298583984375,-0.7801513671875,-0.05560302734375,-40.375,4.25,-3.5,9.21,2.32,-2.42,moving,11
6.3,29661.835690101,27,3,3,0,0,-2.38,-0.59,1.49,-11.63,-2.92,3.76,-68.0,80.0625,10.75,0.61700439453125,0.1190185546875,-0.77569580078125,-0.05877685546875,-39.375,2.75,5.6875,9.24,2.33,-2.27,moving,11
6.31,29661.835690101,27,3,3,0,0,-5.06,-1.95,1.31,-14.35,-4.29,3.42,-68.0,80.0625,10.75,0.62310791015625,0.11505126953125,-0.7711181640625,-0.06195068359375,-39.375,2.75,5.6875,9.28,2.34,-2.11,moving,11
6.32,29661.868418169,27,3,3,0,0,-7.83,0.49,0.36,-17.19,-1.82,2.13,-149.125,178.9375,42.75,0.63671875,0.10498046875,-0.7608642578125,-0.06787109375,-39.375,2.75,5.6875,9.36,2.32,-1.76,moving,11
6.33,29661.868418169,27,3,3,0,0,-10.22,2.98,-3.0,-19.69,0.74,-1.75,-284.9375,244.3125,100.625,0.65576171875,0.08392333984375,-0.74615478515625,-0.078857421875,-39.375,2.75,5.6875,9.46,2.23,-1.25,moving,11
6.34,29661.881505042,27,3,3,0,0,-11.69,5.77,-3.83,-21.24,3.65,-3.26,-432.3125,310.625,108.6875,0.6790771484375,0.05419921875,-0.72540283203125,-0.098388671875,-39.375,2.75,5.6875,9.55,2.12,-0.57,moving,11
6.35,29661.881505042,27,3,3,0,0,-9.32,5.02,-6.49,-18.84,2.77,-7.14,-479.75,630.3125,-74.3125,0.71881103515625,0.03582763671875,-0.6820068359375,-0.1298828125,-38.875,2.375,6.5,9.52,2.24,0.65,moving,11
6.36,29661.895385291,27,3,3,0,0,-3.26,-0.59,-9.77,-12.62,-2.85,-11.65,-479.75,630.3125,-74.3125,0.755126953125,0.01727294921875,-0.6353759765625,-0.1607666015625,-38.875,2.375,6.5,9.35,2.25,1.88,moving,11
6.37,29661.895385291,27,3,3,0,0,1.58,-3.25,-6.57,-7.42,-5.48,-9.72,-357.625,700.8125,-81.3125,0.79144287109375,0.008056640625,-0.58270263671875,-0.1844482421875,-38.875,2.375,6.5,9.01,2.23,3.14,moving,11
6.39,29661.927897783,27,3,3,0,0,-2.23,-2.68,-8.67,-10.85,-4.81,-12.82,-223.9375,597.6875,-29.4375,0.8201904296875,0.00372314453125,-0.53704833984375,-0.1971435546875,-38.875,2.375,6.5,8.62,2.13,4.14,moving,11
6.39,29661.927897783,27,3,3,0,0,-1.36,-2.05,-4.73,-9.72,-4.06,-9.44,-74.25,359.5,40.625,0.8372802734375,0.002685546875,-0.5098876953125,-0.19744873046875,-38.875,2.375,6.5,8.36,2.01,4.7,moving,11
6.4,29661.940356198,27,3,3,0,0,-0.05,-0.88,-0.37,-8.47,-2.86,-4.99,170.625,-22.0625,116.75,0.83807373046875,0.00958251953125,-0.514404296875,-0.18133544921875,-40.25,3.875,-9.6875,8.42,1.98,4.61,moving,11
6.41,29661.940356198,27,3,3,0,0,0.64,-0.64,0.16,-7.83,-2.59,-4.35,170.625,-22.0625,116.75,0.838623046875,0.0164794921875,-0.518798828125,-0.1651611328125,-40.25,3.875,-9.6875,8.48,1.95,4.52,moving,11
6.42,29661.956955929,27,3,3,0,0,2.3,0.22,0.11,-6.26,-1.72,-4.25,258.75,-45.4375,134.8125,0.83782958984375,0.0286865234375,-0.52593994140625,-0.14361572265625,-40.25,3.875,-9.6875,8.56,1.95,4.36,moving,11
6.43,29661.956955929,27,3,3,0,0,11.49,-0.97,-2.85,2.84,-2.96,-7.01,323.125,-63.875,135.4375,0.8353271484375,0.0452880859375,-0.5347900390625,-0.11895751953125,-40.25,3.875,-9.6875,8.65,1.98,4.15,moving,11
6.44,29661.986302243,27,3,3,0,0,19.94,-0.14,-4.69,11.07,-2.13,-8.35,353.5,-239.6875,159.375,0.82373046875,0.06103515625,-0.55621337890625,-0.09173583984375,-40.25,3.875,-9.6875,8.87,1.98,3.66,moving,11
6.45,29661.986302243,27,3,3,0,0,36.99,5.17,-7.77,27.38,3.52,-8.87,540.5,-1486.6875,345.75,0.7440185546875,0.07049560546875,-0.66265869140625,-0.048095703125,-37.5,5.6875,-15.0,9.6,1.65,1.09,moving,11
6.47,29662.00114526,27,3,3,0,0,39.11,13.95,-0.26,29.48,12.9,1.26,540.5,-1486.6875,345.75,0.64971923828125,0.07861328125,-0.756103515625,-0.0035400390625,-37.5,5.6875,-15.0,9.62,1.05,-1.52,moving,11
6.47,29662.00114526,27,3,3,0,0,39.11,-6.84,-31.39,30.54,-7.11,-26.63,754.625,-1977.6875,229.0625,0.50543212890625,0.1038818359375,-0.85540771484375,0.044921875,-37.5,5.6875,-15.0,8.57,0.27,-4.75,moving,11
6.48,29662.016725664,27,3,3,0,0,39.11,0.0,-38.93,32.08,0.04,-32.09,389.375,-1519.6875,-49.75,0.38507080078125,0.12945556640625,-0.91192626953125,0.0574951171875,-37.5,5.6875,-15.0,7.03,-0.05,-6.83,moving,11
6.49,29662.016725664,27,3,3,0,0,35.14,6.12,-32.53,28.56,5.89,-25.27,-72.1875,-362.9375,-161.4375,0.35748291015625,0.1416015625,-0.922119140625,0.042236328125,-37.5,5.6875,-15.0,6.58,0.22,-7.26,moving,11
6.5,29662.046995968,27,3,3,0,0,11.74,9.29,-5.21,4.23,8.72,1.06,-88.1875,798.0,-188.125,0.42230224609375,0.15069580078125,-0.89300537109375,0.03900146484375,-36.75,10.75,16.375,7.51,0.56,-6.27,moving,11
6.51,29662.046995968,27,3,3,0,0,8.08,8.84,-2.15,-0.19,7.93,3.01,-88.1875,798.0,-188.125,0.48492431640625,0.158935546875,-0.8592529296875,0.03564453125,-36.75,10.75,16.375,8.28,0.91,-5.16,moving,11
6.52,29662.061028398,27,3,3,0,0,6.06,7.84,2.44,-2.89,6.53,6.21,-174.9375,912.25,-176.4375,0.5543212890625,0.161376953125,-0.8160400390625,0.027587890625,-36.75,10.75,16.375,8.95,1.31,-3.76,moving,11
6.53,29662.061028398,27,3,3,0,0,6.06,7.84,2.44,-2.89,6.53,6.21,-174.9375,912.25,-176.4375,0.5543212890625,0.161376953125,-0.8160400390625,0.027587890625,-36.75,10.75,16.375,8.95,1.31,-3.76,moving,11
6.54,29662.075708574,27,3,3,0,0,5.7,5.27,10.36,-3.69,3.62,12.63,-247.75,897.5,-127.3125,0.619873046875,0.15582275390625,-0.7689208984375,0.01641845703125,-36.75,10.75,16.375,9.39,1.64,-2.26,moving,11
6.55,29662.075708574,27,3,3,0,0,1.7,2.06,1.69,-7.9,0.26,2.51,-247.625,827.5625,-56.75,0.67681884765625,0.1446533203125,-0.72174072265625,0.0079345703125,-36.75,10.75,16.375,9.6,1.8,-0.82,moving,11
6.55,29662.09076196,27,3,3,0,0,2.44,-0.62,-4.29,-7.14,-2.51,-3.53,-248.9375,-14.0,-27.75,0.67889404296875,0.1317138671875,-0.7222900390625,-0.00958251953125,-37.75,7.0625,10.25,9.59,1.88,-0.76,moving,11
6.56,29662.09076196,27,3,3,0,0,5.3,-3.72,-3.4,-4.27,-5.69,-2.7,-248.9375,-14.0,-27.75,0.68060302734375,0.11865234375,-0.72247314453125,-0.02703857421875,-37.75,7.0625,10.25,9.58,1.96,-0.7,moving,11
6.57,29662.107153439,27,3,3,0,0,7.63,-1.04,-1.3,-1.89,-3.15,-0.41,-96.625,-135.125,-74.9375,0.67279052734375,0.1173095703125,-0.72943115234375,-0.03900146484375,-37.75,7.0625,10.25,9.53,2.1,-0.89,moving,11
6.58,29662.107153439,27,3,3,0,0,3.13,-0.82,0.68,-6.35,-2.95,1.89,9.25,-185.75,-18.4375,0.66070556640625,0.118408203125,-0.7401123046875,-0.0413818359375,-37.75,7.0625,10.25,9.49,2.13,-1.21,moving,11
6.59,29662.141750485,27,3,3,0,0,1.68,-1.57,1.08,-7.76,-3.65,2.67,60.8125,-210.5625,25.625,0.6463623046875,0.1195068359375,-0.75262451171875,-0.03814697265625,-37.75,7.0625,10.25,9.45,2.07,-1.58,moving,11
6.6,29662.141750485,27,3,3,0,0,0.57,-1.53,0.87,-8.83,-3.64,2.68,-21.5,-137.125,-19.6875,0.637451171875,0.119140625,-0.76007080078125,-0.0421142578125,-40.0,3.375,-1.5625,9.4,2.11,-1.8,moving,11
6.62,29662.15377555,27,3,3,0,0,-1.41,-0.79,0.14,-10.76,-2.94,2.16,-21.5,-137.125,-19.6875,0.62841796875,0.11871337890625,-0.76739501953125,-0.0460205078125,-40.0,3.375,-1.5625,9.35,2.15,-2.01,moving,11
6.63,29662.15377555,27,3,3,0,0,-2.45,-0.23,0.02,-11.78,-2.42,2.11,-82.875,-66.625,-4.0,0.62469482421875,0.11419677734375,-0.77069091796875,-0.052490234375,-40.0,3.375,-1.5625,9.32,2.19,-2.09,moving,11
6.64,29662.16555916,27,3,3,0,0,-3.66,0.31,0.1,-13.0,-1.87,2.12,-128.6875,21.4375,27.3125,0.62750244140625,0.10540771484375,-0.7691650390625,-0.0594482421875,-40.0,3.375,-1.5625,9.34,2.19,-2.01,moving,11
6.64,29662.16555916,27,3,3,0,0,-4.78,0.33,0.12,-14.18,-1.83,1.89,-167.5625,113.4375,45.375,0.63671875,0.09381103515625,-0.76239013671875,-0.067138671875,-40.0,3.375,-1.5625,9.39,2.17,-1.76,moving,11
6.65,29662.197428545,27,3,3,0,0,-6.86,0.65,-4.73,-16.34,-1.54,-3.53,-288.8125,273.6875,26.125,0.656982421875,0.07757568359375,-0.74530029296875,-0.08258056640625,-40.375,3.75,3.375,9.47,2.2,-1.2,moving,11
6.66,29662.197428545,27,3,3,0,0,-5.85,0.95,-8.11,-15.39,-1.25,-7.47,-288.8125,273.6875,26.125,0.67645263671875,0.061279296875,-0.72735595703125,-0.09796142578125,-40.375,3.75,3.375,9.53,2.21,-0.64,moving,11
6.67,29662.211372555,27,3,3,0,0,-4.76,1.15,-9.2,-14.3,-1.09,-9.17,-293.75,299.75,-12.4375,0.69647216796875,0.0472412109375,-0.7066650390625,-0.11566162109375,-40.375,3.75,3.375,9.54,2.24,-0.03,moving,11
6.68,29662.211372555,27,3,3,0,0,-3.27,0.61,-8.53,-12.79,-1.66,-8.98,-230.875,237.875,-24.375,0.71148681640625,0.03717041015625,-0.68951416015625,-0.13037109375,-40.375,3.75,3.375,9.52,2.28,0.45,moving,11
6.69,29662.227109982,27,3,3,0,0,-1.21,-1.02,-4.12,-10.72,-3.3,-4.84,-135.8125,129.0,-4.3125,0.719482421875,0.03045654296875,-0.679931640625,-0.13836669921875,-40.375,3.75,3.375,9.51,2.27,0.72,moving,11
6.71,29662.227109982,27,3,3,0,0,-0.83,-1.37,-2.37,-10.35,-3.59,-3.13,33.0625,30.75,34.125,0.7215576171875,0.0308837890625,-0.67852783203125,-0.1341552734375,-40.375,4.0625,-2.75,9.52,2.22,0.75,moving,11
6.72,29662.255754025,27,3,3,0,0,-0.63,-1.43,-1.14,-10.16,-3.6,-1.93,33.0625,30.75,34.125,0.7236328125,0.0313720703125,-0.6771240234375,-0.1300048828125,-40.375,4.0625,-2.75,9.53,2.17,0.79,moving,11
6.72,29662.255754025,27,3,3,0,0,-0.08,-0.64,-0.3,-9.61,-2.77,-1.16,86.5,58.125,29.375,0.72705078125,0.0357666015625,-0.674560546875,-0.12286376953125,-40.375,4.0625,-2.75,9.53,2.13,0.85,moving,11
6.73,29662.270810625,27,3,3,0,0,0.34,-0.19,-0.26,-9.18,-2.3,-1.22,113.875,87.5,25.1875,0.73199462890625,0.04241943359375,-0.6702880859375,-0.1142578125,-40.375,4.0625,-2.75,9.52,2.11,0.95,moving,11
6.74,29662.270810625,27,3,3,0,0,0.79,0.23,-0.31,-8.73,-1.84,-1.37,123.375,89.625,27.6875,0.7369384765625,0.04962158203125,-0.6658935546875,-0.10498046875,-40.375,4.0625,-2.75,9.52,2.08,1.06,moving,11
6.75,29662.285939572,27,3,3,0,0,1.06,0.5,-0.38,-8.46,-1.55,-1.4,133.5,3.5625,29.375,0.73675537109375,0.0565185546875,-0.66705322265625,-0.09527587890625,-39.0,5.1875,-5.5,9.53,2.06,1.01,moving,11
6.76,29662.285939572,27,3,3,0,0,2.56,0.42,-1.09,-6.97,-1.61,-2.07,133.5,3.5625,29.375,0.73638916015625,0.06341552734375,-0.6680908203125,-0.08563232421875,-39.0,5.1875,-5.5,9.54,2.03,0.97,moving,11
6.77,29662.316410235,27,3,3,0,0,4.9,0.82,-2.76,-4.65,-1.19,-3.55,137.9375,-79.75,27.625,0.7310791015625,0.070068359375,-0.67437744140625,-0.07623291015625,-39.0,5.1875,-5.5,9.56,2.01,0.79,moving,11
6.78,29662.316410235,27,3,3,0,0,9.47,1.33,-5.44,-0.12,-0.63,-5.82,154.3125,-211.0625,40.25,0.7177734375,0.07611083984375,-0.68896484375,-0.06585693359375,-39.0,5.1875,-5.5,9.6,1.96,0.38,moving,11
6.79,29662.322950192,27,3,3,0,0,9.47,1.33,-5.44,-0.12,-0.63,-5.82,154.3125,-211.0625,40.25,0.7177734375,0.07611083984375,-0.68896484375,-0.06585693359375,-39.0,5.1875,-5.5,9.6,1.96,0.38,moving,11
6.8,29662.322950192,27,3,3,0,0,18.17,2.17,-9.69,8.6,0.46,-8.4,306.9375,-942.4375,135.375,0.65728759765625,0.08148193359375,-0.74786376953125,-0.04498291015625,-39.0,5.1875,-5.5,9.56,1.71,-1.29,moving,11
6.8,29662.34784745,27,3,3,0,0,39.11,9.59,-13.53,30.22,8.36,-9.59,465.375,-1573.4375,165.4375,0.54632568359375,0.09027099609375,-0.83258056640625,-0.01617431640625,-40.0625,5.1875,-6.5625,8.89,1.23,-3.94,moving,11
6.81,29662.34784745,27,3,3,0,0,38.4,2.57,-19.21,30.85,1.72,-13.0,403.875,-1522.9375,16.75,0.428466796875,0.10516357421875,-0.89739990234375,0.001953125,-40.0625,5.1875,-6.5625,7.54,0.84,-6.2,moving,11
6.82,29662.360778439,27,3,3,0,0,39.11,-3.89,-34.44,32.19,-4.88,-27.56,-13.625,-533.625,-93.1875,0.38629150390625,0.1119384765625,-0.91552734375,-0.00750732421875,-40.0625,5.1875,-6.5625,6.92,0.98,-6.87,moving,11
6.83,29662.360778439,27,3,3,0,0,39.09,13.82,-18.93,31.88,12.56,-12.39,-10.375,280.625,-213.6875,0.408447265625,0.1287841796875,-0.903564453125,-0.01275634765625,-40.0625,5.1875,-6.5625,7.2,1.25,-6.53,moving,11
6.84,29662.377231402,27,3,3,0,0,30.33,10.54,-6.06,22.34,8.98,-0.59,42.3125,804.8125,-267.375,0.4697265625,0.15185546875,-0.86956787109375,-0.0098876953125,-40.0625,5.1875,-6.5625,7.98,1.56,-5.47,moving,11
6.85,29662.377231402,27,3,3,0,0,17.43,9.29,-5.12,8.71,7.45,-1.03,-136.0625,925.5,-108.125,0.539794921875,0.15472412109375,-0.827392578125,-0.0123291015625,-32.0,10.6875,24.875,8.72,1.83,-4.08,moving,11
6.86,29662.406822547,27,3,3,0,0,11.4,8.39,-5.78,2.23,6.43,-2.92,-266.5,736.0625,20.375,0.5950927734375,0.14117431640625,-0.7908935546875,-0.0206298828125,-32.0,10.6875,24.875,9.17,1.96,-2.85,moving,11
6.88,29662.406822547,27,3,3,0,0,9.89,2.02,3.84,0.5,-0.01,5.8,-278.9375,489.75,26.5625,0.631591796875,0.1256103515625,-0.764404296875,-0.03240966796875,-32.0,10.6875,24.875,9.38,2.04,-1.96,moving,11
6.89,29662.420690549,27,3,3,0,0,11.91,-1.78,1.76,2.45,-3.9,3.25,-190.6875,247.375,-13.875,0.64984130859375,0.11669921875,-0.74981689453125,-0.04315185546875,-32.0,10.6875,24.875,9.45,2.12,-1.48,moving,11
6.89,29662.420690549,27,3,3,0,0,12.18,-0.85,-1.74,2.75,-3.02,-0.17,-78.3125,-64.9375,-14.875,0.646240234375,0.11297607421875,-0.7530517578125,-0.0498046875,-32.0,10.6875,24.875,9.43,2.16,-1.56,moving,11
6.9,29662.436267005,27,3,3,0,0,12.36,0.24,-2.72,3.01,-1.92,-0.67,27.625,-285.4375,-7.75,0.62701416015625,0.11376953125,-0.76898193359375,-0.05120849609375,-39.6875,6.0,8.0,9.34,2.17,-2.04,moving,11
6.91,29662.436267005,27,3,3,0,0,12.3,-0.78,-3.35,3.12,-2.93,-0.68,82.0,-368.875,-5.125,0.60107421875,0.11688232421875,-0.7890625,-0.04962158203125,-39.6875,6.0,8.0,9.18,2.14,-2.67,moving,11
6.92,29662.465950518,27,3,3,0,0,11.28,-1.88,-2.21,2.27,-3.99,1.02,52.0625,-343.3125,4.875,0.57659912109375,0.11773681640625,-0.8070068359375,-0.04925537109375,-39.6875,6.0,8.0,9.01,2.11,-3.23,moving,11
6.93,29662.465950518,27,3,3,0,0,8.38,-0.73,-1.68,-0.51,-2.82,1.84,-61.625,-201.6875,33.3125,0.56304931640625,0.1114501953125,-0.81707763671875,-0.053955078125,-39.6875,6.0,8.0,8.9,2.09,-3.53,moving,11
6.94,29662.480385373,27,3,3,0,0,4.03,0.34,-0.86,-4.88,-1.78,2.59,-144.375,12.0625,33.0,0.5654296875,0.10205078125,-0.81610107421875,-0.0625,-39.6875,6.0,8.0,8.92,2.13,-3.45,moving,11
6.96,29662.480385373,27,3,3,0,0,2.17,0.78,-0.88,-6.87,-1.42,2.18,-160.5,212.75,10.25,0.58184814453125,0.094482421875,-0.80462646484375,-0.071533203125,-38.5625,5.1875,9.875,9.04,2.2,-3.06,moving,11
6.97,29662.495753089,27,3,3,0,0,0.26,1.18,-0.45,-8.94,-1.11,2.0,-157.8125,344.8125,-13.4375,0.60693359375,0.08953857421875,-0.78558349609375,-0.08038330078125,-38.5625,5.1875,9.875,9.21,2.3,-2.45,moving,11
6.97,29662.495753089,27,3,3,0,0,-1.64,1.57,0.06,-11.01,-0.8,1.71,-168.9375,452.6875,-9.5625,0.63861083984375,0.0843505859375,-0.75970458984375,-0.0888671875,-38.5625,5.1875,9.875,9.36,2.38,-1.65,moving,11
6.98,29662.527205563,27,3,3,0,0,-5.63,3.13,0.14,-15.12,0.74,0.79,-221.5625,550.9375,18.875,0.67596435546875,0.074951171875,-0.72650146484375,-0.0982666015625,-38.5625,5.1875,9.875,9.48,2.39,-0.65,moving,11
6.99,29662.527205563,27,3,3,0,0,-7.07,3.94,-1.1,-16.57,1.59,-1.64,-316.0625,640.375,29.9375,0.71746826171875,0.05975341796875,-0.6849365234375,-0.11212158203125,-38.5625,5.1875,9.875,9.5,2.34,0.53,moving,11
7.0,29662.540783933,27,3,3,0,0,-7.89,3.59,-4.65,-17.27,1.33,-6.45,-392.25,672.4375,6.8125,0.75799560546875,0.04132080078125,-0.6375732421875,-0.13134765625,-38.5625,4.875,8.375,9.37,2.25,1.79,moving,11
7.01,29662.540783933,27,3,3,0,0,-8.8,-0.31,-7.89,-17.91,-2.46,-10.82,-364.4375,615.9375,-26.4375,0.79168701171875,0.02569580078125,-0.59149169921875,-0.15081787109375,-38.5625,4.875,8.375,9.1,2.14,2.93,moving,11
7.02,29662.555977821,27,3,3,0,0,-7.6,-3.69,-7.26,-16.41,-5.74,-11.05,-226.75,492.625,-21.6875,0.81634521484375,0.01763916015625,-0.5538330078125,-0.16278076171875,-38.5625,4.875,8.375,8.81,2.05,3.78,moving,11
7.03,29662.555977821,27,3,3,0,0,-5.73,-4.96,-5.14,-14.34,-6.93,-9.39,-64.8125,294.4375,22.75,0.8306884765625,0.01611328125,-0.5318603515625,-0.16375732421875,-38.5625,4.875,8.375,8.61,1.97,4.25,moving,11
7.05,29662.58712162,27,3,3,0,0,-4.31,-4.04,-2.96,-12.88,-6.0,-7.3,58.9375,68.5625,38.5,0.83428955078125,0.01959228515625,-0.52777099609375,-0.15814208984375,-38.5625,4.875,8.375,8.57,1.95,4.33,moving,11
7.05,29662.58712162,27,3,3,0,0,-4.31,-4.04,-2.96,-12.88,-6.0,-7.3,58.9375,68.5625,38.5,0.83428955078125,0.01959228515625,-0.52777099609375,-0.15814208984375,-38.5625,4.875,8.375,8.57,1.95,4.33,moving,11
7.06,29662.593258176,27,3,3,0,0,-1.62,-0.02,-0.65,-10.28,-2.04,-4.79,130.1875,-100.3125,21.6875,0.82965087890625,0.02667236328125,-0.536865234375,-0.15069580078125,-38.1875,4.0625,-10.75,8.65,2.02,4.13,moving,11
7.06,29662.593258176,27,3,3,0,0,-0.82,1.01,-0.35,-9.6,-1.11,-4.16,176.0,-176.375,9.9375,0.82086181640625,0.03662109375,-0.5518798828125,-0.14215087890625,-38.1875,4.0625,-10.75,8.78,2.12,3.8,moving,11
7.07,29662.616401527,27,3,3,0,0,0.19,0.86,-0.3,-8.71,-1.37,-3.72,219.6875,-197.75,17.0,0.81060791015625,0.049072265625,-0.56866455078125,-0.13092041015625,-38.1875,4.0625,-10.75,8.91,2.24,3.41,moving,11
7.08,29662.616401527,27,3,3,0,0,1.77,0.22,-0.43,-7.29,-2.08,-3.37,253.375,-240.5625,41.25,0.79766845703125,0.06219482421875,-0.5885009765625,-0.11639404296875,-38.1875,4.0625,-10.75,9.06,2.31,2.93,moving,11
7.09,29662.629918658,27,3,3,0,0,2.42,0.4,-0.51,-6.81,-1.93,-2.79,261.0,-345.1875,59.0,0.77850341796875,0.07373046875,-0.6151123046875,-0.1007080078125,-38.1875,4.0625,-10.75,9.24,2.34,2.27,moving,11
7.1,29662.629918658,27,3,3,0,0,2.42,0.0,-0.15,-6.98,-2.34,-1.6,231.75,-452.875,39.0625,0.7523193359375,0.08331298828125,-0.64752197265625,-0.08843994140625,-38.1875,4.875,-13.1875,9.4,2.35,1.44,moving,11
7.11,29662.645060015,27,3,3,0,0,3.66,-0.02,-0.5,-5.84,-2.36,-0.99,201.875,-527.375,32.3125,0.72039794921875,0.090576171875,-0.68310546875,-0.07867431640625,-38.1875,4.875,-13.1875,9.51,2.33,0.49,moving,11
7.13,29662.645060015,27,3,3,0,0,8.78,0.63,-3.74,-0.74,-1.6,-3.14,197.8125,-606.75,58.25,0.6820068359375,0.09521484375,-0.721923828125,-0.06787109375,-38.1875,4.875,-13.1875,9.53,2.23,-0.59,moving,11
7.14,29662.677221717,27,3,3,0,0,12.77,1.39,-6.89,3.37,-0.64,-5.0,215.5625,-734.5,85.5,0.63299560546875,0.09808349609375,-0.76593017578125,-0.05517578125,-38.1875,4.875,-13.1875,9.4,2.04,-1.88,moving,11
7.14,29662.677221717,27,3,3,0,0,19.92,2.35,-12.36,10.92,0.57,-8.89,257.25,-930.0625,91.5625,0.5670166015625,0.101318359375,-0.81640625,-0.040771484375,-38.1875,4.875,-13.1875,8.99,1.77,-3.46,moving,11
7.15,29662.690695798,27,3,3,0,0,30.21,4.63,-17.63,22.1,3.22,-12.3,324.375,-1192.5625,80.5,0.47674560546875,0.1068115234375,-0.8721923828125,-0.0240478515625,-40.75,4.0625,-1.5625,8.1,1.41,-5.33,moving,11
7.16,29662.690695798,27,3,3,0,0,29.62,1.55,-20.96,22.51,0.38,-14.31,229.1875,-948.6875,1.1875,0.40093994140625,0.11383056640625,-0.90887451171875,-0.01531982421875,-40.75,4.0625,-1.5625,7.11,1.16,-6.64,moving,11
7.17,29662.705306556,27,3,3,0,0,31.51,0.05,-29.37,24.41,-1.2,-22.73,-0.4375,6.9375,-77.5,0.40130615234375,0.1199951171875,-0.90789794921875,-0.0179443359375,-40.75,4.0625,-1.5625,7.1,1.26,-6.64,moving,11
7.18,29662.705306556,27,3,3,0,0,31.51,0.36,-27.51,24.04,-1.0,-21.3,1.25,346.25,-84.0,0.4283447265625,0.12713623046875,-0.89447021484375,-0.01715087890625,-40.75,4.0625,-1.5625,7.47,1.36,-6.2,moving,11
7.2,29662.735562619,27,3,3,0,0,35.65,10.31,-11.34,27.81,8.7,-5.67,25.25,402.0,-202.125,0.458740234375,0.14434814453125,-0.8765869140625,-0.01824951171875,-40.75,4.0625,-1.5625,7.83,1.61,-5.67,moving,11
7.21,29662.735562619,27,3,3,0,0,22.55,8.7,-6.18,14.28,6.87,-1.24,14.6875,520.5625,-164.5,0.49749755859375,0.15814208984375,-0.85272216796875,-0.01708984375,-31.5625,8.875,25.25,8.26,1.82,-4.94,moving,11
7.22,29662.751199948,27,3,3,0,0,14.98,7.2,-9.5,6.37,5.31,-5.2,-109.8125,414.9375,16.375,0.529541015625,0.1527099609375,-0.834228515625,-0.018798828125,-31.5625,8.875,25.25,8.6,1.89,-4.3,moving,11
7.22,29662.751199948,27,3,3,0,0,13.95,6.91,-6.26,5.18,4.98,-2.33,-176.5,202.125,59.5625,0.5465087890625,0.1405029296875,-0.8251953125,-0.02618408203125,-31.5625,8.875,25.25,8.77,1.92,-3.93,moving,11
7.23,29662.782216591,27,3,3,0,0,15.68,-0.04,-5.97,6.84,-2.03,-2.21,-77.6875,99.875,-7.5625,0.5545654296875,0.13751220703125,-0.82012939453125,-0.03094482421875,-31.5625,8.875,25.25,8.83,1.99,-3.75,moving,11
7.24,29662.782216591,27,3,3,0,0,14.42,0.15,-6.53,5.58,-1.91,-2.8,7.625,18.6875,-51.75,0.5556640625,0.14166259765625,-0.818603515625,-0.03265380859375,-31.5625,8.875,25.25,8.83,2.06,-3.73,moving,11
7.25,29662.796167925,27,3,3,0,0,14.46,1.21,-5.21,5.65,-0.91,-1.46,15.3125,-4.5,-46.875,0.55499267578125,0.145751953125,-0.81829833984375,-0.03387451171875,-37.0625,5.5625,13.6875,8.81,2.12,-3.74,moving,11
7.26,29662.796167925,27,3,3,0,0,12.38,1.76,-3.81,3.56,-0.41,-0.13,-13.25,34.4375,-26.9375,0.5574951171875,0.1470947265625,-0.8162841796875,-0.03564453125,-37.0625,5.5625,13.6875,8.82,2.17,-3.68,moving,11
7.27,29662.827580157,27,3,3,0,0,9.24,-0.2,-1.06,0.36,-2.44,2.43,-56.875,104.25,-19.0,0.5655517578125,0.14599609375,-0.81072998046875,-0.039306640625,-37.0625,5.5625,13.6875,8.88,2.24,-3.5,moving,11
7.29,29662.827580157,27,3,3,0,0,7.05,-0.82,-0.39,-1.91,-3.15,2.83,-106.125,153.5625,-9.75,0.57763671875,0.1419677734375,-0.8026123046875,-0.0452880859375,-37.0625,5.5625,13.6875,8.96,2.32,-3.22,moving,11
7.3,29662.835808876,27,3,3,0,0,2.86,-0.2,-0.51,-6.21,-2.62,2.3,-122.4375,224.8125,-24.5,0.5946044921875,0.13836669921875,-0.790283203125,-0.05230712890625,-37.0625,5.5625,13.6875,9.07,2.42,-2.81,moving,11
7.3,29662.835808876,27,3,3,0,0,1.24,-0.09,-0.64,-7.93,-2.64,1.65,-128.625,293.0625,-44.0,0.61590576171875,0.135986328125,-0.773681640625,-0.05987548828125,-38.5625,4.875,11.5,9.18,2.55,-2.29,moving,11
7.31,29662.843531451,27,3,3,0,0,1.24,-0.09,-0.64,-7.93,-2.64,1.65,-128.625,293.0625,-44.0,0.61590576171875,0.135986328125,-0.773681640625,-0.05987548828125,-38.5625,4.875,11.5,9.18,2.55,-2.29,moving,11
7.32,29662.843531451,27,3,3,0,0,-1.26,-0.11,-0.77,-10.54,-2.76,0.93,-154.9375,319.5625,-26.6875,0.63885498046875,0.13104248046875,-0.7550048828125,-0.06793212890625,-38.5625,4.875,11.5,9.28,2.64,-1.71,moving,11
7.32,29662.855784177,27,3,3,0,0,-1.68,-0.51,-1.08,-11.05,-3.23,-0.08,-171.4375,382.8125,-16.3125,0.66546630859375,0.124755859375,-0.73199462890625,-0.07568359375,-38.5625,4.875,11.5,9.36,2.71,-1.0,moving,11
7.33,29662.855784177,27,3,3,0,0,-3.22,-0.5,-2.13,-12.64,-3.24,-1.94,-168.4375,446.25,-4.875,0.69512939453125,0.11810302734375,-0.704345703125,-0.081787109375,-38.5625,4.875,11.5,9.41,2.74,-0.19,moving,11
7.34,29662.887120196,27,3,3,0,0,-5.42,1.67,-2.17,-14.83,-1.01,-2.82,-203.75,459.625,24.375,0.7249755859375,0.107421875,-0.6746826171875,-0.0880126953125,-38.5625,4.875,11.5,9.4,2.69,0.65,moving,11
7.35,29662.887120196,27,3,3,0,1,-5.92,1.66,-1.48,-15.27,-0.91,-2.96,-248.8125,438.375,41.1875,0.75262451171875,0.092529296875,-0.64483642578125,-0.0958251953125,-40.375,2.25,4.1875,9.34,2.57,1.48,moving,11
7.37,29662.900491818,27,3,3,0,1,-6.77,1.11,-1.53,-16.01,-1.29,-3.77,-296.4375,388.1875,43.8125,0.7764892578125,0.07379150390625,-0.61663818359375,-0.10638427734375,-40.375,2.25,4.1875,9.23,2.41,2.24,moving,11
7.38,29662.900491818,27,3,3,0,1,-7.76,0.68,-2.21,-16.86,-1.55,-5.1,-300.9375,331.125,19.4375,0.79583740234375,0.05535888671875,-0.59112548828125,-0.1190185546875,-40.375,2.25,4.1875,9.09,2.24,2.89,moving,11
7.39,29662.915594887,27,3,3,0,1,-7.14,-0.85,-5.01,-16.1,-3.01,-8.37,-230.9375,242.0625,-23.8125,0.808837890625,0.0430908203125,-0.57159423828125,-0.13134765625,-40.375,2.25,4.1875,8.95,2.15,3.36,moving,11
7.39,29662.915594887,27,3,3,0,1,-3.88,-1.81,-4.26,-12.76,-3.93,-7.84,-135.6875,106.375,-34.6875,0.8140869140625,0.03643798828125,-0.5623779296875,-0.14013671875,-40.375,2.25,4.1875,8.87,2.12,3.57,moving,11
7.4,29662.949860634,27,3,3,0,1,-1.62,-1.16,-3.22,-10.52,-3.27,-6.75,-74.8125,-46.0,-16.0,0.81182861328125,0.0313720703125,-0.564697265625,-0.14508056640625,-38.5625,3.75,-10.75,8.9,2.1,3.53,moving,11
7.41,29662.949860634,27,3,3,0,1,1.11,-0.19,-1.48,-7.87,-2.28,-4.77,-21.8125,-156.875,-1.4375,0.8040771484375,0.02789306640625,-0.57550048828125,-0.14666748046875,-38.5625,3.75,-10.75,8.99,2.09,3.29,moving,11
7.42,29662.96056091,27,3,3,0,1,2.36,-0.39,-1.44,-6.75,-2.48,-4.38,44.25,-220.1875,19.625,0.79296875,0.02716064453125,-0.5914306640625,-0.1435546875,-38.5625,3.75,-10.75,9.12,2.08,2.93,moving,11
7.43,29662.96056091,27,3,3,0,1,2.35,-0.37,-1.23,-6.9,-2.44,-3.69,123.375,-265.8125,51.1875,0.77935791015625,0.02972412109375,-0.611328125,-0.13421630859375,-38.5625,3.75,-10.75,9.26,2.06,2.45,moving,11
7.45,29662.975357338,27,3,3,0,1,2.36,-0.48,-1.03,-7.03,-2.52,-2.94,190.4375,-294.125,57.5625,0.76348876953125,0.0361328125,-0.6334228515625,-0.120849609375,-38.5625,3.75,-10.75,9.39,2.04,1.91,moving,11
7.46,29662.975357338,27,3,3,0,1,2.75,-0.72,-1.24,-6.75,-2.75,-2.5,222.6875,-342.6875,44.75,0.7437744140625,0.04486083984375,-0.6583251953125,-0.1065673828125,-37.5,5.1875,-11.1875,9.51,2.03,1.26,moving,11
7.47,29663.00658862,27,3,3,0,1,3.85,-0.56,-1.77,-5.72,-2.58,-2.26,218.25,-424.8125,26.0,0.7181396484375,0.05352783203125,-0.68743896484375,-0.09393310546875,-37.5,5.1875,-11.1875,9.58,2.02,0.48,moving,11
7.47,29663.00658862,27,3,3,0,1,6.43,-0.02,-3.97,-3.15,-2.0,-3.46,217.6875,-547.25,22.5625,0.68359375,0.06121826171875,-0.72271728515625,-0.0819091796875,-37.5,5.1875,-11.1875,9.59,1.98,-0.51,moving,11
7.48,29663.020567461,27,3,3,0,1,11.07,0.63,-8.05,1.63,-1.23,-6.17,248.5,-769.9375,38.0,0.63238525390625,0.0679931640625,-0.7686767578125,-0.06787109375,-37.5,5.1875,-11.1875,9.44,1.86,-1.87,moving,11
7.49,29663.020567461,27,3,3,0,1,27.88,3.85,-20.45,18.96,2.22,-16.71,317.6875,-1106.0625,48.9375,0.55377197265625,0.07525634765625,-0.82769775390625,-0.0501708984375,-37.5,5.1875,-11.1875,8.91,1.63,-3.74,moving,11
7.5,29663.035814572,27,3,3,0,1,33.86,5.24,-27.4,26.06,3.96,-21.59,403.1875,-1347.375,10.75,0.45050048828125,0.08740234375,-0.88800048828125,-0.0291748046875,-39.375,6.0,-0.75,7.79,1.28,-5.8,moving,11
7.51,29663.035814572,27,3,3,0,1,32.61,2.61,-28.3,25.78,1.47,-21.35,241.75,-848.9375,-102.9375,0.3814697265625,0.1024169921875,-0.91845703125,-0.0208740234375,-39.375,6.0,-0.75,6.82,1.14,-6.94,moving,11
7.52,29663.066266314,27,3,3,0,1,39.11,-0.71,-32.98,32.13,-2.0,-26.21,88.6875,161.75,-211.3125,0.39306640625,0.12255859375,-0.91107177734375,-0.01934814453125,-39.375,6.0,-0.75,6.97,1.29,-6.76,moving,11
7.54,29663.066266314,27,3,3,0,1,39.08,12.3,-5.09,31.58,10.83,1.04,96.3125,514.4375,-225.875,0.43194580078125,0.14447021484375,-0.89013671875,-0.01385498046875,-39.375,6.0,-0.75,7.5,1.46,-6.14,moving,11
7.55,29663.080610796,27,3,3,0,1,37.05,18.85,8.71,28.85,17.1,13.78,2.25,780.25,-203.6875,0.49102783203125,0.16094970703125,-0.8560791015625,-0.011474609375,-39.375,6.0,-0.75,8.2,1.74,-5.07,moving,11
7.55,29663.080610796,27,3,3,0,1,20.2,10.41,-9.24,11.42,8.49,-5.31,-166.125,735.625,-37.125,0.54705810546875,0.156982421875,-0.82208251953125,-0.01513671875,-29.0625,10.0,26.0,8.77,1.92,-3.93,moving,11
7.56,29663.097508827,27,3,3,0,1,10.16,4.04,-2.87,1.11,2.09,0.37,-260.375,381.4375,90.0625,0.57763671875,0.13848876953125,-0.8040771484375,-0.02423095703125,-29.0625,10.0,26.0,9.04,1.95,-3.25,moving,11
7.57,29663.097508827,27,3,3,0,1,10.16,4.04,-2.87,1.11,2.09,0.37,-260.375,381.4375,90.0625,0.57763671875,0.13848876953125,-0.8040771484375,-0.02423095703125,-29.0625,10.0,26.0,9.04,1.95,-3.25,moving,11
7.58,29663.110757159,27,3,3,0,1,12.62,-0.51,0.06,3.44,-2.46,2.91,-204.375,210.3125,70.625,0.59478759765625,0.12359619140625,-0.79364013671875,-0.032470703125,-29.0625,10.0,26.0,9.18,1.94,-2.84,moving,11
7.58,29663.110757159,27,3,3,0,1,13.33,-2.08,-2.89,4.11,-4.07,-0.2,-55.125,85.8125,-8.375,0.60125732421875,0.12158203125,-0.7889404296875,-0.0357666015625,-29.0625,10.0,26.0,9.21,1.98,-2.69,moving,11
7.59,29663.129213051,27,3,3,0,1,12.45,-0.4,-4.51,3.31,-2.42,-1.59,41.0625,-135.9375,-29.9375,0.59136962890625,0.12530517578125,-0.7957763671875,-0.03594970703125,-29.0625,10.0,26.0,9.14,2.01,-2.92,moving,11
7.61,29663.129213051,27,3,3,0,1,10.23,1.31,-2.69,1.24,-0.67,0.67,78.5625,-267.1875,-10.9375,0.57177734375,0.1292724609375,-0.8094482421875,-0.033935546875,-38.1875,5.5625,9.875,8.99,1.98,-3.37,moving,11
7.62,29663.156764646,27,3,3,0,1,6.69,0.09,-1.41,-2.18,-1.84,2.27,42.25,-192.625,13.25,0.5576171875,0.12982177734375,-0.8192138671875,-0.032470703125,-38.1875,5.5625,9.875,8.87,1.94,-3.68,moving,11
7.63,29663.156764646,27,3,3,0,1,6.46,1.41,-3.91,-2.46,-0.55,-0.36,-71.75,77.375,6.875,0.56396484375,0.12603759765625,-0.8153076171875,-0.036376953125,-38.1875,5.5625,9.875,8.92,1.97,-3.54,moving,11
7.64,29663.170626381,27,3,3,0,1,5.43,0.03,-1.39,-3.56,-2.08,1.87,-75.0,159.4375,-59.4375,0.57586669921875,0.1270751953125,-0.80645751953125,-0.0428466796875,-38.1875,5.5625,9.875,9.0,2.11,-3.26,moving,11
7.64,29663.170626381,27,3,3,0,1,2.4,0.96,-0.61,-6.67,-1.28,2.33,-58.375,188.3125,-63.4375,0.5894775390625,0.1292724609375,-0.79595947265625,-0.04803466796875,-38.1875,5.5625,9.875,9.08,2.24,-2.94,moving,11
7.65,29663.185792396,27,3,3,0,2,-0.35,1.78,-0.22,-9.52,-0.56,2.32,-85.6875,226.875,-43.3125,0.6058349609375,0.1287841796875,-0.78326416015625,-0.0535888671875,-37.875,5.5625,12.1875,9.17,2.35,-2.55,moving,11
7.66,29663.185792396,27,3,3,0,2,-1.42,2.29,0.33,-10.72,-0.13,2.32,-133.0,313.8125,-13.125,0.62847900390625,0.1240234375,-0.76556396484375,-0.059814453125,-37.875,5.5625,12.1875,9.29,2.42,-1.99,moving,11
7.67,29663.217661374,27,3,3,0,2,-3.06,0.41,1.73,-12.46,-2.07,3.01,-189.125,381.0625,-5.875,0.65545654296875,0.115966796875,-0.74310302734375,-0.068603515625,-37.875,5.5625,12.1875,9.39,2.49,-1.28,moving,11
7.68,29663.217661374,27,3,3,0,2,-4.19,-0.13,1.16,-13.66,-2.63,1.61,-196.8125,455.5625,7.3125,0.6864013671875,0.10687255859375,-0.71527099609375,-0.07623291015625,-37.875,5.5625,12.1875,9.46,2.5,-0.45,moving,11
7.7,29663.231365761,27,3,3,0,2,-5.65,0.35,0.66,-15.13,-2.1,0.22,-235.4375,475.5,29.6875,0.71771240234375,0.093994140625,-0.684814453125,-0.08465576171875,-37.875,5.5625,12.1875,9.48,2.45,0.43,moving,11
7.71,29663.231365761,27,3,3,0,2,-7.6,1.73,-0.67,-17.03,-0.62,-1.95,-315.5625,431.9375,31.5625,0.7454833984375,0.075439453125,-0.65496826171875,-0.09783935546875,-39.375,3.375,5.25,9.43,2.35,1.28,moving,11
7.72,29663.246757851,27,3,3,0,2,-7.62,1.13,-2.22,-16.94,-1.1,-4.26,-385.0625,368.375,-0.125,0.76824951171875,0.053466796875,-0.62701416015625,-0.1173095703125,-39.375,3.375,5.25,9.32,2.24,2.03,moving,11
7.72,29663.246757851,27,3,3,0,2,-7.22,-0.31,-4.03,-16.4,-2.49,-6.7,-381.8125,300.6875,-59.625,0.78515625,0.0341796875,-0.6021728515625,-0.140625,-39.375,3.375,5.25,9.17,2.18,2.67,moving,11
7.73,29663.275501788,27,3,3,0,2,-4.53,-1.91,-5.41,-13.56,-4.08,-8.54,-297.0625,220.9375,-86.5,0.796142578125,0.02105712890625,-0.58282470703125,-0.16143798828125,-39.375,3.375,5.25,9.03,2.17,3.13,moving,11
7.74,29663.275501788,27,3,3,0,2,0.26,-2.34,-5.99,-8.69,-4.49,-9.35,-152.125,104.8125,-40.1875,0.80108642578125,0.0140380859375,-0.5732421875,-0.1717529296875,-39.375,3.375,5.25,8.95,2.15,3.35,moving,11
7.75,29663.290717812,27,3,3,0,2,0.87,-2.22,-4.37,-8.11,-4.34,-7.66,-16.9375,-45.125,14.125,0.79901123046875,0.011474609375,-0.576171875,-0.171630859375,-39.0,5.5625,-8.875,8.99,2.11,3.29,moving,11
7.76,29663.290717812,27,3,3,0,2,0.76,-1.5,-2.65,-8.31,-3.61,-5.68,72.875,-149.5,34.75,0.7918701171875,0.01251220703125,-0.587646484375,-0.1656494140625,-39.0,5.5625,-8.875,9.08,2.1,3.03,moving,11
7.78,29663.306484983,27,3,3,0,2,0.71,-0.65,-1.39,-8.47,-2.78,-4.08,127.625,-182.9375,23.9375,0.78253173828125,0.0174560546875,-0.60205078125,-0.15765380859375,-39.0,5.5625,-8.875,9.18,2.12,2.69,moving,11
7.79,29663.306484983,27,3,3,0,2,1.05,-0.55,-0.5,-8.21,-2.73,-2.83,159.625,-185.75,10.9375,0.77252197265625,0.02520751953125,-0.6168212890625,-0.14874267578125,-39.0,5.5625,-8.875,9.27,2.18,2.33,moving,11
7.8,29663.33622359,27,3,3,0,2,1.35,-0.48,-0.41,-7.99,-2.7,-2.36,172.375,-195.375,15.5625,0.76165771484375,0.033447265625,-0.632080078125,-0.1387939453125,-39.0,5.5625,-8.875,9.35,2.22,1.94,moving,11
7.8,29663.33622359,27,3,3,0,2,1.84,-0.29,-0.58,-7.58,-2.52,-2.09,175.125,-223.75,28.125,0.7489013671875,0.04083251953125,-0.64898681640625,-0.12786865234375,-38.5625,5.1875,-10.5,9.42,2.22,1.51,moving,11
7.81,29663.367989011,27,3,3,0,2,3.71,0.18,-2.04,-5.78,-2.01,-3.01,175.3125,-287.75,39.625,0.7320556640625,0.0467529296875,-0.6695556640625,-0.1163330078125,-38.5625,5.1875,-10.5,9.5,2.19,0.97,moving,11
7.82,29663.367989011,27,3,3,0,2,3.71,0.18,-2.04,-5.78,-2.01,-3.01,175.3125,-287.75,39.625,0.7320556640625,0.0467529296875,-0.6695556640625,-0.1163330078125,-38.5625,5.1875,-10.5,9.5,2.19,0.97,moving,11
7.83,29663.373447589,27,3,3,0,2,5.97,0.97,-3.9,-3.59,-1.15,-4.14,190.25,-397.0625,53.5,0.7081298828125,0.05169677734375,-0.69659423828125,-0.10333251953125,-38.5625,5.1875,-10.5,9.56,2.13,0.23,moving,11
7.83,29663.373447589,27,3,3,0,2,9.45,1.85,-6.88,-0.11,-0.14,-6.07,238.625,-576.75,72.0,0.671630859375,0.05682373046875,-0.73358154296875,-0.08685302734375,-38.5625,5.1875,-10.5,9.56,1.99,-0.81,moving,11
7.84,29663.383365598,27,3,3,0,2,15.69,2.47,-12.24,6.35,0.71,-9.85,313.375,-894.875,88.1875,0.61138916015625,0.0625,-0.7861328125,-0.0657958984375,-38.5625,5.1875,-10.5,9.34,1.76,-2.39,moving,11
7.86,29663.383365598,27,3,3,0,2,32.3,8.17,-22.0,23.78,6.79,-17.33,425.75,-1382.375,82.1875,0.5106201171875,0.071044921875,-0.85595703125,-0.0394287109375,-39.6875,5.5625,-3.1875,8.51,1.37,-4.66,moving,11
7.87,29663.395708331,27,3,3,0,2,30.5,1.89,-26.85,23.22,0.79,-20.37,351.125,-1263.3125,-49.1875,0.4112548828125,0.08544921875,-0.9072265625,-0.0230712890625,-39.6875,5.5625,-3.1875,7.27,1.1,-6.47,moving,11
7.88,29663.395708331,27,3,3,0,2,37.63,-4.6,-35.18,30.71,-5.82,-28.35,58.75,-274.625,-153.0625,0.38861083984375,0.09912109375,-0.91571044921875,-0.02593994140625,-39.6875,5.5625,-3.1875,6.92,1.22,-6.83,moving,11
7.89,29663.426883787,27,3,3,0,2,38.6,-2.39,-32.81,31.33,-3.73,-26.36,29.375,319.5,-123.4375,0.41339111328125,0.110595703125,-0.90350341796875,-0.02496337890625,-39.6875,5.5625,-3.1875,7.27,1.33,-6.44,moving,11
7.89,29663.426883787,27,3,3,0,2,38.8,15.13,8.97,30.85,13.5,14.47,57.0,719.75,-266.1875,0.4678955078125,0.1348876953125,-0.87310791015625,-0.0230712890625,-39.6875,5.5625,-3.1875,7.95,1.63,-5.5,moving,11
7.9,29663.440181353,27,3,3,0,2,24.53,11.7,-0.82,15.83,9.75,3.26,-49.875,965.625,-190.5625,0.53961181640625,0.14874267578125,-0.82830810546875,-0.023193359375,-31.25,9.5625,25.1875,8.69,1.95,-4.08,moving,11
7.91,29663.440181353,27,3,3,0,2,11.33,7.16,-10.22,2.19,5.13,-7.29,-200.625,701.5,27.0,0.591796875,0.13848876953125,-0.79364013671875,-0.0272216796875,-31.25,9.5625,25.1875,9.13,2.03,-2.92,moving,11
7.92,29663.455614052,27,3,3,0,2,8.87,1.87,0.27,-0.43,-0.14,2.56,-213.25,344.375,70.75,0.61798095703125,0.123291015625,-0.7757568359375,-0.03411865234375,-31.25,9.5625,25.1875,9.31,2.01,-2.29,moving,11
7.93,29663.455614052,27,3,3,0,2,10.57,-2.03,0.06,1.19,-4.07,2.07,-95.6875,153.375,7.4375,0.62933349609375,0.1180419921875,-0.76715087890625,-0.03851318359375,-31.25,9.5625,25.1875,9.37,2.03,-2.01,moving,11
7.95,29663.48578495,27,3,3,0,2,11.11,-1.67,-1.37,1.76,-3.75,0.72,-12.375,-58.75,-24.8125,0.62542724609375,0.11883544921875,-0.77008056640625,-0.04132080078125,-31.25,9.5625,25.1875,9.34,2.08,-2.1,moving,11
7.96,29663.48578495,27,3,3,0,2,11.22,-0.36,-1.55,1.98,-2.48,0.94,16.625,-242.25,-28.5,0.60870361328125,0.1207275390625,-0.78289794921875,-0.04425048828125,-40.75,5.5625,8.75,9.24,2.12,-2.5,stop,11
7.97,29663.501013751,27,3,3,0,2,10.59,-0.5,-3.75,1.39,-2.64,-1.11,56.125,-76.9375,-28.0625,0.60272216796875,0.12530517578125,-0.786865234375,-0.04266357421875,-40.75,5.5625,8.75,9.19,2.14,-2.64,stop,11
7.97,29663.501013751,27,3,3,0,2,6.59,-0.73,-0.93,-2.61,-2.98,1.57,-13.8125,81.0,-66.125,0.60821533203125,0.12939453125,-0.78179931640625,-0.04620361328125,-40.75,5.5625,8.75,9.2,2.25,-2.51,stop,11
7.98,29663.516270343,27,3,3,0,2,5.03,0.95,1.04,-4.17,-1.44,3.37,-115.625,82.0625,-61.8125,0.61480712890625,0.1278076171875,-0.7762451171875,-0.056396484375,-40.75,5.5625,8.75,9.21,2.39,-2.33,stop,11
7.99,29663.516270343,27,3,3,0,2,3.45,0.89,1.97,-5.81,-1.59,3.99,-129.125,157.875,-27.875,0.626708984375,0.12347412109375,-0.76666259765625,-0.0648193359375,-40.75,5.5625,8.75,9.26,2.49,-2.02,stop,11
8.0,29663.547536008,27,3,3,0,2,0.99,0.01,0.96,-8.33,-2.55,2.55,-122.75,231.875,-24.9375,0.6431884765625,0.1197509765625,-0.75286865234375,-0.0718994140625,-39.6875,4.875,8.375,9.32,2.57,-1.59,stop,11
8.01,29663.547536008,27,3,3,0,2,0.31,-0.65,0.87,-9.05,-3.31,1.97,-138.4375,262.125,-38.125,0.66143798828125,0.11602783203125,-0.73663330078125,-0.080322265625,-39.6875,4.875,8.375,9.37,2.66,-1.1,stop,11
8.03,29663.560923215,27,3,3,0,2,-0.41,-0.94,0.93,-9.81,-3.69,1.48,-164.1875,286.25,-34.875,0.68096923828125,0.11077880859375,-0.71832275390625,-0.08990478515625,-39.6875,4.875,8.375,9.39,2.74,-0.55,stop,11
8.04,29663.560923215,27,3,3,0,2,-1.95,-0.51,1.13,-11.35,-3.3,1.07,-174.3125,324.75,-21.4375,0.70245361328125,0.10418701171875,-0.69708251953125,-0.09893798828125,-39.6875,4.875,8.375,9.4,2.78,0.06,stop,11
8.05,29663.5762183,27,3,3,0,2,-2.34,-0.42,0.84,-11.71,-3.21,0.12,-166.875,354.0,-9.125,0.7249755859375,0.0975341796875,-0.6734619140625,-0.1063232421875,-39.6875,4.875,8.375,9.37,2.79,0.72,stop,11
8.05,29663.5762183,27,3,3,0,2,-2.21,-0.11,0.04,-11.52,-2.86,-1.3,-155.4375,343.9375,9.0625,0.7462158203125,0.09027099609375,-0.6500244140625,-0.11187744140625,-40.75,2.5625,3.375,9.31,2.74,1.35,stop,11
8.06,29663.60735864,27,3,3,0,2,-1.8,0.63,-1.03,-11.05,-2.03,-2.9,-150.8125,274.3125,25.5,0.762939453125,0.08160400390625,-0.63067626953125,-0.11651611328125,-40.75,2.5625,3.375,9.24,2.66,1.87,stop,11
8.07,29663.60735864,27,3,3,0,2,0.12,1.59,-2.22,-9.08,-0.97,-4.4,-144.125,147.6875,24.5625,0.772216796875,0.0721435546875,-0.61944580078125,-0.12176513671875,-40.75,2.5625,3.375,9.2,2.57,2.17,stop,11
8.08,29663.613637693,27,3,3,0,2,0.12,1.59,-2.22,-9.08,-0.97,-4.4,-144.125,147.6875,24.5625,0.772216796875,0.0721435546875,-0.61944580078125,-0.12176513671875,-40.75,2.5625,3.375,9.2,2.57,2.17,stop,11
8.09,29663.613637693,27,3,3,0,2,1.82,1.3,-2.64,-7.39,-1.18,-4.87,-108.6875,0.875,27.375,0.773193359375,0.0633544921875,-0.61834716796875,-0.125732421875,-40.75,2.5625,3.375,9.22,2.48,2.22,stop,11
8.1,29663.636168292,27,3,3,0,2,3.32,1.21,-3.26,-5.97,-1.17,-5.26,-34.875,-155.0,51.375,0.7655029296875,0.05645751953125,-0.628662109375,-0.125,-40.75,2.5625,3.375,9.3,2.38,1.99,stop,11
8.11,29663.636168292,27,3,3,0,2,5.12,0.84,-3.19,-4.29,-1.46,-4.67,63.5,-301.5,60.1875,0.7490234375,0.0540771484375,-0.6495361328125,-0.118896484375,-39.6875,3.375,-8.5,9.41,2.3,1.47,stop,11
8.12,29663.652735553,27,3,3,0,2,6.42,0.74,-3.63,-3.09,-1.51,-4.33,171.8125,-422.9375,49.9375,0.72418212890625,0.05804443359375,-0.67864990234375,-0.1077880859375,-39.6875,3.375,-8.5,9.51,2.25,0.7,stop,11
8.13,29663.652735553,27,3,3,0,2,7.97,1.04,-5.41,-1.57,-1.17,-5.09,275.5625,-551.5,31.3125,0.689453125,0.06829833984375,-0.7152099609375,-0.0921630859375,-39.6875,3.375,-8.5,9.54,2.21,-0.31,stop,11
8.14,29663.665846148,27,3,3,0,2,9.95,1.56,-7.29,0.53,-0.57,-5.61,332.625,-746.5625,6.6875,0.6392822265625,0.0816650390625,-0.76092529296875,-0.07525634765625,-39.6875,3.375,-8.5,9.42,2.14,-1.67,stop,11
8.14,29663.665846148,27,3,3,0,2,13.92,2.58,-9.75,4.9,0.54,-6.49,357.25,-898.3125,-29.5,0.57489013671875,0.0972900390625,-0.81024169921875,-0.059326171875,-39.6875,3.375,-8.5,9.02,2.03,-3.25,stop,11
8.15,29663.697561806,27,3,3,0,2,14.79,2.52,-10.46,6.41,0.59,-5.73,340.375,-889.875,-82.125,0.50689697265625,0.11517333984375,-0.85296630859375,-0.0467529296875,-40.0625,3.75,-1.5625,8.37,1.92,-4.72,stop,11
8.16,29663.697561806,27,3,3,0,2,15.32,2.83,-11.01,7.59,0.95,-5.29,229.0625,-654.0625,-120.9375,0.45458984375,0.13134765625,-0.8800048828125,-0.04150390625,-40.0625,3.75,-1.5625,7.73,1.88,-5.71,stop,11
8.17,29663.710645831,27,3,3,0,2,15.62,3.14,-10.89,8.13,1.22,-4.86,110.0,-210.375,-106.25,0.4366455078125,0.14306640625,-0.88726806640625,-0.0396728515625,-40.0625,3.75,-1.5625,7.48,1.91,-6.03,stop,11
8.19,29663.710645831,27,3,3,0,2,14.6,3.78,-8.2,6.95,1.81,-2.39,35.9375,181.6875,-69.9375,0.449951171875,0.15045166015625,-0.8795166015625,-0.0372314453125,-40.0625,3.75,-1.5625,7.65,1.97,-5.8,stop,11
8.2,29663.725886594,27,3,3,0,2,15.49,3.93,-3.67,7.5,1.88,1.62,-6.1875,369.8125,-56.125,0.47796630859375,0.1556396484375,-0.86376953125,-0.0350341796875,-40.0625,3.75,-1.5625,7.99,2.05,-5.3,stop,11
8.21,29663.725886594,27,3,3,0,2,18.89,4.12,2.09,10.52,1.98,6.73,-33.375,461.8125,-42.25,0.51263427734375,0.15869140625,-0.84320068359375,-0.03302001953125,-33.5,6.25,21.375,8.37,2.14,-4.63,stop,11
8.22,29663.756713417,27,3,3,0,2,10.66,3.06,-2.75,1.95,0.85,1.17,-61.5,456.375,-14.5625,0.54656982421875,0.15814208984375,-0.82171630859375,-0.03179931640625,-33.5,6.25,21.375,8.71,2.2,-3.92,stop,11
8.22,29663.756713417,27,3,3,0,2,7.83,2.61,-4.59,-1.06,0.35,-1.15,-72.625,294.5,-2.875,0.5684814453125,0.1556396484375,-0.80718994140625,-0.0330810546875,-33.5,6.25,21.375,8.89,2.25,-3.44,stop,11
8.23,29663.786308917,27,3,3,0,2,9.12,2.53,-5.09,0.19,0.23,-1.76,-67.3125,58.625,-4.0625,0.573486328125,0.15277099609375,-0.80401611328125,-0.03717041015625,-33.5,6.25,21.375,8.93,2.3,-3.32,stop,11
8.24,29663.786308917,27,3,3,0,2,11.85,1.99,-4.12,3.0,-0.32,-0.59,-22.75,-134.8125,0.1875,0.56427001953125,0.151123046875,-0.81060791015625,-0.04052734375,-33.5,6.25,21.375,8.85,2.31,-3.52,stop,11
8.25,29663.792483193,27,3,3,0,2,14.4,2.02,-3.0,5.68,-0.26,0.86,43.9375,-208.9375,-1.375,0.548828125,0.15264892578125,-0.8209228515625,-0.04022216796875,-37.5,4.5,12.5625,8.71,2.29,-3.86,stop,11
8.27,29663.792483193,27,3,3,0,2,13.09,2.36,-3.42,4.52,0.1,0.75,71.0,-189.25,-12.75,0.5341796875,0.15625,-0.82989501953125,-0.03826904296875,-37.5,4.5,12.5625,8.57,2.25,-4.18,stop,11
8.28,29663.816164182,27,3,3,0,2,11.55,2.83,-4.02,3.06,0.58,0.32,43.375,-108.625,-15.5,0.52569580078125,0.15899658203125,-0.8348388671875,-0.03729248046875,-37.5,4.5,12.5625,8.49,2.25,-4.35,stop,11
8.29,29663.816164182,27,3,3,0,2,10.31,2.71,-4.43,1.83,0.45,-0.06,10.0625,-8.4375,-11.625,0.52490234375,0.1602783203125,-0.83514404296875,-0.03717041015625,-37.5,4.5,12.5625,8.48,2.25,-4.37,stop,11
8.3,29663.830957436,27,3,3,0,2,8.07,2.01,-4.16,-0.44,-0.26,0.12,-5.5625,56.1875,-11.375,0.52899169921875,0.1610107421875,-0.83233642578125,-0.03729248046875,-37.5,4.5,12.5625,8.51,2.27,-4.29,stop,11
8.3,29663.830957436,27,3,3,0,2,7.22,1.72,-3.75,-1.34,-0.58,0.42,-5.25,76.875,-16.0625,0.53460693359375,0.16217041015625,-0.82855224609375,-0.037353515625,-37.875,4.5,14.875,8.56,2.3,-4.17,stop,11
8.31,29663.847300575,27,3,3,0,2,6.55,1.65,-3.46,-2.06,-0.67,0.59,3.5,74.4375,-16.625,0.53985595703125,0.16375732421875,-0.8248291015625,-0.03680419921875,-37.875,4.5,14.875,8.61,2.32,-4.06,stop,11
8.32,29663.847300575,27,3,3,0,2,6.57,0.47,-3.48,-2.08,-1.87,0.47,6.875,68.5,-15.25,0.544677734375,0.1654052734375,-0.8214111328125,-0.0360107421875,-37.875,4.5,14.875,8.65,2.34,-3.96,stop,11
8.33,29663.877020546,27,3,3,0,2,6.8,1.86,-4.33,-1.93,-0.53,-0.58,-9.125,142.5,-29.5,0.55487060546875,0.16748046875,-0.8140869140625,-0.03594970703125,-37.875,4.5,14.875,8.74,2.39,-3.74,stop,11
8.34,29663.877020546,27,3,3,0,2,6.8,1.86,-4.33,-1.93,-0.53,-0.58,-9.125,142.5,-29.5,0.55487060546875,0.16748046875,-0.8140869140625,-0.03594970703125,-37.875,4.5,14.875,8.74,2.39,-3.74,stop,11
8.35,29663.883121376,27,3,3,0,2,6.37,2.83,-3.64,-2.46,0.41,-0.15,-4.75,162.1875,-15.0,0.56634521484375,0.1688232421875,-0.80596923828125,-0.03466796875,-37.875,4.5,14.875,8.83,2.42,-3.49,stop,11
8.36,29663.883121376,27,3,3,0,2,5.82,2.79,-2.63,-3.08,0.37,0.69,0.5,104.6875,2.375,0.57366943359375,0.1689453125,-0.80078125,-0.032958984375,-37.5,4.5,13.6875,8.9,2.41,-3.33,stop,11
8.37,29663.906521238,27,3,3,0,2,5.98,2.1,-0.41,-2.93,-0.29,2.87,-3.3125,19.875,9.5,0.57513427734375,0.16815185546875,-0.7999267578125,-0.03240966796875,-37.5,4.5,13.6875,8.91,2.4,-3.29,stop,11
8.38,29663.906521238,27,3,3,0,2,6.76,2.02,-0.99,-2.13,-0.35,2.37,-0.75,-47.25,12.125,0.5718994140625,0.1671142578125,-0.80242919921875,-0.03253173828125,-37.5,4.5,13.6875,8.89,2.38,-3.37,stop,11
8.39,29663.92279968,27,3,3,0,2,7.09,2.0,-1.91,-1.74,-0.35,1.62,7.0625,-103.4375,13.0625,0.5645751953125,0.166259765625,-0.80780029296875,-0.03289794921875,-37.5,4.5,13.6875,8.83,2.36,-3.53,stop,11
8.39,29663.92279968,27,3,3,0,2,7.25,1.97,-2.75,-1.49,-0.35,0.99,12.25,-139.25,15.625,0.55462646484375,0.16534423828125,-0.81488037109375,-0.03326416015625,-37.5,4.5,13.6875,8.75,2.32,-3.75,stop,11
8.4,29663.936735675,27,3,3,0,2,7.87,1.76,-3.77,-0.79,-0.53,0.2,10.375,-144.8125,16.25,0.544189453125,0.16424560546875,-0.82208251953125,-0.0338134765625,-39.0,4.0625,9.875,8.66,2.29,-3.97,stop,11
8.41,29663.936735675,27,3,3,0,2,8.08,1.63,-4.13,-0.5,-0.63,0.01,4.75,-115.9375,15.125,0.53582763671875,0.16302490234375,-0.8277587890625,-0.03436279296875,-39.0,4.0625,9.875,8.58,2.27,-4.15,stop,11
8.43,29663.983424518,27,3,3,0,2,8.18,1.46,-4.36,-0.35,-0.78,-0.1,-2.625,-66.625,11.9375,0.53106689453125,0.16180419921875,-0.83099365234375,-0.034912109375,-39.0,4.0625,9.875,8.54,2.25,-4.25,stop,11
8.44,29663.983424518,27,3,3,0,2,7.8,1.2,-4.43,-0.72,-1.04,-0.16,-7.0625,-14.0,6.375,0.5301513671875,0.16094970703125,-0.83172607421875,-0.03533935546875,-39.0,4.0625,9.875,8.53,2.24,-4.26,stop,11
8.45,29663.98979435,27,3,3,0,2,7.52,1.21,-4.39,-1.02,-1.03,-0.15,-5.5,22.3125,-0.375,0.5318603515625,0.1607666015625,-0.8306884765625,-0.035400390625,-39.0,4.0625,9.875,8.55,2.25,-4.23,stop,11
8.46,29663.98979435,27,3,3,0,3,7.45,1.31,-4.36,-1.12,-0.95,-0.18,0.1875,29.8125,-6.0625,0.53399658203125,0.1612548828125,-0.8292236328125,-0.03521728515625,-37.0625,5.1875,14.5,8.57,2.26,-4.18,stop,11
8.47,29663.998268878,27,3,3,0,3,7.63,1.5,-4.26,-0.95,-0.76,-0.1,9.1875,17.0625,-7.8125,0.53509521484375,0.16229248046875,-0.82830810546875,-0.03466796875,-37.0625,5.1875,14.5,8.58,2.26,-4.16,stop,11
8.47,29663.998268878,27,3,3,0,3,8.45,1.74,-4.03,-0.12,-0.51,0.13,17.1875,-0.75,-6.75,0.5347900390625,0.16357421875,-0.82830810546875,-0.03375244140625,-37.0625,5.1875,14.5,8.57,2.26,-4.17,stop,11
8.48,29664.026298989,27,3,3,0,3,9.1,1.89,-4.06,0.53,-0.36,0.13,20.1875,-14.1875,-4.375,0.533447265625,0.164794921875,-0.8289794921875,-0.03265380859375,-37.0625,5.1875,14.5,8.56,2.25,-4.2,stop,11
8.49,29664.026298989,27,3,3,0,3,9.79,2.0,-4.24,1.24,-0.24,0.0,18.6875,-20.625,-0.9375,0.53167724609375,0.1656494140625,-0.8299560546875,-0.03167724609375,-37.0625,5.1875,14.5,8.55,2.24,-4.24,stop,11
8.51,29664.043692136,27,3,3,0,3,10.99,2.27,-4.74,2.45,0.04,-0.45,15.9375,-24.3125,2.25,0.52972412109375,0.1661376953125,-0.8311767578125,-0.03070068359375,-38.1875,3.75,14.5,8.53,2.22,-4.28,stop,11
8.52,29664.043692136,27,3,3,0,3,11.39,2.41,-4.95,2.87,0.2,-0.62,14.125,-25.3125,5.0,0.52764892578125,0.1663818359375,-0.83245849609375,-0.02978515625,-38.1875,3.75,14.5,8.51,2.2,-4.32,stop,11
8.53,29664.055756712,27,3,3,0,3,11.63,2.47,-4.79,3.12,0.28,-0.42,8.5625,-21.9375,4.875,0.52593994140625,0.16632080078125,-0.83355712890625,-0.02923583984375,-38.1875,3.75,14.5,8.5,2.19,-4.36,stop,11
8.54,29664.055756712,27,3,3,0,3,11.56,2.62,-4.51,3.06,0.43,-0.15,-3.25,-2.75,4.0,0.52581787109375,0.1658935546875,-0.833740234375,-0.02935791015625,-38.1875,3.75,14.5,8.5,2.19,-4.36,stop,11
8.55,29664.086101804,27,3,3,0,3,10.34,2.23,-3.77,1.81,0.03,0.54,-18.5,27.125,1.75,0.528076171875,0.16497802734375,-0.83245849609375,-0.03021240234375,-38.1875,3.75,14.5,8.52,2.2,-4.31,stop,11
8.55,29664.086101804,27,3,3,0,3,9.56,1.95,-3.57,1.0,-0.26,0.66,-25.625,48.9375,-1.25,0.531982421875,0.16400146484375,-0.83013916015625,-0.0313720703125,-37.0625,5.5625,14.5,8.56,2.22,-4.23,stop,11
8.56,29664.1168822,27,3,3,0,3,8.91,1.64,-3.44,0.31,-0.59,0.71,-21.0625,51.375,-4.25,0.5360107421875,0.1634521484375,-0.82763671875,-0.0323486328125,-37.0625,5.5625,14.5,8.59,2.24,-4.15,stop,11
8.57,29664.1168822,27,3,3,0,3,8.37,1.51,-3.38,-0.25,-0.74,0.7,-11.3125,38.8125,-4.1875,0.5389404296875,0.163330078125,-0.82568359375,-0.03277587890625,-37.0625,5.5625,14.5,8.62,2.25,-4.08,stop,11
8.58,29664.127245359,27,3,3,0,3,7.75,1.48,-3.27,-0.87,-0.77,0.78,-2.25,17.125,-2.3125,0.54022216796875,0.16339111328125,-0.8248291015625,-0.0328369140625,-37.0625,5.5625,14.5,8.63,2.26,-4.06,stop,11
8.6,29664.127245359,27,3,3,0,3,7.71,1.59,-3.34,-0.91,-0.66,0.72,3.6875,-6.3125,0.5,0.53973388671875,0.16357421875,-0.82513427734375,-0.0325927734375,-37.0625,5.5625,14.5,8.63,2.25,-4.07,stop,11
8.61,29664.147167478,27,3,3,0,3,7.87,1.68,-3.4,-0.73,-0.56,0.69,6.875,-20.625,2.75,0.53814697265625,0.16363525390625,-0.826171875,-0.03228759765625,-37.0625,4.5,13.6875,8.61,2.24,-4.1,stop,11
8.62,29664.147167478,27,3,3,0,3,8.08,1.9,-3.66,-0.51,-0.32,0.48,5.8125,-22.5625,4.6875,0.5364990234375,0.1634521484375,-0.82733154296875,-0.03192138671875,-37.0625,4.5,13.6875,8.6,2.23,-4.14,stop,11
8.63,29664.161558795,27,3,3,0,3,8.25,1.96,-3.8,-0.33,-0.26,0.36,1.25,-17.9375,5.6875,0.53515625,0.16302490234375,-0.8282470703125,-0.03179931640625,-37.0625,4.5,13.6875,8.59,2.22,-4.16,stop,11
8.64,29664.161558795,27,3,3,0,3,8.37,1.95,-3.89,-0.2,-0.26,0.28,-1.8125,-11.4375,5.5625,0.534423828125,0.16253662109375,-0.828857421875,-0.03179931640625,-37.0625,4.5,13.6875,8.58,2.22,-4.18,stop,11
8.64,29664.176906044,27,3,3,0,3,8.51,1.89,-3.96,-0.06,-0.32,0.22,-2.5625,-6.125,4.3125,0.53399658203125,0.16204833984375,-0.82916259765625,-0.0318603515625,-37.0625,4.5,13.6875,8.58,2.21,-4.19,stop,11
8.65,29664.176906044,27,3,3,0,3,8.6,1.87,-4.0,0.02,-0.33,0.19,-1.8125,-2.125,2.375,0.53387451171875,0.1617431640625,-0.829345703125,-0.03192138671875,-37.5,4.5,13.375,8.58,2.21,-4.19,stop,11
8.66,29664.206989296,27,3,3,0,3,8.64,1.87,-4.02,0.05,-0.33,0.16,-1.625,0.0625,0.9375,0.533935546875,0.16162109375,-0.829345703125,-0.031982421875,-37.5,4.5,13.375,8.58,2.21,-4.19,stop,11
8.68,29664.206989296,27,3,3,0,3,8.69,1.83,-3.97,0.1,-0.38,0.21,-4.9375,3.8125,0.6875,0.5343017578125,0.16131591796875,-0.82916259765625,-0.0322265625,-37.5,4.5,13.375,8.58,2.21,-4.18,stop,11
8.69,29664.222127724,27,3,3,0,3,8.38,1.78,-4.44,-0.22,-0.43,-0.3,-17.5,23.4375,1.9375,0.5362548828125,0.160400390625,-0.8280029296875,-0.03302001953125,-37.5,4.5,13.375,8.6,2.22,-4.14,stop,11
8.69,29664.222127724,27,3,3,0,3,8.38,1.78,-4.44,-0.22,-0.43,-0.3,-17.5,23.4375,1.9375,0.5362548828125,0.160400390625,-0.8280029296875,-0.03302001953125,-37.5,4.5,13.375,8.6,2.22,-4.14,stop,11
8.7,29664.236632119,27,3,3,0,3,8.76,1.75,-3.69,0.14,-0.48,0.39,-14.6875,31.125,-3.3125,0.5386962890625,0.1600341796875,-0.82647705078125,-0.0338134765625,-37.5,4.5,13.375,8.62,2.23,-4.09,stop,11
8.71,29664.236632119,27,3,3,0,3,8.55,1.85,-3.52,-0.08,-0.39,0.53,-1.125,23.875,-7.25,0.5404052734375,0.16058349609375,-0.82525634765625,-0.03387451171875,-37.5,4.0625,14.0625,8.64,2.25,-4.05,stop,11
8.72,29664.251862587,27,3,3,0,3,8.51,2.05,-3.6,-0.13,-0.2,0.42,0.6875,13.875,-6.4375,0.5413818359375,0.1611328125,-0.824462890625,-0.033935546875,-37.5,4.0625,14.0625,8.64,2.25,-4.03,stop,11
8.72,29664.251862587,27,3,3,0,3,8.62,2.23,-3.46,-0.02,-0.03,0.56,-0.3125,4.9375,-3.125,0.541748046875,0.16131591796875,-0.82421875,-0.03399658203125,-37.5,4.0625,14.0625,8.65,2.26,-4.02,stop,11
8.73,29664.267022052,27,3,3,0,3,8.58,2.0,-3.49,-0.05,-0.25,0.54,-2.25,-7.75,2.4375,0.541259765625,0.1610107421875,-0.8245849609375,-0.03411865234375,-37.5,4.0625,14.0625,8.64,2.26,-4.03,stop,11
8.75,29664.267022052,27,3,3,0,3,8.71,1.89,-3.68,0.07,-0.36,0.37,-5.25,-17.625,5.0625,0.54010009765625,0.16033935546875,-0.82550048828125,-0.03448486328125,-37.5,4.0625,14.0625,8.63,2.25,-4.06,stop,11
8.76,29664.296079099,27,3,3,0,3,8.84,1.8,-3.62,0.22,-0.44,0.46,-0.25,-22.5625,3.875,0.53851318359375,0.1611328125,-0.82635498046875,-0.0338134765625,-37.875,4.5,13.0,8.62,2.25,-4.09,stop,11
8.77,29664.296079099,27,3,3,0,3,8.94,1.72,-3.71,0.04,-0.1,-0.02,2.0625,-15.9375,0.0625,0.55816650390625,0.1458740234375,-0.816650390625,-0.01470947265625,-37.875,4.5,13.0,8.89,1.83,-3.69,stop,11
8.78,29664.31085982,27,3,3,0,3,8.9,1.89,-3.69,0.0,0.05,0.0,2.125,-5.3125,-1.8125,0.55780029296875,0.14605712890625,-0.81689453125,-0.01470947265625,-37.875,4.5,13.0,8.89,1.83,-3.7,stop,11
8.79,29664.31085982,27,3,3,0,3,8.93,1.94,-3.51,0.04,0.1,0.18,0.0,0.125,-1.4375,0.55780029296875,0.14617919921875,-0.81689453125,-0.0147705078125,-37.875,4.5,13.0,8.89,1.83,-3.7,stop,11
8.8,29664.325293089,27,3,3,0,3,8.95,1.83,-3.44,0.05,0.0,0.24,-4.25,6.25,-0.5,0.55828857421875,0.14593505859375,-0.81658935546875,-0.0150146484375,-37.875,4.5,13.0,8.89,1.83,-3.68,stop,11
8.8,29664.325293089,27,3,3,0,3,8.6,1.75,-3.83,-0.29,-0.08,-0.16,-7.5625,8.5,0.5,0.55902099609375,0.14556884765625,-0.816162109375,-0.015380859375,-37.875,4.0625,14.5,8.9,1.84,-3.67,stop,11
8.81,29664.355919106,27,3,3,0,3,8.6,1.75,-3.92,-0.3,-0.08,-0.26,-7.5625,6.75,1.4375,0.5595703125,0.1451416015625,-0.81585693359375,-0.0157470703125,-37.875,4.0625,14.5,8.9,1.84,-3.66,stop,11
8.82,29664.355919106,27,3,3,0,3,8.69,1.71,-3.8,-0.21,-0.13,-0.15,-5.625,3.9375,0.6875,0.55987548828125,0.144775390625,-0.815673828125,-0.01605224609375,-37.875,4.0625,14.5,8.91,1.84,-3.65,stop,11
8.84,29664.370461342,27,3,3,0,3,8.87,1.92,-3.61,-0.04,0.07,0.01,-2.5625,10.375,-2.875,0.56060791015625,0.1448974609375,-0.81512451171875,-0.0162353515625,-37.875,4.0625,14.5,8.91,1.85,-3.63,stop,11
8.85,29664.370461342,27,3,3,0,3,8.36,1.98,-3.57,-0.55,0.12,0.04,-2.625,13.25,-2.625,0.5615234375,0.14495849609375,-0.814453125,-0.01641845703125,-37.875,4.0625,14.5,8.92,1.85,-3.61,stop,11
8.86,29664.385954425,27,3,3,0,3,8.64,1.92,-3.54,-0.28,0.06,0.08,-4.0625,-4.0,1.0,0.561279296875,0.14276123046875,-0.81500244140625,-0.01800537109375,-37.0625,3.375,14.5,8.92,1.85,-3.62,stop,11
8.87,29664.385954425,27,3,3,0,3,8.9,1.89,-3.66,0.0,0.03,-0.02,-3.0625,-7.9375,1.125,0.56072998046875,0.14251708984375,-0.8154296875,-0.018310546875,-37.0625,3.375,14.5,8.91,1.86,-3.63,stop,11
8.88,29664.416197833,27,3,3,0,3,8.71,1.83,-3.92,-0.19,-0.02,-0.28,-1.5,-0.8125,-0.875,0.5606689453125,0.14251708984375,-0.81549072265625,-0.0184326171875,-37.0625,3.375,14.5,8.91,1.86,-3.63,stop,11
8.89,29664.416197833,27,3,3,0,3,8.56,1.86,-3.92,-0.35,0.0,-0.29,-2.0,4.8125,-2.0,0.5609130859375,0.142578125,-0.8153076171875,-0.01861572265625,-37.0625,3.375,14.5,8.91,1.86,-3.62,stop,11
8.89,29664.430239825,27,3,3,0,3,8.6,1.89,-3.78,-0.31,0.02,-0.15,-0.3125,-0.3125,-1.8125,0.560791015625,0.14276123046875,-0.81536865234375,-0.01873779296875,-37.0625,3.375,14.5,8.91,1.86,-3.63,stop,11
8.91,29664.430239825,27,3,3,0,3,8.67,1.95,-3.54,-0.23,0.08,0.09,2.0625,-4.5,-2.4375,0.56036376953125,0.14117431640625,-0.81585693359375,-0.02008056640625,-37.875,3.75,14.5,8.91,1.87,-3.64,stop,11
8.92,29664.446597654,27,3,3,0,3,8.61,1.94,-3.61,-0.29,0.07,0.03,2.25,-5.25,-2.0,0.5599365234375,0.14141845703125,-0.81610107421875,-0.02008056640625,-37.875,3.75,14.5,8.9,1.87,-3.64,stop,11
8.93,29664.446597654,27,3,3,0,3,8.67,1.95,-3.69,-0.23,0.08,-0.04,-0.3125,-2.75,-0.8125,0.5596923828125,0.1414794921875,-0.8162841796875,-0.0201416015625,-37.875,3.75,14.5,8.9,1.87,-3.65,stop,11
8.94,29664.477017047,27,3,3,0,3,8.56,1.84,-3.79,-0.33,-0.03,-0.15,-4.125,6.8125,0.0,0.5601806640625,0.14129638671875,-0.81597900390625,-0.0203857421875,-37.875,3.75,14.5,8.9,1.87,-3.64,stop,11
8.95,29664.477017047,27,3,3,0,3,8.3,1.71,-3.86,-0.61,-0.16,-0.22,-2.0625,7.0625,-1.125,0.56060791015625,0.141357421875,-0.815673828125,-0.0205078125,-37.875,3.75,14.5,8.91,1.88,-3.63,stop,11
8.96,29664.490447467,27,3,3,0,3,8.43,1.79,-3.78,-0.47,-0.08,-0.14,2.3125,0.9375,-2.3125,0.56048583984375,0.14044189453125,-0.81591796875,-0.021240234375,-38.1875,3.75,14.0625,8.91,1.88,-3.63,stop,11
8.97,29664.490447467,27,3,3,0,3,8.56,1.86,-3.65,-0.34,-0.02,-0.01,3.375,0.375,-2.4375,0.56036376953125,0.1407470703125,-0.81591796875,-0.0211181640625,-38.1875,3.75,14.0625,8.9,1.88,-3.63,stop,11
8.97,29664.505051959,27,3,3,0,3,8.61,1.87,-3.57,-0.29,-0.01,0.05,2.5625,3.1875,-2.5,0.56048583984375,0.14111328125,-0.8157958984375,-0.02099609375,-38.1875,3.75,14.0625,8.9,1.88,-3.63,stop,11
8.98,29664.505051959,27,3,3,0,3,8.65,1.91,-3.64,-0.25,0.02,0.0,1.625,3.3125,-2.375,0.5606689453125,0.141357421875,-0.81561279296875,-0.02099609375,-38.1875,3.75,14.0625,8.91,1.89,-3.63,stop,11
9.0,29664.535868447,27,3,3,0,3,8.68,1.9,-3.68,-0.22,0.0,-0.05,1.875,1.875,-2.0625,0.560791015625,0.1416015625,-0.81549072265625,-0.02093505859375,-38.1875,3.75,14.0625,8.91,1.89,-3.63,stop,11
9.01,29664.535868447,27,3,3,0,3,8.7,1.91,-3.69,-0.2,0.02,-0.06,2.625,0.75,-2.1875,0.56072998046875,0.1392822265625,-0.81591796875,-0.02264404296875,-37.0625,4.5,14.875,8.91,1.89,-3.63,stop,11
9.02,29664.552198932,27,3,3,0,3,8.8,2.0,-3.6,-0.1,0.11,0.02,2.9375,0.6875,-2.0,0.56072998046875,0.13958740234375,-0.81585693359375,-0.02252197265625,-37.0625,4.5,14.875,8.91,1.89,-3.63,stop,11
9.03,29664.552198932,27,3,3,0,3,8.87,2.04,-3.53,-0.03,0.14,0.09,2.1875,1.5,-1.6875,0.560791015625,0.13983154296875,-0.81573486328125,-0.02239990234375,-37.0625,4.5,14.875,8.91,1.89,-3.62,stop,11
9.04,29664.566090452,27,3,3,0,3,8.87,2.11,-3.5,-0.03,0.21,0.11,1.25,1.875,-1.3125,0.5609130859375,0.1400146484375,-0.815673828125,-0.02239990234375,-37.0625,4.5,14.875,8.91,1.89,-3.62,stop,11
9.05,29664.566090452,27,3,3,0,3,8.85,2.11,-3.57,-0.06,0.2,0.04,1.375,1.125,-1.375,0.56097412109375,0.14019775390625,-0.8155517578125,-0.02239990234375,-37.0625,4.5,14.875,8.91,1.9,-3.62,stop,11
9.06,29664.597239703,27,3,3,0,3,8.83,1.99,-3.59,-0.07,0.08,0.03,2.0625,0.0,-1.1875,0.5609130859375,0.13946533203125,-0.815673828125,-0.02294921875,-37.875,4.0625,13.6875,8.91,1.9,-3.62,stop,11
9.06,29664.597239703,27,3,3,0,3,8.82,1.9,-3.55,-0.08,0.0,0.06,1.125,0.0,-0.4375,0.5609130859375,0.1395263671875,-0.815673828125,-0.02288818359375,-37.875,4.0625,13.6875,8.91,1.9,-3.62,stop,11
9.07,29664.613340045,27,3,3,0,3,8.79,1.81,-3.57,-0.11,-0.08,0.04,0.0625,1.375,-0.5,0.56103515625,0.1395263671875,-0.81561279296875,-0.02288818359375,-37.875,4.0625,13.6875,8.91,1.9,-3.62,stop,11
9.09,29664.613340045,27,3,3,0,3,8.76,1.81,-3.57,-0.14,-0.08,0.04,-1.5,2.9375,0.125,0.561279296875,0.13946533203125,-0.81549072265625,-0.02294921875,-37.875,4.0625,13.6875,8.91,1.9,-3.61,stop,11
9.1,29664.627802773,27,3,3,0,3,8.65,1.8,-3.57,-0.26,-0.09,0.03,-2.1875,3.6875,1.1875,0.56158447265625,0.1392822265625,-0.8153076171875,-0.02301025390625,-37.875,4.0625,13.6875,8.91,1.9,-3.61,stop,11
9.11,29664.627802773,27,3,3,0,3,8.65,1.83,-3.67,-0.25,-0.06,-0.06,-0.625,1.25,1.375,0.56158447265625,0.1373291015625,-0.8155517578125,-0.024169921875,-37.875,4.0625,14.5,8.91,1.89,-3.6,stop,11
9.12,29664.656119871,27,3,3,0,3,8.7,1.82,-3.67,-0.2,-0.07,-0.05,2.1875,-1.9375,1.5,0.5614013671875,0.1373291015625,-0.815673828125,-0.02398681640625,-37.875,4.0625,14.5,8.91,1.89,-3.61,stop,11
9.13,29664.656119871,27,3,3,0,3,8.8,1.81,-3.54,-0.1,-0.07,0.07,4.8125,-2.625,1.25,0.5611572265625,0.137451171875,-0.81585693359375,-0.0235595703125,-37.875,4.0625,14.5,8.91,1.89,-3.61,stop,11
9.14,29664.671735879,27,3,3,0,3,8.8,1.82,-3.54,-0.1,-0.06,0.08,5.8125,-2.0,0.5625,0.56097412109375,0.1376953125,-0.81597900390625,-0.02313232421875,-37.875,4.0625,14.5,8.91,1.88,-3.62,stop,11
9.14,29664.671735879,27,3,3,0,3,8.83,1.81,-3.57,-0.07,-0.06,0.04,5.375,-1.3125,0.3125,0.560791015625,0.137939453125,-0.8160400390625,-0.02276611328125,-37.875,4.0625,14.5,8.91,1.88,-3.62,stop,11
9.16,29664.686449298,27,3,3,0,3,8.84,1.79,-3.61,-0.06,-0.08,0.01,4.625,-0.375,0.5625,0.56072998046875,0.13641357421875,-0.81634521484375,-0.0235595703125,-37.875,5.5625,14.0625,8.91,1.87,-3.62,stop,11
9.17,29664.686449298,27,3,3,0,3,8.96,1.52,-4.09,0.04,-0.35,-0.47,5.875,8.6875,-0.625,0.5611572265625,0.13671875,-0.81597900390625,-0.02301025390625,-37.875,5.5625,14.0625,8.91,1.87,-3.61,stop,11
9.17,29664.701862628,27,3,3,0,3,8.96,1.52,-4.09,0.04,-0.35,-0.47,5.875,8.6875,-0.625,0.5611572265625,0.13671875,-0.81597900390625,-0.02301025390625,-37.875,5.5625,14.0625,8.91,1.87,-3.61,stop,11
9.18,29664.701862628,27,3,3,0,3,8.76,1.65,-3.75,-0.17,-0.22,-0.16,7.9375,21.6875,-4.3125,0.5625,0.13739013671875,-0.81500244140625,-0.02227783203125,-37.875,5.5625,14.0625,8.93,1.87,-3.59,stop,11
9.19,29664.715363198,27,3,3,0,3,8.8,1.87,-3.45,-0.13,0.0,0.11,6.5,18.375,-2.8125,0.563720703125,0.137939453125,-0.8140869140625,-0.021728515625,-37.875,5.5625,14.0625,8.94,1.87,-3.56,stop,11
9.2,29664.715363198,27,3,3,0,3,8.92,1.94,-3.24,-0.02,0.07,0.3,4.9375,10.1875,-0.6875,0.56439208984375,0.13824462890625,-0.8135986328125,-0.02130126953125,-37.875,5.5625,14.0625,8.94,1.87,-3.55,stop,11
9.21,29664.746870766,27,3,3,0,3,8.87,1.83,-3.27,-0.07,-0.02,0.26,3.1875,3.4375,1.375,0.56451416015625,0.135986328125,-0.8138427734375,-0.0225830078125,-37.0625,3.75,14.875,8.95,1.86,-3.54,stop,11
9.22,29664.746870766,27,3,3,0,3,8.78,1.79,-3.35,-0.15,-0.05,0.2,2.125,-5.3125,3.375,0.56414794921875,0.13580322265625,-0.81414794921875,-0.02227783203125,-37.0625,3.75,14.875,8.94,1.85,-3.55,stop,11
9.22,29664.760817584,27,3,3,0,3,8.77,1.85,-3.6,-0.16,0.0,-0.03,3.9375,-11.6875,4.375,0.56329345703125,0.13568115234375,-0.81475830078125,-0.02191162109375,-37.0625,3.75,14.875,8.94,1.84,-3.57,stop,11
9.23,29664.760817584,27,3,3,0,3,8.76,1.72,-3.71,-0.17,-0.11,-0.12,6.5,-10.3125,3.0,0.56243896484375,0.1357421875,-0.8153076171875,-0.02142333984375,-37.0625,3.75,14.875,8.93,1.84,-3.59,stop,11
9.25,29664.775257363,27,3,3,0,3,8.77,1.75,-3.77,-0.16,-0.07,-0.17,7.6875,-5.0625,1.5625,0.56201171875,0.135986328125,-0.81561279296875,-0.0208740234375,-37.0625,3.75,14.875,8.93,1.83,-3.6,stop,11
9.26,29664.775257363,27,3,3,0,3,8.77,1.75,-3.74,-0.15,-0.07,-0.14,9.0,1.0,-0.6875,0.56195068359375,0.1353759765625,-0.81573486328125,-0.02099609375,-37.5,4.0625,13.375,8.93,1.82,-3.6,stop,11
9.27,29664.806955768,27,3,3,0,3,8.77,1.79,-3.68,-0.15,-0.03,-0.08,10.1875,5.5,-2.5,0.562255859375,0.1361083984375,-0.8154296875,-0.02032470703125,-37.5,4.0625,13.375,8.93,1.82,-3.59,stop,11
9.28,29664.806955768,27,3,3,0,3,8.67,1.88,-3.56,-0.26,0.06,0.02,10.1875,8.1875,-3.375,0.56268310546875,0.1368408203125,-0.81500244140625,-0.0196533203125,-37.5,4.0625,13.375,8.94,1.82,-3.58,stop,11
9.29,29664.822145913,27,3,3,0,3,8.68,1.9,-3.5,-0.25,0.08,0.07,9.375,9.125,-3.25,0.563232421875,0.1375732421875,-0.8145751953125,-0.01904296875,-37.5,4.0625,13.375,8.94,1.82,-3.57,stop,11
9.3,29664.822145913,27,3,3,0,3,8.69,1.94,-3.48,-0.25,0.12,0.08,8.375,8.375,-2.75,0.563720703125,0.13818359375,-0.81414794921875,-0.01849365234375,-37.5,4.0625,13.375,8.95,1.82,-3.56,stop,11
9.31,29664.837939289,27,3,3,0,3,8.69,1.94,-3.5,-0.25,0.11,0.05,7.625,8.625,-2.625,0.564208984375,0.138427734375,-0.813720703125,-0.01824951171875,-37.0625,4.0625,13.0,8.95,1.82,-3.55,stop,11
9.31,29664.837939289,27,3,3,0,3,8.67,1.92,-3.51,-0.28,0.1,0.02,6.75,10.8125,-3.0625,0.56488037109375,0.1390380859375,-0.81317138671875,-0.017822265625,-37.0625,4.0625,13.0,8.96,1.82,-3.54,stop,11
9.33,29664.869318113,27,3,3,0,3,8.63,1.95,-3.5,-0.33,0.12,0.02,6.3125,12.9375,-4.375,0.565673828125,0.13970947265625,-0.8125,-0.0174560546875,-37.0625,4.0625,13.0,8.96,1.82,-3.52,stop,11
9.34,29664.869318113,27,3,3,0,3,8.61,1.92,-3.5,-0.36,0.09,0.0,6.6875,11.875,-5.5625,0.56640625,0.1405029296875,-0.8118896484375,-0.01715087890625,-37.0625,4.0625,13.0,8.97,1.83,-3.5,stop,11
9.35,29664.881345701,27,3,3,0,3,8.66,1.97,-3.44,-0.3,0.13,0.05,7.625,9.5,-6.4375,0.56695556640625,0.141357421875,-0.81134033203125,-0.01690673828125,-37.0625,4.0625,13.0,8.97,1.84,-3.49,stop,11
9.36,29664.881345701,27,3,3,0,3,8.73,1.95,-3.42,-0.24,0.11,0.06,7.625,10.3125,-6.5625,0.5675048828125,0.141357421875,-0.8109130859375,-0.0172119140625,-38.1875,4.0625,13.375,8.97,1.84,-3.48,stop,11
9.37,29664.896803139,27,3,3,0,3,8.83,1.91,-3.47,-0.15,0.06,-0.01,5.875,15.625,-6.875,0.56854248046875,0.1422119140625,-0.81011962890625,-0.0169677734375,-38.1875,4.0625,13.375,8.98,1.85,-3.46,stop,11
9.38,29664.896803139,27,3,3,0,3,8.72,1.83,-3.56,-0.27,-0.02,-0.12,4.75,20.75,-7.8125,0.56988525390625,0.14306640625,-0.80902099609375,-0.0167236328125,-38.1875,4.0625,13.375,8.99,1.86,-3.43,stop,11
9.39,29664.927516681,27,3,3,0,3,8.48,1.72,-3.46,-0.51,-0.15,-0.05,6.125,15.9375,-8.125,0.57086181640625,0.14398193359375,-0.80816650390625,-0.01654052734375,-38.1875,4.0625,13.375,9.0,1.87,-3.4,stop,11
9.39,29664.927516681,27,3,3,0,3,8.62,1.77,-3.36,-0.38,-0.1,0.04,9.1875,4.125,-7.875,0.57098388671875,0.14495849609375,-0.807861328125,-0.0162353515625,-38.1875,4.0625,13.375,9.0,1.88,-3.4,stop,11
9.41,29664.941240273,27,3,3,0,3,8.72,1.83,-3.27,-0.26,-0.05,0.14,10.9375,-4.9375,-8.0,0.57049560546875,0.14508056640625,-0.8082275390625,-0.0166015625,-38.1875,4.5,13.0,8.99,1.88,-3.41,stop,11
9.42,29664.941240273,27,3,3,0,3,9.0,1.91,-3.33,0.01,0.02,0.09,10.0,-4.125,-7.625,0.570068359375,0.1461181640625,-0.808349609375,-0.016357421875,-38.1875,4.5,13.0,8.99,1.89,-3.42,stop,11
9.43,29664.972796263,27,3,3,0,3,8.96,1.87,-3.34,-0.02,-0.02,0.07,6.625,1.25,-6.375,0.57000732421875,0.14691162109375,-0.8082275390625,-0.01617431640625,-38.1875,4.5,13.0,8.98,1.89,-3.42,stop,11
9.44,29664.972796263,27,3,3,0,3,8.92,1.83,-3.39,-0.06,-0.06,0.02,3.4375,7.5625,-5.8125,0.57049560546875,0.1474609375,-0.80780029296875,-0.01611328125,-38.1875,4.5,13.0,8.99,1.9,-3.41,stop,11
9.45,29664.986570107,27,3,3,0,3,8.97,1.87,-3.36,-0.02,-0.03,0.03,2.0,10.4375,-6.0625,0.57122802734375,0.14801025390625,-0.80718994140625,-0.01611328125,-38.1875,4.5,13.0,8.99,1.91,-3.4,stop,11
9.46,29664.986570107,27,3,3,0,3,8.79,2.06,-3.27,-0.2,0.14,0.11,1.0625,10.8125,-6.1875,0.5718994140625,0.1470947265625,-0.80682373046875,-0.0172119140625,-37.875,4.0625,13.0,9.0,1.92,-3.38,stop,11
9.47,29665.00076424,27,3,3,0,3,8.78,2.11,-3.21,-0.21,0.17,0.16,0.125,5.9375,-5.625,0.57232666015625,0.14752197265625,-0.80645751953125,-0.0174560546875,-37.875,4.0625,13.0,9.0,1.93,-3.37,stop,11
9.47,29665.00076424,27,3,3,0,3,8.82,2.18,-3.15,-0.17,0.24,0.21,0.0,-1.0625,-4.75,0.572265625,0.14788818359375,-0.806396484375,-0.01776123046875,-37.875,4.0625,13.0,9.0,1.94,-3.37,stop,11
9.48,29665.015495034,27,3,3,0,3,8.95,2.17,-3.11,-0.03,0.22,0.26,-1.0625,-5.5625,-2.6875,0.5718994140625,0.14801025390625,-0.806640625,-0.01800537109375,-37.875,4.0625,13.0,8.99,1.94,-3.38,stop,11
9.5,29665.015495034,27,3,3,0,3,9.02,2.08,-3.18,0.03,0.13,0.2,-3.3125,-5.0,-1.3125,0.57159423828125,0.14794921875,-0.806884765625,-0.01837158203125,-37.875,4.0625,13.0,8.99,1.94,-3.39,stop,11
9.51,29665.047122923,27,3,3,0,3,8.99,1.98,-3.29,0.0,0.02,0.1,-4.5625,-1.5,-0.5625,0.571533203125,0.1474609375,-0.8070068359375,-0.01898193359375,-38.1875,3.0,12.1875,8.99,1.95,-3.39,stop,11
9.52,29665.047122923,27,3,3,0,3,8.95,1.87,-3.36,-0.03,-0.08,0.02,-3.875,0.0625,-0.1875,0.57159423828125,0.14727783203125,-0.8070068359375,-0.01922607421875,-38.1875,3.0,12.1875,8.99,1.95,-3.39,stop,11
9.53,29665.061184853,27,3,3,0,3,8.96,1.86,-3.3,-0.02,-0.08,0.09,-1.375,-1.6875,0.0,0.571533203125,0.147216796875,-0.80706787109375,-0.01934814453125,-38.1875,3.0,12.1875,8.99,1.95,-3.39,stop,11
9.54,29665.061184853,27,3,3,0,3,8.93,1.92,-3.22,-0.05,-0.03,0.17,0.5,-4.0625,-0.0625,0.57122802734375,0.147216796875,-0.8072509765625,-0.0194091796875,-38.1875,3.0,12.1875,8.98,1.95,-3.39,stop,11
9.55,29665.076388711,27,3,3,0,3,8.87,2.01,-3.18,-0.1,0.06,0.22,-0.5,-3.125,0.5625,0.571044921875,0.14715576171875,-0.807373046875,-0.0194091796875,-38.1875,3.0,12.1875,8.98,1.95,-3.4,stop,11
9.56,29665.076388711,27,3,3,0,3,8.83,2.03,-3.18,-0.15,0.08,0.21,-3.0625,1.9375,0.1875,0.57122802734375,0.1453857421875,-0.80755615234375,-0.020751953125,-37.5,3.375,13.0,8.98,1.95,-3.39,stop,11
9.56,29665.109848957,27,3,3,0,3,8.73,2.11,-3.3,-0.25,0.15,0.07,-4.125,6.625,-0.4375,0.57171630859375,0.145263671875,-0.80718994140625,-0.02099609375,-37.5,3.375,13.0,8.99,1.96,-3.38,stop,11
9.58,29665.109848957,27,3,3,0,3,8.76,2.13,-3.27,-0.22,0.17,0.09,-4.25,7.9375,-0.875,0.5723876953125,0.1451416015625,-0.8067626953125,-0.021240234375,-37.5,3.375,13.0,8.99,1.96,-3.37,stop,11
9.59,29665.120302204,27,3,3,0,3,8.84,2.15,-3.32,-0.15,0.18,0.04,-4.0625,5.8125,-0.875,0.57281494140625,0.14501953125,-0.80645751953125,-0.02154541015625,-37.5,3.375,13.0,8.99,1.97,-3.36,stop,11
9.6,29665.120302204,27,3,3,0,3,8.88,2.13,-3.31,-0.11,0.16,0.04,-3.875,2.25,-0.25,0.57305908203125,0.14483642578125,-0.80633544921875,-0.0218505859375,-37.5,3.375,13.0,9.0,1.97,-3.35,stop,11
9.61,29665.13577071,27,3,3,0,3,8.97,2.1,-3.23,-0.02,0.12,0.12,-4.25,-0.375,0.5625,0.57305908203125,0.14306640625,-0.80657958984375,-0.02325439453125,-37.5,3.75,13.0,9.0,1.97,-3.35,stop,11
9.62,29665.13577071,27,3,3,0,3,8.99,2.02,-3.23,0.0,0.05,0.12,-5.1875,-1.75,1.25,0.57305908203125,0.1427001953125,-0.806640625,-0.02362060546875,-37.5,3.75,13.0,9.0,1.97,-3.35,stop,11
9.63,29665.165977171,27,3,3,0,3,9.0,1.93,-3.28,0.0,-0.03,0.07,-5.5625,-2.1875,1.8125,0.57293701171875,0.142333984375,-0.8067626953125,-0.02398681640625,-37.5,3.75,13.0,8.99,1.97,-3.35,stop,11
9.64,29665.165977171,27,3,3,0,3,8.92,1.83,-3.36,-0.07,-0.14,0.0,-4.8125,-2.25,2.0,0.5728759765625,0.14190673828125,-0.806884765625,-0.02423095703125,-37.5,3.75,13.0,8.99,1.97,-3.35,stop,11
9.64,29665.180413817,27,3,3,0,3,8.89,1.85,-3.39,-0.09,-0.12,-0.03,-3.0,-3.25,1.625,0.57269287109375,0.14166259765625,-0.80706787109375,-0.0244140625,-37.5,3.75,13.0,8.99,1.97,-3.36,stop,11
9.66,29665.180413817,27,3,3,0,3,8.87,1.91,-3.38,-0.11,-0.05,-0.01,-0.6875,-5.3125,1.5625,0.572265625,0.14056396484375,-0.80755615234375,-0.02508544921875,-38.5625,3.75,12.5625,8.99,1.97,-3.37,stop,11
9.67,29665.197116901,27,3,3,0,3,8.85,1.92,-3.4,-0.14,-0.04,-0.02,0.4375,-6.4375,1.5,0.57183837890625,0.14044189453125,-0.807861328125,-0.02508544921875,-38.5625,3.75,12.5625,8.99,1.97,-3.38,stop,11
9.68,29665.197116901,27,3,3,0,3,8.81,2.0,-3.41,-0.17,0.03,-0.02,1.0625,-5.3125,1.125,0.57147216796875,0.140380859375,-0.80816650390625,-0.0250244140625,-38.5625,3.75,12.5625,8.98,1.96,-3.38,stop,11
9.69,29665.227189045,27,3,3,0,3,8.79,2.01,-3.39,-0.19,0.05,0.0,1.6875,-3.1875,0.625,0.5711669921875,0.14044189453125,-0.808349609375,-0.02490234375,-38.5625,3.75,12.5625,8.98,1.96,-3.39,stop,11
9.7,29665.227189045,27,3,3,0,3,8.78,2.04,-3.36,-0.2,0.08,0.03,2.125,-1.8125,0.3125,0.571044921875,0.1405029296875,-0.80841064453125,-0.0247802734375,-38.5625,3.75,12.5625,8.98,1.96,-3.39,stop,11
9.71,29665.242049111,27,3,3,0,3,8.81,2.05,-3.37,-0.16,0.08,0.02,1.875,-1.25,0.25,0.57086181640625,0.13922119140625,-0.80877685546875,-0.02569580078125,-37.875,3.75,13.0,8.98,1.96,-3.4,stop,11
9.72,29665.242049111,27,3,3,0,3,8.81,2.02,-3.47,-0.17,0.06,-0.06,1.5625,-1.5625,0.375,0.57073974609375,0.1392822265625,-0.808837890625,-0.025634765625,-37.875,3.75,13.0,8.98,1.96,-3.4,stop,11
9.72,29665.255746255,27,3,3,0,3,8.78,2.02,-3.5,-0.19,0.05,-0.09,0.9375,-1.1875,0.1875,0.57061767578125,0.13934326171875,-0.80889892578125,-0.02557373046875,-37.875,3.75,13.0,8.98,1.96,-3.4,stop,11
9.74,29665.255746255,27,3,3,0,3,8.73,2.01,-3.47,-0.25,0.05,-0.06,0.3125,-0.125,0.125,0.570556640625,0.139404296875,-0.8089599609375,-0.02557373046875,-37.875,3.75,13.0,8.98,1.96,-3.4,stop,11
9.75,29665.286204222,27,3,3,0,3,8.65,1.97,-3.42,-0.33,0.01,-0.01,-0.125,0.0625,0.125,0.570556640625,0.139404296875,-0.8089599609375,-0.025634765625,-37.875,3.75,13.0,8.98,1.96,-3.4,stop,11
9.76,29665.286204222,27,3,3,0,3,8.64,1.96,-3.41,-0.34,0.0,0.0,0.0,-0.25,0.4375,0.5704345703125,0.13763427734375,-0.80926513671875,-0.02691650390625,-37.5,3.75,13.375,8.98,1.96,-3.41,stop,11
9.77,29665.300449299,27,3,3,0,3,8.65,1.95,-3.41,-0.32,-0.01,0.0,0.6875,-0.9375,0.625,0.57037353515625,0.13763427734375,-0.809326171875,-0.02685546875,-37.5,3.75,13.375,8.98,1.96,-3.41,stop,11
9.78,29665.300449299,27,3,3,0,3,8.68,1.96,-3.43,-0.29,0.0,-0.02,1.1875,-1.375,0.625,0.5701904296875,0.1376953125,-0.8094482421875,-0.0267333984375,-37.5,3.75,13.375,8.98,1.96,-3.41,stop,11
9.79,29665.315528034,27,3,3,0,3,8.73,1.94,-3.45,-0.24,-0.01,-0.04,1.125,-1.9375,1.0,0.57000732421875,0.13763427734375,-0.8095703125,-0.02667236328125,-37.5,3.75,13.375,8.97,1.96,-3.41,stop,11
9.8,29665.315528034,27,3,3,0,3,8.76,1.93,-3.46,-0.21,-0.02,-0.04,0.75,-1.9375,1.625,0.56988525390625,0.1375732421875,-0.8096923828125,-0.02655029296875,-37.5,3.75,13.375,8.97,1.95,-3.42,stop,11
9.81,29665.34693701,27,3,3,0,3,8.8,1.92,-3.52,-0.16,-0.02,-0.09,0.375,-1.875,1.875,0.56964111328125,0.13580322265625,-0.81011962890625,-0.02764892578125,-38.1875,3.375,13.6875,8.97,1.95,-3.42,stop,11
9.81,29665.34693701,27,3,3,0,3,8.83,1.95,-3.57,-0.14,0.0,-0.14,0.4375,-1.375,1.625,0.56951904296875,0.13568115234375,-0.81024169921875,-0.027587890625,-38.1875,3.375,13.6875,8.97,1.95,-3.42,stop,11
9.83,29665.360738971,27,3,3,0,3,8.82,1.99,-3.52,-0.15,0.03,-0.09,0.3125,0.0,1.125,0.56951904296875,0.1356201171875,-0.81024169921875,-0.02752685546875,-38.1875,3.375,13.6875,8.97,1.95,-3.43,stop,11
9.84,29665.360738971,27,3,3,0,3,8.84,2.01,-3.46,-0.13,0.05,-0.04,-0.6875,2.0625,0.9375,0.56964111328125,0.135498046875,-0.8101806640625,-0.02752685546875,-38.1875,3.375,13.6875,8.97,1.95,-3.42,stop,11
9.85,29665.37766931,27,3,3,0,3,8.87,2.03,-3.38,-0.1,0.08,0.03,-2.5,3.8125,0.875,0.5699462890625,0.13531494140625,-0.80999755859375,-0.02764892578125,-38.1875,3.375,13.6875,8.98,1.95,-3.42,stop,11
9.86,29665.37766931,27,3,3,0,3,8.79,2.07,-3.36,-0.19,0.12,0.04,-3.875,4.4375,1.1875,0.57025146484375,0.13427734375,-0.8099365234375,-0.02838134765625,-38.1875,3.375,13.0,8.98,1.95,-3.41,stop,11
9.87,29665.40725773,27,3,3,0,3,8.74,1.99,-3.48,-0.24,0.03,-0.08,-3.5,3.3125,1.3125,0.57049560546875,0.134033203125,-0.80975341796875,-0.028564453125,-38.1875,3.375,13.0,8.98,1.95,-3.4,stop,11
9.88,29665.40725773,27,3,3,0,3,8.66,1.86,-3.5,-0.31,-0.08,-0.1,-2.1875,1.1875,1.0,0.570556640625,0.1339111328125,-0.80975341796875,-0.02862548828125,-38.1875,3.375,13.0,8.98,1.95,-3.4,stop,11
9.89,29665.4215284,27,3,3,0,3,8.75,1.79,-3.42,-0.23,-0.15,-0.02,-1.75,1.3125,1.5,0.5706787109375,0.1336669921875,-0.8096923828125,-0.0286865234375,-38.1875,3.375,13.0,8.98,1.95,-3.4,stop,11
9.9,29665.4215284,27,3,3,0,3,8.76,1.71,-3.43,-0.22,-0.23,-0.03,-1.9375,2.6875,1.1875,0.57086181640625,0.13348388671875,-0.80963134765625,-0.0286865234375,-38.1875,3.375,13.0,8.98,1.95,-3.39,stop,11
9.91,29665.435923949,27,3,3,0,3,8.7,1.75,-3.45,-0.28,-0.19,-0.06,-2.9375,2.875,1.9375,0.571044921875,0.13177490234375,-0.80975341796875,-0.02972412109375,-37.875,3.75,13.375,8.99,1.94,-3.39,stop,11
9.92,29665.435923949,27,3,3,0,3,8.67,1.79,-3.49,-0.32,-0.15,-0.1,-3.9375,2.6875,2.8125,0.57122802734375,0.13134765625,-0.8096923828125,-0.02984619140625,-37.875,3.75,13.375,8.99,1.94,-3.38,stop,11
9.93,29665.467372598,27,3,3,0,3,8.71,1.86,-3.55,-0.28,-0.07,-0.16,-2.8125,1.0,3.0625,0.5712890625,0.1309814453125,-0.8096923828125,-0.02984619140625,-37.875,3.75,13.375,8.99,1.94,-3.38,stop,11
9.94,29665.467372598,27,3,3,0,3,8.8,1.91,-3.48,-0.19,-0.02,-0.09,-0.625,-1.5,2.875,0.57110595703125,0.1307373046875,-0.809814453125,-0.02972412109375,-37.875,3.75,13.375,8.99,1.93,-3.39,stop,11
9.95,29665.48168819,27,3,3,0,3,8.85,1.98,-3.37,-0.13,0.05,0.02,1.625,-1.875,1.75,0.57098388671875,0.1307373046875,-0.8099365234375,-0.029541015625,-37.875,3.75,13.375,8.99,1.93,-3.39,stop,11
9.96,29665.48168819,27,3,3,0,3,8.87,2.03,-3.34,-0.12,0.1,0.05,1.9375,-1.0625,0.625,0.57080078125,0.129150390625,-0.810302734375,-0.03057861328125,-37.5,4.0625,13.375,8.99,1.93,-3.39,stop,11
9.97,29665.496975666,27,3,3,0,3,8.84,1.94,-3.42,-0.15,0.01,-0.02,0.875,-0.3125,0.1875,0.57073974609375,0.129150390625,-0.810302734375,-0.030517578125,-37.5,4.0625,13.375,8.99,1.93,-3.39,stop,11
9.97,29665.496975666,27,3,3,0,3,8.8,1.87,-3.46,-0.19,-0.05,-0.06,0.1875,0.0,-0.0625,0.57073974609375,0.129150390625,-0.810302734375,-0.030517578125,-37.5,4.0625,13.375,8.99,1.93,-3.39,stop,11
9.99,29665.526956501,27,3,3,0,3,8.83,1.82,-3.45,-0.16,-0.1,-0.05,0.0,0.3125,-0.4375,0.57073974609375,0.129150390625,-0.810302734375,-0.030517578125,-37.5,4.0625,13.375,8.99,1.93,-3.39,stop,11
10.0,29665.526956501,27,3,3,0,3,8.84,1.8,-3.42,-0.15,-0.12,-0.02,-0.4375,1.5,-0.6875,0.57080078125,0.12921142578125,-0.81024169921875,-0.030517578125,-37.5,4.0625,13.375,8.99,1.93,-3.39,stop,11
10.01,29665.541747109,27,3,3,0,3,8.87,1.83,-3.33,-0.12,-0.09,0.06,-0.8125,2.5625,-0.4375,0.57098388671875,0.1280517578125,-0.810302734375,-0.0313720703125,-38.5625,3.75,13.375,8.99,1.93,-3.39,stop,11
10.02,29665.541747109,27,3,3,0,3,8.85,1.82,-3.26,-0.14,-0.1,0.11,-1.0,3.4375,-0.5,0.57122802734375,0.1280517578125,-0.81011962890625,-0.0313720703125,-38.5625,3.75,13.375,8.99,1.93,-3.38,stop,11
10.03,29665.55693465,27,3,3,0,3,8.81,1.84,-3.33,-0.18,-0.08,0.04,-0.875,3.5625,-0.5625,0.57147216796875,0.1280517578125,-0.8099365234375,-0.03143310546875,-38.5625,3.75,13.375,8.99,1.93,-3.38,stop,11
10.04,29665.55693465,27,3,3,0,3,8.71,1.84,-3.33,-0.28,-0.09,0.04,-0.25,2.75,-0.5,0.5716552734375,0.1280517578125,-0.809814453125,-0.0313720703125,-38.5625,3.75,13.375,9.0,1.93,-3.37,stop,11
10.05,29665.591126097,27,3,3,0,3,8.72,1.89,-3.37,-0.27,-0.04,0.0,0.4375,1.5,-0.5625,0.57177734375,0.12811279296875,-0.80975341796875,-0.0313720703125,-38.5625,3.75,13.375,9.0,1.93,-3.37,stop,11
10.06,29665.591126097,27,3,3,0,3,8.74,1.92,-3.4,-0.25,0.0,-0.02,0.9375,0.1875,-0.4375,0.57171630859375,0.12646484375,-0.80999755859375,-0.032470703125,-37.875,3.75,13.6875,9.0,1.93,-3.37,stop,11
10.07,29665.601347818,27,3,3,0,3,8.78,1.98,-3.41,-0.21,0.04,-0.04,0.4375,0.1875,-0.75,0.5716552734375,0.12652587890625,-0.80999755859375,-0.03253173828125,-37.875,3.75,13.6875,9.0,1.93,-3.37,stop,11
10.08,29665.601347818,27,3,3,0,3,8.85,2.09,-3.3,-0.15,0.15,0.06,-0.1875,1.625,-1.3125,0.57177734375,0.12664794921875,-0.8099365234375,-0.0325927734375,-37.875,3.75,13.6875,9.0,1.93,-3.37,stop,11
10.09,29665.61670292,27,3,3,0,3,8.89,2.14,-3.22,-0.1,0.2,0.14,-1.625,3.5625,-1.5625,0.572021484375,0.126708984375,-0.8096923828125,-0.03277587890625,-37.875,3.75,13.6875,9.0,1.94,-3.36,stop,11
10.1,29665.61670292,27,3,3,0,3,8.91,2.14,-3.16,-0.09,0.2,0.18,-3.0,5.3125,-1.875,0.57244873046875,0.12677001953125,-0.80938720703125,-0.0330810546875,-37.875,3.75,13.6875,9.0,1.94,-3.35,stop,11
10.11,29665.649423664,27,3,3,0,3,8.88,2.13,-3.14,-0.11,0.18,0.2,-4.0625,6.6875,-2.1875,0.572998046875,0.12677001953125,-0.8089599609375,-0.03350830078125,-38.1875,3.375,12.1875,9.0,1.95,-3.34,stop,11
10.12,29665.649423664,27,3,3,0,3,8.82,2.03,-3.16,-0.18,0.07,0.16,-4.5625,6.3125,-1.875,0.57354736328125,0.126708984375,-0.80859375,-0.03387451171875,-38.1875,3.375,12.1875,9.01,1.96,-3.33,stop,11
10.13,29665.661156493,27,3,3,0,3,8.77,1.96,-3.19,-0.23,0.0,0.13,-4.6875,4.8125,-1.375,0.57391357421875,0.1265869140625,-0.808349609375,-0.03424072265625,-38.1875,3.375,12.1875,9.01,1.96,-3.32,stop,11
10.14,29665.661156493,27,3,3,0,3,8.74,1.92,-3.19,-0.26,-0.04,0.12,-4.125,2.9375,-0.6875,0.57415771484375,0.12646484375,-0.80816650390625,-0.0345458984375,-38.1875,3.375,12.1875,9.01,1.97,-3.31,stop,11
10.15,29665.677265135,27,3,3,0,3,8.65,1.85,-3.29,-0.36,-0.12,0.01,-3.1875,1.375,-0.25,0.5743408203125,0.1263427734375,-0.80810546875,-0.0347900390625,-38.1875,3.375,12.1875,9.01,1.97,-3.31,stop,11
10.16,29665.677265135,27,3,3,0,3,8.58,1.82,-3.36,-0.42,-0.15,-0.05,-1.9375,-0.1875,0.125,0.57427978515625,0.1251220703125,-0.80828857421875,-0.03570556640625,-37.875,3.75,13.0,9.01,1.97,-3.31,stop,11
10.17,29665.706018024,27,3,3,0,3,8.51,1.82,-3.33,-0.5,-0.14,-0.01,-0.5,-1.375,0.0625,0.57415771484375,0.1251220703125,-0.808349609375,-0.03570556640625,-37.875,3.75,13.0,9.01,1.97,-3.31,stop,11
10.18,29665.706018024,27,3,3,0,3,8.42,1.89,-3.23,-0.58,-0.08,0.08,0.1875,0.0625,0.0,0.57415771484375,0.1251220703125,-0.808349609375,-0.03570556640625,-37.875,3.75,13.0,9.01,1.97,-3.31,stop,11
10.19,29665.721050129,27,3,3,0,3,8.18,2.09,-2.91,-0.83,0.12,0.39,0.0625,1.9375,-0.375,0.57427978515625,0.1251220703125,-0.8082275390625,-0.03570556640625,-37.875,3.75,13.0,9.01,1.97,-3.31,stop,11
10.2,29665.721050129,27,3,3,0,3,8.14,2.13,-2.71,-0.87,0.15,0.59,-0.6875,3.625,-0.75,0.57452392578125,0.1251220703125,-0.80804443359375,-0.03570556640625,-37.875,3.75,13.0,9.01,1.97,-3.3,stop,11
10.21,29665.735276732,27,3,3,0,3,8.14,2.13,-2.44,-0.87,0.15,0.85,-1.625,6.75,-0.8125,0.57501220703125,0.1241455078125,-0.807861328125,-0.03656005859375,-38.1875,3.375,13.0,9.02,1.97,-3.29,stop,11
10.21,29665.735276732,27,3,3,0,3,8.14,2.13,-2.44,-0.87,0.15,0.85,-1.625,6.75,-0.8125,0.57501220703125,0.1241455078125,-0.807861328125,-0.03656005859375,-38.1875,3.375,13.0,9.02,1.97,-3.29,stop,11
10.22,29665.750924193,27,3,3,0,3,8.09,2.1,-1.97,-0.92,0.11,1.3,-3.6875,11.1875,-0.5625,0.5758056640625,0.1240234375,-0.8072509765625,-0.0367431640625,-38.1875,3.375,13.0,9.02,1.98,-3.27,stop,11
10.23,29665.750924193,27,3,3,0,3,8.08,2.02,-1.84,-0.95,0.04,1.4,-6.5625,15.9375,0.75,0.5770263671875,0.1236572265625,-0.80645751953125,-0.0369873046875,-38.1875,3.375,13.0,9.03,1.98,-3.24,stop,11
10.24,29665.766449339,27,3,3,0,3,8.1,1.91,-1.82,-0.94,-0.07,1.39,-9.1875,17.9375,2.1875,0.578369140625,0.12310791015625,-0.8055419921875,-0.03729248046875,-38.1875,3.375,13.0,9.04,1.98,-3.21,stop,11
10.25,29665.766449339,27,3,3,0,3,8.19,1.88,-1.84,-0.86,-0.1,1.34,-8.6875,15.5,4.4375,0.57958984375,0.1224365234375,-0.8048095703125,-0.03753662109375,-38.1875,3.375,13.0,9.05,1.98,-3.19,stop,11
10.26,29665.796722085,27,3,3,0,3,8.36,1.96,-1.65,-0.7,-0.01,1.51,-5.0625,10.6875,6.6875,0.58038330078125,0.12091064453125,-0.804443359375,-0.03802490234375,-37.5,3.0,12.5625,9.06,1.97,-3.17,stop,11
10.27,29665.796722085,27,3,3,0,3,8.41,2.06,-1.35,-0.65,0.1,1.8,-1.0625,7.25,8.375,0.5809326171875,0.12030029296875,-0.80413818359375,-0.03759765625,-37.5,3.0,12.5625,9.07,1.96,-3.15,stop,11
10.28,29665.811218993,27,3,3,0,3,8.54,2.35,-1.12,-0.53,0.41,2.02,0.125,8.625,10.4375,0.58160400390625,0.11956787109375,-0.8038330078125,-0.0369873046875,-37.5,3.0,12.5625,9.08,1.94,-3.14,stop,11
10.29,29665.811218993,27,3,3,0,3,8.7,2.63,-1.08,-0.38,0.7,2.05,-1.875,9.0,11.6875,0.582275390625,0.11871337890625,-0.803466796875,-0.03643798828125,-37.5,3.0,12.5625,9.09,1.92,-3.13,stop,11
10.3,29665.826323282,27,3,3,0,3,8.49,3.08,-1.84,-0.6,1.17,1.28,-4.5,-0.5625,11.0625,0.58233642578125,0.11767578125,-0.8035888671875,-0.03619384765625,-37.5,3.0,12.5625,9.09,1.91,-3.13,stop,11
10.31,29665.826323282,27,3,3,0,3,8.93,3.14,-2.89,-0.15,1.23,0.26,-6.1875,-22.1875,9.625,0.580810546875,0.11572265625,-0.804931640625,-0.03704833984375,-39.0,3.375,12.5625,9.08,1.9,-3.16,stop,11
10.32,29665.855761636,27,3,3,0,3,9.88,3.13,-4.41,0.83,1.24,-1.15,-4.75,-62.75,13.5625,0.57647705078125,0.11431884765625,-0.80816650390625,-0.03729248046875,-39.0,3.375,12.5625,9.05,1.88,-3.26,stop,11
10.33,29665.855761636,27,3,3,0,3,13.82,2.97,-8.19,4.83,1.13,-4.73,1.75,-121.75,24.4375,0.56793212890625,0.1123046875,-0.81451416015625,-0.03717041015625,-39.0,3.375,12.5625,8.99,1.84,-3.45,stop,11
10.34,29665.871217406,27,3,3,0,3,17.1,2.81,-10.03,8.22,1.03,-6.27,16.9375,-193.625,37.0,0.5540771484375,0.10986328125,-0.82440185546875,-0.0360107421875,-39.0,3.375,12.5625,8.88,1.77,-3.76,stop,11
10.35,29665.871217406,27,3,3,0,3,20.74,2.59,-11.64,12.02,0.91,-7.48,45.5625,-254.9375,39.3125,0.5352783203125,0.1083984375,-0.8370361328125,-0.03326416015625,-39.0,3.375,12.5625,8.71,1.68,-4.16,stop,11
10.36,29665.886762613,27,3,3,0,3,24.09,3.13,-11.81,15.57,1.52,-7.23,68.4375,-261.9375,15.9375,0.51544189453125,0.10968017578125,-0.849365234375,-0.030029296875,-37.5,4.0625,12.5625,8.52,1.6,-4.57,moving,11
10.37,29665.886762613,27,3,3,0,3,24.59,5.04,-8.23,16.2,3.44,-3.42,51.3125,-146.6875,-22.8125,0.50396728515625,0.11328125,-0.85577392578125,-0.02862548828125,-37.5,4.0625,12.5625,8.39,1.6,-4.8,moving,11
10.38,29665.919294961,27,3,3,0,3,20.52,4.84,-7.91,12.08,3.16,-3.21,-19.5625,69.5,-43.1875,0.50921630859375,0.11578369140625,-0.85223388671875,-0.03131103515625,-37.5,4.0625,12.5625,8.44,1.68,-4.7,moving,11
10.39,29665.919294961,27,3,3,0,3,16.6,3.7,-7.03,8.01,1.9,-2.66,-87.5625,204.5625,-34.125,0.525146484375,0.114990234375,-0.8424072265625,-0.03729248046875,-37.5,4.0625,12.5625,8.59,1.8,-4.37,moving,11
10.4,29665.93557849,27,3,3,0,3,14.1,2.86,-6.34,5.34,0.95,-2.36,-111.1875,237.6875,-16.1875,0.54351806640625,0.11181640625,-0.83074951171875,-0.0438232421875,-37.5,4.0625,12.5625,8.75,1.9,-3.97,moving,11
10.41,29665.93557849,27,3,3,0,3,10.84,1.58,-4.76,1.94,-0.38,-1.15,-102.9375,218.875,-0.1875,0.56024169921875,0.1077880859375,-0.81982421875,-0.04913330078125,-35.25,4.875,18.6875,8.9,1.97,-3.6,moving,11
10.42,29665.977223672,27,3,3,0,3,10.17,0.76,-4.45,1.15,-1.24,-1.17,-86.0,188.0625,11.3125,0.574462890625,0.10357666015625,-0.8101806640625,-0.05291748046875,-35.25,4.875,18.6875,9.02,2.0,-3.27,moving,11
10.43,29665.977223672,27,3,3,0,3,9.11,0.45,-4.1,0.0,-1.54,-1.08,-64.8125,148.25,26.1875,0.58563232421875,0.09912109375,-0.8026123046875,-0.05487060546875,-35.25,4.875,18.6875,9.11,2.0,-3.02,moving,11
10.44,29665.98474772,27,3,3,0,3,5.65,1.67,-3.81,-3.52,-0.3,-0.98,-38.5625,106.75,29.125,0.59356689453125,0.09564208984375,-0.79718017578125,-0.05517578125,-35.25,4.875,18.6875,9.17,1.97,-2.83,moving,11
10.45,29665.98474772,27,3,3,0,3,4.31,2.0,-3.35,-4.89,0.03,-0.64,-14.125,72.125,10.3125,0.59869384765625,0.094482421875,-0.79345703125,-0.05499267578125,-35.25,4.875,18.6875,9.21,1.96,-2.71,moving,11
10.46,29665.992649698,27,3,3,0,3,3.41,2.21,-2.73,-5.82,0.22,-0.1,-6.0625,56.25,-8.25,0.60272216796875,0.09619140625,-0.790283203125,-0.05450439453125,-37.875,3.75,12.5625,9.23,1.98,-2.62,moving,11
10.46,29665.992649698,27,3,3,0,3,3.41,2.21,-2.73,-5.82,0.22,-0.1,-6.0625,56.25,-8.25,0.60272216796875,0.09619140625,-0.790283203125,-0.05450439453125,-37.875,3.75,12.5625,9.23,1.98,-2.62,moving,11
10.47,29666.007084146,27,3,3,0,3,2.83,2.05,-2.25,-6.42,0.04,0.26,-13.3125,59.5,-15.4375,0.6068115234375,0.0968017578125,-0.78692626953125,-0.0557861328125,-37.875,3.75,12.5625,9.26,2.01,-2.52,moving,11
10.48,29666.007084146,27,3,3,0,3,1.56,1.52,-1.31,-7.71,-0.52,1.08,-33.8125,68.9375,-12.625,0.61175537109375,0.09625244140625,-0.78302001953125,-0.05816650390625,-37.875,3.75,12.5625,9.28,2.04,-2.39,moving,11
10.49,29666.020669025,27,3,3,0,3,1.07,1.32,-0.56,-8.23,-0.77,1.67,-64.1875,80.75,-11.5625,0.61773681640625,0.093994140625,-0.7781982421875,-0.0625,-37.875,3.75,12.5625,9.31,2.09,-2.24,moving,11
10.5,29666.020669025,27,3,3,0,3,0.52,0.45,0.25,-8.82,-1.69,2.27,-85.3125,120.25,-12.125,0.62646484375,0.09088134765625,-0.7711181640625,-0.0679931640625,-37.875,3.75,12.5625,9.35,2.14,-2.01,moving,11
10.51,29666.051665974,27,3,3,0,3,-0.37,-0.41,0.75,-9.78,-2.59,2.42,-104.1875,186.0,-0.5,0.63970947265625,0.0863037109375,-0.76019287109375,-0.073486328125,-38.5625,3.0,8.375,9.41,2.17,-1.67,moving,11
10.52,29666.051665974,27,3,3,0,3,-1.57,-0.72,0.63,-11.06,-2.89,1.85,-118.3125,249.5,25.4375,0.6571044921875,0.07958984375,-0.7454833984375,-0.0780029296875,-38.5625,3.0,8.375,9.48,2.16,-1.21,moving,11
10.53,29666.066132567,27,3,3,0,3,-2.24,-0.3,0.42,-11.79,-2.41,1.13,-141.9375,276.75,44.0625,0.6761474609375,0.0704345703125,-0.72869873046875,-0.082763671875,-38.5625,3.0,8.375,9.54,2.11,-0.7,moving,11
10.54,29666.066132567,27,3,3,0,3,-2.87,0.15,0.23,-12.45,-1.89,0.41,-180.1875,271.6875,46.0625,0.694580078125,0.058837890625,-0.71136474609375,-0.08978271484375,-38.5625,3.0,8.375,9.58,2.05,-0.18,moving,11
10.55,29666.0815885,27,3,3,0,3,-3.44,0.5,-0.36,-13.03,-1.48,-0.68,-227.9375,253.625,39.9375,0.71148681640625,0.04449462890625,-0.694091796875,-0.1002197265625,-38.5625,3.0,8.375,9.59,1.98,0.31,moving,11
10.56,29666.0815885,27,3,3,0,3,-3.24,0.37,-0.96,-12.83,-1.52,-1.77,-273.5,236.4375,33.8125,0.726806640625,0.02752685546875,-0.67681884765625,-0.11370849609375,-40.375,2.25,3.375,9.58,1.9,0.8,moving,11
10.57,29666.097666014,27,3,3,0,3,-2.84,0.2,-2.01,-12.39,-1.6,-3.29,-286.25,227.0,27.5625,0.74078369140625,0.010009765625,-0.65936279296875,-0.12823486328125,-40.375,2.25,3.375,9.55,1.8,1.27,moving,11
10.58,29666.097666014,27,3,3,0,3,-2.66,-0.37,-3.19,-12.16,-2.07,-4.9,-246.9375,213.9375,25.5,0.75323486328125,-0.0050048828125,-0.64251708984375,-0.14056396484375,-40.375,2.25,3.375,9.5,1.69,1.7,moving,11
10.59,29666.128148274,27,3,3,0,3,-2.36,-1.21,-4.72,-11.82,-2.8,-6.76,-174.25,167.5,29.25,0.76275634765625,-0.01605224609375,-0.62921142578125,-0.1484375,-40.375,2.25,3.375,9.45,1.59,2.03,moving,11
10.6,29666.128148274,27,3,3,0,3,-1.82,-1.36,-4.14,-11.26,-2.88,-6.34,-96.6875,77.75,24.625,0.76715087890625,-0.0228271484375,-0.62274169921875,-0.1522216796875,-40.375,2.25,3.375,9.43,1.51,2.19,moving,11
10.61,29666.141751057,27,3,3,0,3,-1.07,-1.36,-2.72,-10.52,-2.84,-4.89,-32.5,-17.5625,15.1875,0.766357421875,-0.02606201171875,-0.6234130859375,-0.15289306640625,-39.375,4.0625,-3.875,9.44,1.47,2.17,moving,11
10.62,29666.141751057,27,3,3,0,3,-0.51,-0.9,-1.49,-9.99,-2.36,-3.53,22.0625,-74.25,12.25,0.762451171875,-0.0262451171875,-0.628662109375,-0.15069580078125,-39.375,4.0625,-3.875,9.47,1.46,2.04,moving,11
10.63,29666.155969563,27,3,3,0,3,0.69,0.16,-0.59,-8.82,-1.3,-2.44,74.5625,-100.5,11.3125,0.75726318359375,-0.023193359375,-0.63629150390625,-0.1456298828125,-39.375,4.0625,-3.875,9.51,1.47,1.85,moving,11
10.64,29666.155969563,27,3,3,0,3,1.37,0.48,-0.69,-8.18,-1.0,-2.29,119.25,-133.25,11.125,0.7501220703125,-0.01763916015625,-0.646484375,-0.13800048828125,-39.375,4.0625,-3.875,9.55,1.49,1.6,moving,11
10.65,29666.188325927,27,3,3,0,3,2.65,0.34,-1.27,-6.95,-1.15,-2.5,156.125,-198.1875,15.0625,0.73919677734375,-0.01068115234375,-0.66119384765625,-0.12786865234375,-39.375,4.0625,-3.875,9.61,1.5,1.23,moving,11
10.66,29666.188325927,27,3,3,0,3,9.11,0.26,-6.24,-0.55,-1.22,-6.86,192.8125,-333.125,27.9375,0.72003173828125,-0.0035400390625,-0.68438720703125,-0.11456298828125,-39.375,5.1875,-5.0625,9.67,1.48,0.61,moving,11
10.67,29666.201448851,27,3,3,0,3,18.74,0.48,-11.71,9.05,-0.91,-11.2,225.25,-634.6875,52.875,0.6815185546875,0.0010986328125,-0.72528076171875,-0.097412109375,-39.375,5.1875,-5.0625,9.69,1.4,-0.5,moving,11
10.68,29666.201448851,27,3,3,0,3,35.85,0.61,-19.16,26.44,-0.53,-16.66,346.625,-1148.375,97.0,0.6063232421875,0.00579833984375,-0.79217529296875,-0.0694580078125,-39.375,5.1875,-5.0625,9.41,1.14,-2.5,moving,11
10.69,29666.232062051,27,3,3,0,3,39.11,6.65,-19.14,30.64,6.0,-14.24,700.9375,-1464.8125,32.125,0.49993896484375,0.03143310546875,-0.865234375,-0.01983642578125,-39.375,5.1875,-5.0625,8.47,0.64,-4.89,moving,11
10.7,29666.232062051,27,3,3,0,3,39.11,-2.43,-31.78,31.44,-2.75,-25.67,666.4375,-820.875,-221.3125,0.433837890625,0.075439453125,-0.89764404296875,0.01849365234375,-39.375,5.1875,-5.0625,7.66,0.31,-6.1,moving,11
10.71,29666.261326211,27,3,3,0,3,39.04,10.36,-38.76,31.3,9.9,-32.76,64.4375,81.875,-153.0625,0.43994140625,0.0897216796875,-0.89337158203125,0.01824951171875,-39.6875,6.0,6.0625,7.74,0.45,-6.0,moving,11
10.72,29666.261326211,27,3,3,0,3,29.59,12.21,-21.74,21.39,11.56,-16.4,-103.875,471.8125,-67.5,0.4771728515625,0.09014892578125,-0.87408447265625,0.01129150390625,-39.6875,6.0,6.0625,8.2,0.65,-5.33,moving,11
10.72,29666.26749182,27,3,3,0,3,29.59,12.21,-21.74,21.39,11.56,-16.4,-103.875,471.8125,-67.5,0.4771728515625,0.09014892578125,-0.87408447265625,0.01129150390625,-39.6875,6.0,6.0625,8.2,0.65,-5.33,moving,11
10.73,29666.26749182,27,3,3,0,3,12.33,5.45,-0.62,3.55,4.51,3.65,-218.0625,696.875,-71.8125,0.53094482421875,0.085693359375,-0.843017578125,-0.00286865234375,-39.6875,6.0,6.0625,8.77,0.93,-4.27,moving,11
10.74,29666.275960692,27,3,3,0,3,9.18,1.96,0.52,-0.1,0.72,3.42,-309.0625,839.125,-65.1875,0.5931396484375,0.076171875,-0.80120849609375,-0.02227783203125,-39.6875,6.0,6.0625,9.28,1.23,-2.89,moving,11
10.75,29666.275960692,27,3,3,0,3,5.05,0.35,1.31,-4.53,-1.04,2.77,-301.5,829.4375,-29.6875,0.65106201171875,0.0640869140625,-0.75531005859375,-0.03924560546875,-39.6875,6.0,6.0625,9.59,1.39,-1.46,moving,11
10.76,29666.290872842,27,3,3,0,3,0.97,0.16,2.8,-8.72,-1.28,2.94,-262.375,746.625,-7.75,0.70001220703125,0.0521240234375,-0.71026611328125,-0.05267333984375,-34.5625,10.375,19.0625,9.69,1.44,-0.14,moving,11
10.77,29666.290872842,27,3,3,0,3,-1.61,1.03,-0.41,-11.26,-0.39,-1.33,-226.0625,597.25,3.75,0.73687744140625,0.040771484375,-0.67181396484375,-0.06365966796875,-34.5625,10.375,19.0625,9.65,1.42,0.92,moving,11
10.78,29666.306246133,27,3,3,0,3,-0.45,0.42,-1.46,-10.03,-0.96,-3.0,-211.3125,334.9375,0.125,0.75677490234375,0.029052734375,-0.64874267578125,-0.0748291015625,-34.5625,10.375,19.0625,9.58,1.38,1.53,moving,11
10.79,29666.306246133,27,3,3,0,3,1.35,0.28,-2.01,-8.21,-1.05,-3.72,-192.75,77.4375,-6.25,0.761474609375,0.0172119140625,-0.64227294921875,-0.0859375,-34.5625,10.375,19.0625,9.56,1.33,1.71,moving,11
10.8,29666.336433471,27,3,3,0,3,2.25,0.35,-2.13,-7.33,-0.95,-3.72,-127.3125,-86.0625,-4.8125,0.7567138671875,0.00836181640625,-0.64697265625,-0.093505859375,-34.5625,10.375,19.0625,9.58,1.31,1.59,moving,11
10.81,29666.336433471,27,3,3,0,2,2.17,0.18,-2.81,-7.45,-1.12,-4.11,-40.375,-180.4375,-6.3125,0.746337890625,0.00457763671875,-0.65850830078125,-0.0963134765625,-40.0625,6.25,-5.0625,9.63,1.31,1.3,moving,11
10.82,29666.350904214,27,3,3,0,2,2.54,-0.13,-4.29,-7.12,-1.47,-5.15,22.0,-260.6875,-12.0625,0.7310791015625,0.0045166015625,-0.675537109375,-0.095947265625,-40.0625,6.25,-5.0625,9.67,1.33,0.85,moving,11
10.83,29666.350904214,27,3,3,0,2,1.7,0.78,-3.11,-8.0,-0.55,-3.35,40.25,-358.1875,-3.875,0.70953369140625,0.00433349609375,-0.6983642578125,-0.09393310546875,-40.0625,6.25,-5.0625,9.71,1.34,0.24,moving,11
10.84,29666.36598653,27,3,3,0,2,-1.25,1.27,-0.51,-10.95,-0.07,-0.03,7.0625,-419.625,-0.25,0.6834716796875,0.0013427734375,-0.72393798828125,-0.09356689453125,-40.0625,6.25,-5.0625,9.7,1.34,-0.47,moving,11
10.85,29666.36598653,27,3,3,0,2,-1.3,0.65,-0.13,-10.95,-0.71,0.9,-26.25,-342.125,-15.5,0.661376953125,-0.00201416015625,-0.74383544921875,-0.09619140625,-40.0625,6.25,-5.0625,9.65,1.37,-1.04,moving,11
10.86,29666.397523152,27,3,3,0,2,-1.08,-0.32,-0.21,-10.69,-1.75,1.15,-46.375,-200.1875,-21.9375,0.6480712890625,-0.00494384765625,-0.7548828125,-0.10040283203125,-39.375,7.0625,-2.0,9.6,1.42,-1.37,moving,11
10.87,29666.397523152,27,3,3,0,2,-1.03,-1.29,-0.4,-10.61,-2.77,1.03,-70.5625,-52.5625,-23.0,0.64434814453125,-0.0078125,-0.75726318359375,-0.1063232421875,-39.375,7.0625,-2.0,9.58,1.48,-1.44,moving,11
10.88,29666.412489948,27,3,3,0,2,-1.54,-1.69,-1.1,-11.14,-3.23,0.18,-101.0,77.5625,-22.75,0.64910888671875,-0.01129150390625,-0.751953125,-0.1143798828125,-39.375,7.0625,-2.0,9.59,1.54,-1.28,moving,11
10.89,29666.412489948,27,3,3,0,2,-1.55,-1.4,-1.12,-11.18,-3.01,-0.16,-121.125,173.375,-23.375,0.65997314453125,-0.014892578125,-0.7408447265625,-0.123779296875,-39.375,7.0625,-2.0,9.62,1.6,-0.96,moving,11
10.9,29666.426423786,27,3,3,0,2,-1.72,-1.22,-1.0,-11.37,-2.88,-0.48,-121.5,242.8125,-24.25,0.67498779296875,-0.01763916015625,-0.7254638671875,-0.13330078125,-39.375,7.0625,-2.0,9.65,1.66,-0.52,moving,11
10.91,29666.426423786,27,3,3,0,2,-1.89,-1.22,-1.25,-11.55,-2.93,-1.25,-111.0,292.5,-24.8125,0.6927490234375,-0.01922607421875,-0.70672607421875,-0.1422119140625,-39.0,6.25,7.1875,9.65,1.71,0.0,moving,11
10.92,29666.456115152,27,3,3,0,2,-1.59,-0.88,-2.14,-11.22,-2.62,-2.69,-99.8125,309.125,-20.125,0.71112060546875,-0.0201416015625,-0.68658447265625,-0.1500244140625,-39.0,6.25,7.1875,9.63,1.73,0.55,moving,11
10.93,29666.456115152,27,3,3,0,2,-1.19,-0.32,-2.18,-10.78,-2.06,-3.24,-82.625,284.6875,-8.8125,0.72760009765625,-0.02099609375,-0.667724609375,-0.156005859375,-39.0,6.25,7.1875,9.59,1.74,1.05,moving,11
10.94,29666.472933552,27,3,3,0,2,-0.81,0.15,-1.68,-10.35,-1.57,-3.13,-57.8125,229.625,1.75,0.74072265625,-0.0216064453125,-0.6522216796875,-0.15960693359375,-39.0,6.25,7.1875,9.54,1.72,1.45,moving,11
10.95,29666.472933552,27,3,3,0,2,0.39,0.42,-0.85,-9.1,-1.27,-2.58,-31.4375,162.75,11.875,0.74993896484375,-0.02203369140625,-0.6412353515625,-0.16094970703125,-39.0,6.25,7.1875,9.5,1.69,1.73,moving,11
10.96,29666.488674722,27,3,3,0,2,2.03,0.25,-1.27,-7.44,-1.4,-3.15,1.75,88.0,25.4375,0.75518798828125,-0.02215576171875,-0.63543701171875,-0.15936279296875,-40.0625,5.1875,-0.5,9.48,1.65,1.87,moving,11
10.97,29666.488674722,27,3,3,0,2,4.65,0.38,-2.63,-4.84,-1.2,-4.44,52.125,-25.875,47.5625,0.75445556640625,-0.02166748046875,-0.6378173828125,-0.15325927734375,-40.0625,5.1875,-0.5,9.5,1.59,1.81,moving,11
10.97,29666.501296386,27,3,3,0,2,4.65,0.38,-2.63,-4.84,-1.2,-4.44,52.125,-25.875,47.5625,0.75445556640625,-0.02166748046875,-0.6378173828125,-0.15325927734375,-40.0625,5.1875,-0.5,9.5,1.59,1.81,moving,11
10.98,29666.501296386,27,3,3,0,2,9.09,0.76,-5.28,-0.5,-0.73,-6.62,132.75,-265.1875,80.375,0.74072265625,-0.02093505859375,-0.65673828125,-0.1400146484375,-40.0625,5.1875,-0.5,9.59,1.49,1.33,moving,11
10.99,29666.515881062,27,3,3,0,2,35.17,3.47,-19.17,25.45,2.15,-19.15,287.3125,-758.8125,130.5625,0.69757080078125,-0.01910400390625,-0.70721435546875,-0.11346435546875,-40.0625,5.1875,-0.5,9.71,1.31,-0.01,moving,11
11.0,29666.515881062,27,3,3,0,2,39.11,7.31,-22.92,29.74,6.4,-20.17,578.25,-1582.9375,163.0,0.595947265625,-0.009521484375,-0.80035400390625,-0.06451416015625,-40.0625,5.1875,-0.5,9.36,0.9,-2.75,moving,11
11.01,29666.547034097,27,3,3,0,2,39.03,3.87,-25.41,31.07,3.51,-19.7,807.625,-1897.1875,-34.75,0.45660400390625,0.0238037109375,-0.88934326171875,-0.00823974609375,-40.0625,4.5,-4.6875,7.96,0.35,-5.71,moving,11
11.02,29666.547034097,27,3,3,0,2,39.11,-6.11,-26.76,31.99,-6.51,-20.02,332.25,-755.1875,-309.8125,0.3958740234375,0.06036376953125,-0.91632080078125,0.00360107421875,-40.0625,4.5,-4.6875,7.11,0.4,-6.73,moving,11
11.03,29666.561033121,27,3,3,0,2,32.76,14.37,-20.44,25.0,13.59,-14.49,-78.125,598.25,-225.8125,0.443359375,0.075439453125,-0.89312744140625,-0.00726318359375,-40.0625,4.5,-4.6875,7.75,0.78,-5.94,moving,11
11.04,29666.561033121,27,3,3,0,2,17.15,10.13,-5.85,8.54,9.0,-1.3,-191.375,958.3125,-118.5,0.51727294921875,0.07757568359375,-0.85205078125,-0.02032470703125,-40.0625,4.5,-4.6875,8.61,1.12,-4.55,moving,11
11.05,29666.575667398,27,3,3,0,2,9.6,7.56,-2.52,0.32,6.21,0.35,-293.3125,1032.4375,-21.875,0.59326171875,0.0675048828125,-0.80133056640625,-0.0360107421875,-40.0625,4.5,-4.6875,9.27,1.35,-2.87,moving,11
11.06,29666.575667398,27,3,3,0,2,1.37,2.18,7.27,-8.24,0.71,8.46,-334.125,977.9375,-0.75,0.660888671875,0.05316162109375,-0.7467041015625,-0.05340576171875,-28.0,11.0625,25.6875,9.62,1.47,-1.18,moving,11
11.07,29666.605861164,27,3,3,0,2,-0.49,-1.36,5.78,-10.16,-2.92,5.4,-287.4375,884.3125,-38.0625,0.71722412109375,0.04302978515625,-0.6920166015625,-0.07000732421875,-28.0,11.0625,25.6875,9.67,1.55,0.37,moving,11
11.08,29666.605861164,27,3,3,0,2,0.46,-2.17,0.86,-9.09,-3.79,-0.56,-247.9375,590.5625,-63.25,0.752197265625,0.034912109375,-0.65234375,-0.08660888671875,-28.0,11.0625,25.6875,9.56,1.62,1.43,moving,11
11.09,29666.620487914,27,3,3,0,2,2.76,-1.84,-1.76,-6.72,-3.5,-3.61,-238.0,211.4375,-62.375,0.76409912109375,0.0244140625,-0.63623046875,-0.103515625,-28.0,11.0625,25.6875,9.48,1.65,1.85,moving,11
11.1,29666.620487914,27,3,3,0,2,3.46,0.67,-2.26,-6.02,-0.95,-4.1,-181.125,-43.375,-20.6875,0.76177978515625,0.01312255859375,-0.63739013671875,-0.11505126953125,-28.0,11.0625,25.6875,9.49,1.63,1.83,moving,11
11.11,29666.635203043,27,3,3,0,1,2.87,0.75,-2.36,-6.66,-0.86,-3.96,-67.125,-153.5625,-2.1875,0.753173828125,0.00726318359375,-0.64691162109375,-0.11907958984375,-39.375,6.25,-3.5,9.53,1.61,1.59,moving,11
11.12,29666.635203043,27,3,3,0,1,2.15,0.56,-2.89,-7.43,-1.06,-4.1,27.375,-221.25,-6.625,0.74041748046875,0.00714111328125,-0.66162109375,-0.11810302734375,-39.375,6.25,-3.5,9.59,1.63,1.21,moving,11
11.13,29666.666827147,27,3,3,0,1,0.45,1.38,-2.32,-9.18,-0.27,-2.99,44.3125,-321.25,-10.25,0.721435546875,0.00732421875,-0.6826171875,-0.11639404296875,-39.375,6.25,-3.5,9.64,1.66,0.66,moving,11
11.14,29666.666827147,27,3,3,0,1,-0.27,1.56,-1.78,-9.93,-0.11,-1.79,15.6875,-385.9375,-11.625,0.6978759765625,0.00506591796875,-0.70672607421875,-0.1163330078125,-39.375,6.25,-3.5,9.66,1.68,0.01,moving,11
11.15,29666.681024332,27,3,3,0,1,-1.07,1.56,-1.17,-10.72,-0.11,-0.57,-7.0625,-358.8125,-3.9375,0.67535400390625,0.00128173828125,-0.7281494140625,-0.11712646484375,-39.375,6.25,-3.5,9.64,1.68,-0.59,moving,11
11.16,29666.681024332,27,3,3,0,1,-1.62,1.09,-0.62,-11.23,-0.59,0.38,-17.625,-250.1875,0.0625,0.65924072265625,-0.0023193359375,-0.7425537109375,-0.1182861328125,-39.6875,5.5625,-2.25,9.6,1.69,-1.0,moving,11
11.17,29666.696921345,27,3,3,0,1,-2.3,-0.8,-0.24,-11.88,-2.51,0.94,-39.8125,-110.125,-5.875,0.6519775390625,-0.00537109375,-0.74847412109375,-0.12115478515625,-39.6875,5.5625,-2.25,9.58,1.71,-1.18,moving,11
11.18,29666.696921345,27,3,3,0,1,-2.54,-1.37,-0.37,-12.12,-3.12,0.75,-77.25,16.25,-12.875,0.65277099609375,-0.00872802734375,-0.74676513671875,-0.126953125,-39.6875,5.5625,-2.25,9.58,1.74,-1.13,moving,11
11.19,29666.728512003,27,3,3,0,1,-2.4,-1.54,-0.74,-12.0,-3.34,0.15,-112.125,124.1875,-16.3125,0.66046142578125,-0.01263427734375,-0.73846435546875,-0.13525390625,-39.6875,5.5625,-2.25,9.59,1.79,-0.89,moving,11
11.2,29666.728512003,27,3,3,0,1,-1.91,-1.53,-1.29,-11.53,-3.37,-0.78,-129.0625,206.125,-19.5625,0.6732177734375,-0.016357421875,-0.72491455078125,-0.1448974609375,-39.6875,5.5625,-2.25,9.61,1.84,-0.5,moving,11
11.21,29666.744717528,27,3,3,0,1,-1.17,-1.88,-2.14,-10.79,-3.77,-2.12,-122.8125,262.9375,-19.625,0.68914794921875,-0.01898193359375,-0.707763671875,-0.1541748046875,-39.375,5.1875,6.5,9.62,1.88,-0.02,moving,11
11.22,29666.744717528,27,3,3,0,1,-0.93,-1.78,-2.46,-10.53,-3.67,-2.97,-101.0625,295.5,-10.0625,0.706787109375,-0.02044677734375,-0.6884765625,-0.16143798828125,-39.375,5.1875,6.5,9.6,1.89,0.5,moving,11
11.23,29666.755544066,27,3,3,0,1,-0.6,-1.39,-2.75,-10.17,-3.28,-3.77,-68.3125,295.625,2.6875,0.72412109375,-0.0206298828125,-0.6690673828125,-0.16583251953125,-39.375,5.1875,6.5,9.57,1.88,1.01,moving,11
11.23,29666.755544066,27,3,3,0,1,-0.6,-1.39,-2.75,-10.17,-3.28,-3.77,-68.3125,295.625,2.6875,0.72412109375,-0.0206298828125,-0.6690673828125,-0.16583251953125,-39.375,5.1875,6.5,9.57,1.88,1.01,moving,11
11.24,29666.770469929,27,3,3,0,1,-0.31,-0.09,-2.66,-9.83,-1.94,-4.12,-33.375,261.1875,15.8125,0.73931884765625,-0.0198974609375,-0.6519775390625,-0.167236328125,-39.375,5.1875,6.5,9.51,1.84,1.46,moving,11
11.25,29666.770469929,27,3,3,0,1,0.27,0.28,-2.06,-9.19,-1.52,-3.85,-4.3125,199.875,23.875,0.7508544921875,-0.01861572265625,-0.638916015625,-0.166259765625,-39.375,5.1875,6.5,9.46,1.8,1.79,moving,11
11.26,29666.785715168,27,3,3,0,1,1.23,0.47,-1.33,-8.2,-1.29,-3.33,19.0625,130.3125,28.8125,0.75848388671875,-0.01708984375,-0.630615234375,-0.16351318359375,-39.6875,4.0625,-0.0625,9.43,1.76,2.0,moving,11
11.27,29666.785715168,27,3,3,0,1,2.26,0.43,-1.16,-7.16,-1.3,-3.24,39.1875,56.25,30.875,0.76202392578125,-0.015380859375,-0.62744140625,-0.15936279296875,-39.6875,4.0625,-0.0625,9.42,1.73,2.08,moving,11
11.28,29666.817506876,27,3,3,0,1,6.47,-0.54,-3.15,-2.98,-2.23,-5.12,62.625,-54.4375,37.375,0.75958251953125,-0.01397705078125,-0.63189697265625,-0.15338134765625,-39.6875,4.0625,-0.0625,9.45,1.69,1.97,moving,11
11.29,29666.817506876,27,3,3,0,1,10.74,-0.7,-5.33,1.18,-2.29,-6.83,119.0625,-257.875,80.625,0.74627685546875,-0.01397705078125,-0.65032958984375,-0.14111328125,-39.6875,4.0625,-0.0625,9.55,1.59,1.5,moving,11
11.3,29666.830455932,27,3,3,0,1,16.76,-0.3,-7.55,7.06,-1.65,-7.99,230.8125,-603.0625,169.25,0.71319580078125,-0.01593017578125,-0.69110107421875,-0.1160888671875,-39.6875,4.0625,-0.0625,9.7,1.34,0.43,moving,11
11.31,29666.830455932,27,3,3,0,2,26.15,3.42,-12.7,16.51,2.45,-11.18,417.5625,-1106.4375,202.6875,0.64556884765625,-0.0133056640625,-0.759765625,-0.0762939453125,-39.6875,6.0,-4.6875,9.63,0.96,-1.51,moving,11
11.32,29666.846724324,27,3,3,0,2,39.11,6.76,-30.67,30.27,6.27,-26.46,744.3125,-1609.375,64.8125,0.53375244140625,0.013427734375,-0.84527587890625,-0.02117919921875,-39.6875,6.0,-4.6875,8.84,0.49,-4.2,moving,11
11.33,29666.846724324,27,3,3,0,2,38.1,-3.65,-29.87,30.85,-3.81,-23.28,612.4375,-1672.4375,-173.875,0.4044189453125,0.051025390625,-0.91302490234375,0.01373291015625,-39.6875,6.0,-4.6875,7.25,0.15,-6.59,moving,11
11.34,29666.877026163,27,3,3,0,2,39.11,-0.3,-24.43,32.53,-0.75,-17.17,17.625,-550.5625,-263.0625,0.3602294921875,0.0731201171875,-0.92999267578125,0.00341796875,-39.6875,6.0,-4.6875,6.57,0.45,-7.26,moving,11
11.35,29666.877026163,27,3,3,0,2,30.11,11.91,-15.56,22.57,10.93,-9.37,-242.25,841.8125,-195.1875,0.4287109375,0.08087158203125,-0.899658203125,-0.01690673828125,-39.6875,6.0,-4.6875,7.53,0.97,-6.19,moving,11
11.36,29666.892746703,27,3,3,0,2,16.63,5.96,-5.29,8.14,4.49,-0.62,-236.25,1050.875,-185.5,0.51019287109375,0.0877685546875,-0.8548583984375,-0.0347900390625,-34.875,10.6875,21.375,8.49,1.46,-4.67,moving,11
11.37,29666.892746703,27,3,3,0,2,10.17,1.78,-6.09,1.05,0.0,-2.95,-230.5625,962.9375,-108.1875,0.5811767578125,0.088134765625,-0.8074951171875,-0.04925537109375,-34.875,10.6875,21.375,9.11,1.78,-3.13,moving,11
11.38,29666.90710441,27,3,3,0,2,6.72,1.32,-6.1,-2.71,-0.54,-4.17,-250.8125,695.125,15.5,0.63079833984375,0.0771484375,-0.76971435546875,-0.06060791015625,-34.875,10.6875,21.375,9.43,1.86,-1.93,moving,11
