timestamp,android_nano_timestamp,temperature,calib_mag,calib_accel,calib_gyro,calib_sys,acc_x,acc_y,acc_z,lacc_x,lacc_y,lacc_z,gyro_x,gyro_y,gyro_z,quat_w,quat_x,quat_y,quat_z,mag_x,mag_y,mag_z,gravity_x,gravity_y,gravity_z,label,person
4.23,615642.735751854,21,1,0,0,0,6.97,1.07,1.28,-2.76,0.27,0.47,8.0,24.4375,-3.25,0.2303466796875,0.6585693359375,-0.158203125,0.69873046875,-32.5,-2.0,-11.875,9.73,0.8,0.8,moving,1
4.24,615642.735751854,21,1,0,0,0,6.89,1.2,1.81,-2.84,0.4,0.97,-6.0625,21.3125,-0.125,0.23095703125,0.65716552734375,-0.15814208984375,0.6998291015625,-32.5,-2.0,-11.875,9.73,0.8,0.84,moving,1
4.25,615642.750213769,21,1,0,0,0,6.29,0.87,1.87,-3.43,0.06,0.99,-16.0,16.5625,0.9375,0.2320556640625,0.65582275390625,-0.1588134765625,0.70062255859375,-32.5,-2.0,-11.875,9.73,0.8,0.87,moving,1
4.26,615642.750213769,21,1,0,0,0,6.17,0.85,1.77,-3.55,0.05,0.87,-15.0625,14.875,-0.0625,0.233154296875,0.65460205078125,-0.159423828125,0.70123291015625,-32.5,-3.75,-13.75,9.73,0.8,0.9,moving,1
4.27,615642.764581566,21,1,0,0,0,6.66,0.92,1.44,-3.06,0.12,0.52,-13.4375,11.625,-1.4375,0.234130859375,0.65362548828125,-0.159912109375,0.70166015625,-32.5,-3.75,-13.75,9.72,0.8,0.92,moving,1
4.28,615642.764581566,21,1,0,0,0,6.66,0.92,1.44,-3.06,0.12,0.52,-13.4375,11.625,-1.4375,0.234130859375,0.65362548828125,-0.159912109375,0.70166015625,-32.5,-3.75,-13.75,9.72,0.8,0.92,moving,1
4.28,615642.779869978,21,1,0,0,0,9.64,0.7,-0.12,-0.08,-0.08,-1.04,-19.5,-3.8125,2.25,0.235107421875,0.6534423828125,-0.16131591796875,0.70123291015625,-32.5,-3.75,-13.75,9.73,0.79,0.92,moving,1
4.29,615642.779869978,21,1,0,0,0,11.62,0.34,-0.53,1.88,-0.42,-1.41,-29.625,-29.0625,9.875,0.23577880859375,0.6544189453125,-0.164306640625,0.69940185546875,-32.5,-3.75,-13.75,9.73,0.77,0.87,moving,1
4.3,615642.810422712,21,1,0,0,0,13.36,0.33,-0.61,3.61,-0.4,-1.41,-39.4375,-49.625,17.8125,0.2362060546875,0.6563720703125,-0.16876220703125,0.69635009765625,-32.5,-3.75,-13.75,9.74,0.73,0.79,moving,1
4.31,615642.810422712,21,1,0,0,0,14.59,0.85,-0.22,4.83,0.16,-0.93,-41.375,-54.8125,21.125,0.23651123046875,0.6585693359375,-0.173583984375,0.6929931640625,-31.375,-3.0625,-13.75,9.75,0.69,0.7,moving,1
4.32,615642.826404564,21,1,0,0,0,15.54,1.72,1.06,5.78,1.06,0.41,-34.125,-38.4375,17.75,0.23681640625,0.659912109375,-0.177490234375,0.69061279296875,-31.375,-3.0625,-13.75,9.76,0.66,0.64,moving,1
4.33,615642.826404564,21,1,0,0,0,15.85,1.81,0.53,6.09,1.17,-0.09,-24.125,-16.9375,10.5625,0.2373046875,0.66021728515625,-0.17987060546875,0.68951416015625,-31.375,-3.0625,-13.75,9.76,0.64,0.62,moving,1
4.34,615642.839994571,21,1,0,0,0,15.75,1.08,0.14,5.98,0.45,-0.44,-17.6875,-18.8125,4.5,0.23773193359375,0.66094970703125,-0.18157958984375,0.688232421875,-31.375,-3.0625,-13.75,9.76,0.63,0.59,moving,1
4.35,615642.839994571,21,1,0,0,0,13.61,0.39,0.5,3.84,-0.23,-0.06,-3.5625,-15.9375,0.1875,0.23773193359375,0.66180419921875,-0.18212890625,0.687255859375,-31.375,-3.0625,-13.75,9.77,0.63,0.56,moving,1
4.36,615642.8554656,21,1,0,0,0,12.39,0.65,0.67,2.62,0.0,0.07,12.75,17.625,-6.1875,0.23760986328125,0.6611328125,-0.1806640625,0.6883544921875,-31.75,-2.375,-13.0,9.76,0.64,0.59,moving,1
4.37,615642.8554656,21,1,0,0,0,11.36,1.08,1.11,1.6,0.42,0.45,27.4375,42.75,-10.3125,0.2373046875,0.6593017578125,-0.177490234375,0.6910400390625,-31.75,-2.375,-13.0,9.76,0.66,0.66,moving,1
4.38,615642.885135684,21,1,0,0,0,10.64,1.35,1.69,0.88,0.66,0.95,33.875,42.5,-11.1875,0.2366943359375,0.6575927734375,-0.1739501953125,0.6937255859375,-31.75,-2.375,-13.0,9.75,0.68,0.73,moving,1
4.39,615642.885135684,21,1,0,0,0,8.37,0.81,1.13,-1.36,0.1,0.32,28.125,46.375,-12.1875,0.236572265625,0.655517578125,-0.17059326171875,0.69659423828125,-31.75,-2.375,-13.0,9.74,0.71,0.8,moving,1
4.4,615642.900160058,21,1,0,0,0,7.31,0.46,0.73,-2.42,-0.26,-0.17,18.8125,57.8125,-11.3125,0.23699951171875,0.652587890625,-0.16754150390625,0.69989013671875,-31.75,-2.375,-13.0,9.73,0.73,0.9,moving,1
4.41,615642.900160058,21,1,0,0,0,6.31,0.44,0.3,-3.41,-0.3,-0.7,13.3125,61.375,-7.8125,0.23760986328125,0.64923095703125,-0.1650390625,0.70343017578125,-33.5625,-2.0,-13.0625,9.72,0.74,1.0,moving,1
4.42,615642.91483116,21,1,0,0,0,5.93,0.41,0.45,-3.78,-0.34,-0.63,13.9375,48.4375,-6.9375,0.23797607421875,0.6466064453125,-0.16278076171875,0.70623779296875,-33.5625,-2.0,-13.0625,9.71,0.76,1.08,moving,1
4.43,615642.91483116,21,1,0,0,0,5.66,0.26,0.69,-4.03,-0.51,-0.45,18.9375,38.5625,-9.0,0.23797607421875,0.644775390625,-0.1602783203125,0.70849609375,-33.5625,-2.0,-13.0625,9.7,0.78,1.14,moving,1
4.44,615642.962352603,21,1,0,0,0,5.57,0.4,0.8,-4.12,-0.39,-0.4,21.375,37.9375,-8.6875,0.23785400390625,0.64300537109375,-0.15771484375,0.71075439453125,-33.5625,-2.0,-13.0625,9.69,0.8,1.21,moving,1
4.45,615642.962352603,21,1,0,0,0,5.45,0.54,0.81,-4.22,-0.27,-0.46,12.8125,42.6875,-6.375,0.2381591796875,0.64068603515625,-0.1556396484375,0.713134765625,-33.5625,-2.0,-13.0625,9.68,0.81,1.28,moving,1
4.46,615642.967878157,21,1,0,0,0,5.62,0.62,1.18,-4.05,-0.19,-0.16,-2.0625,37.5,-2.3125,0.2388916015625,0.6383056640625,-0.15484619140625,0.7152099609375,-32.1875,-3.375,-14.6875,9.67,0.81,1.34,moving,1
4.47,615642.967878157,21,1,0,0,0,5.95,0.61,1.87,-3.72,-0.19,0.48,-15.625,21.0,2.75,0.2398681640625,0.63665771484375,-0.15557861328125,0.7161865234375,-32.1875,-3.375,-14.6875,9.67,0.81,1.38,moving,1
4.48,615642.990412743,21,1,0,0,0,6.26,0.64,2.3,-3.41,-0.15,0.91,-25.375,3.3125,6.3125,0.240966796875,0.63580322265625,-0.15740966796875,0.7161865234375,-32.1875,-3.375,-14.6875,9.67,0.79,1.39,moving,1
4.49,615642.990412743,21,1,0,0,0,6.78,0.64,2.28,-2.89,-0.12,0.9,-30.875,-8.125,7.625,0.2420654296875,0.63555908203125,-0.159912109375,0.7154541015625,-32.1875,-3.375,-14.6875,9.67,0.77,1.38,moving,1
4.5,615643.004067732,21,1,0,0,0,8.42,0.64,0.91,-1.26,-0.1,-0.43,-34.875,-19.6875,8.75,0.2431640625,0.63592529296875,-0.16302490234375,0.71405029296875,-32.1875,-3.375,-14.6875,9.68,0.75,1.35,moving,1
4.51,615643.004067732,21,1,0,0,0,9.98,0.4,0.21,0.28,-0.31,-1.08,-42.0,-37.5,11.9375,0.2442626953125,0.63720703125,-0.1671142578125,0.71160888671875,-31.75,-3.0625,-14.875,9.69,0.72,1.29,moving,1
4.52,615643.020421003,21,1,0,0,0,11.54,0.17,-0.18,1.83,-0.51,-1.38,-47.4375,-60.0,16.25,0.2449951171875,0.6396484375,-0.1722412109375,0.70794677734375,-31.75,-3.0625,-14.875,9.7,0.68,1.19,moving,1
4.53,615643.020421003,21,1,0,0,0,11.54,0.17,-0.18,1.83,-0.51,-1.38,-47.4375,-60.0,16.25,0.2449951171875,0.6396484375,-0.1722412109375,0.70794677734375,-31.75,-3.0625,-14.875,9.7,0.68,1.19,moving,1
4.54,615643.03563422,21,1,0,0,0,13.83,0.37,0.0,4.1,-0.26,-1.06,-42.9375,-75.6875,18.625,0.24505615234375,0.64312744140625,-0.177490234375,0.70343017578125,-31.75,-3.0625,-14.875,9.72,0.64,1.07,moving,1
4.54,615643.03563422,21,1,0,0,0,14.51,1.02,0.54,4.77,0.41,-0.42,-28.0,-69.25,15.5625,0.24462890625,0.64654541015625,-0.18157958984375,0.69940185546875,-31.75,-3.0625,-14.875,9.74,0.61,0.96,moving,1
4.55,615643.049754662,21,1,0,0,0,15.06,1.33,0.87,5.31,0.73,0.0,-14.3125,-49.75,9.0,0.24407958984375,0.64910888671875,-0.18402099609375,0.69659423828125,-31.75,-3.0625,-14.875,9.74,0.59,0.87,moving,1
4.57,615643.049754662,21,1,0,0,0,15.37,1.26,0.51,5.61,0.68,-0.3,-7.625,-38.4375,4.625,0.24365234375,0.65118408203125,-0.185546875,0.69439697265625,-32.1875,-2.375,-14.875,9.75,0.58,0.81,moving,1
4.58,615643.064779361,21,1,0,0,0,14.36,0.38,0.37,4.6,-0.19,-0.37,1.875,-32.8125,0.125,0.24298095703125,0.65325927734375,-0.1861572265625,0.6925048828125,-32.1875,-2.375,-14.875,9.75,0.58,0.75,moving,1
4.59,615643.064779361,21,1,0,0,0,13.42,0.59,1.01,3.66,0.0,0.26,17.5,-8.8125,-4.1875,0.24212646484375,0.6541748046875,-0.18505859375,0.69219970703125,-32.1875,-2.375,-14.875,9.76,0.59,0.74,moving,1
4.59,615643.097728743,21,1,0,0,0,12.37,1.26,1.39,2.61,0.64,0.6,27.0,28.5625,-9.875,0.24163818359375,0.6531982421875,-0.1822509765625,0.694091796875,-32.1875,-2.375,-14.875,9.75,0.61,0.78,moving,1
4.6,615643.097728743,21,1,0,0,0,9.8,1.2,1.42,0.06,0.56,0.54,19.0625,56.625,-13.9375,0.24224853515625,0.650390625,-0.1790771484375,0.697265625,-32.1875,-2.375,-14.875,9.74,0.64,0.88,moving,1
4.61,615643.110291283,21,1,0,0,0,8.31,0.8,0.94,-1.42,0.14,-0.03,8.75,63.0625,-14.3125,0.24365234375,0.64697265625,-0.1763916015625,0.70068359375,-33.0625,-1.25,-13.375,9.73,0.66,0.98,moving,1
4.62,615643.110291283,21,1,0,0,0,7.4,0.65,0.73,-2.31,-0.03,-0.35,5.875,60.875,-12.0625,0.2449951171875,0.6435546875,-0.174072265625,0.7039794921875,-33.0625,-1.25,-13.375,9.72,0.68,1.08,moving,1
4.63,615643.125746117,21,1,0,0,0,6.46,0.66,0.35,-3.24,-0.04,-0.82,8.5,57.8125,-9.625,0.2459716796875,0.64031982421875,-0.1717529296875,0.70709228515625,-33.0625,-1.25,-13.375,9.7,0.7,1.18,moving,1
4.64,615643.125746117,21,1,0,0,0,5.22,0.4,0.6,-4.46,-0.32,-0.67,16.25,53.4375,-8.625,0.24639892578125,0.63751220703125,-0.16912841796875,0.71014404296875,-33.0625,-1.25,-13.375,9.69,0.72,1.27,moving,1
4.65,615643.156007755,21,1,0,0,0,4.94,0.4,1.08,-4.74,-0.34,-0.27,19.875,50.3125,-9.625,0.24658203125,0.63494873046875,-0.166259765625,0.7130126953125,-33.0625,-1.25,-13.375,9.68,0.74,1.35,moving,1
4.66,615643.156007755,21,1,0,0,0,5.01,0.53,1.66,-4.65,-0.23,0.23,12.375,44.8125,-8.875,0.24713134765625,0.632568359375,-0.16400146484375,0.7154541015625,-32.0625,-2.375,-13.75,9.67,0.76,1.43,moving,1
4.67,615643.169844181,21,1,0,0,0,5.16,0.66,1.97,-4.49,-0.11,0.48,-2.4375,35.375,-5.625,0.24810791015625,0.63037109375,-0.1630859375,0.71728515625,-32.0625,-2.375,-13.75,9.66,0.77,1.49,moving,1
4.68,615643.169844181,21,1,0,0,0,5.81,0.57,2.17,-3.83,-0.19,0.65,-13.875,17.0,-1.8125,0.249267578125,0.6290283203125,-0.16351318359375,0.71795654296875,-32.0625,-2.375,-13.75,9.65,0.77,1.52,moving,1
4.69,615643.184612328,21,1,0,0,0,5.92,0.22,1.95,-3.73,-0.53,0.45,-20.4375,-10.375,1.75,0.2501220703125,0.62921142578125,-0.16510009765625,0.7171630859375,-32.0625,-2.375,-13.75,9.65,0.76,1.5,moving,1
4.7,615643.184612328,21,1,0,0,0,5.95,0.0,1.72,-3.71,-0.75,0.26,-24.625,-28.3125,3.5625,0.2508544921875,0.63037109375,-0.16748046875,0.71533203125,-32.0625,-2.375,-13.75,9.66,0.75,1.46,moving,1
4.71,615643.216959456,21,1,0,0,0,5.88,0.1,2.01,-3.78,-0.63,0.59,-27.375,-27.6875,2.875,0.25177001953125,0.6314697265625,-0.169921875,0.71343994140625,-31.25,-2.75,-16.375,9.67,0.74,1.41,moving,1
4.72,615643.216959456,21,1,0,0,0,6.17,0.28,2.11,-3.5,-0.44,0.72,-28.1875,-23.125,1.9375,0.25286865234375,0.63226318359375,-0.17230224609375,0.7117919921875,-31.25,-2.75,-16.375,9.68,0.72,1.38,moving,1
4.73,615643.230881046,21,1,0,0,0,6.94,0.29,1.67,-2.74,-0.42,0.33,-26.9375,-29.75,2.0625,0.2537841796875,0.63348388671875,-0.17474365234375,0.70977783203125,-31.25,-2.75,-16.375,9.68,0.72,1.33,moving,1
4.74,615643.230881046,21,1,0,0,0,8.35,0.12,0.6,-1.34,-0.58,-0.65,-23.25,-49.375,2.875,0.25408935546875,0.63592529296875,-0.17742919921875,0.706787109375,-31.25,-2.75,-16.375,9.69,0.7,1.25,moving,1
4.75,615643.261238101,21,1,0,0,0,12.72,-0.09,-0.72,3.01,-0.79,-1.85,-19.9375,-76.375,5.625,0.253662109375,0.64007568359375,-0.1806640625,0.70233154296875,-31.25,-2.75,-16.375,9.71,0.69,1.13,moving,1
4.76,615643.261238101,21,1,0,0,0,15.17,0.27,-0.52,5.43,-0.39,-1.49,-24.0625,-97.125,12.4375,0.25274658203125,0.64532470703125,-0.18499755859375,0.69677734375,-31.25,-2.375,-16.0625,9.73,0.67,0.96,moving,1
4.77,615643.275101708,21,1,0,0,0,17.08,0.59,0.49,7.33,-0.03,-0.31,-24.6875,-96.5,22.125,0.251220703125,0.6502685546875,-0.18988037109375,0.69140625,-31.25,-2.375,-16.0625,9.75,0.62,0.8,moving,1
4.78,615643.275101708,21,1,0,0,0,17.08,0.59,0.49,7.33,-0.03,-0.31,-24.6875,-96.5,22.125,0.251220703125,0.6502685546875,-0.18988037109375,0.69140625,-31.25,-2.375,-16.0625,9.75,0.62,0.8,moving,1
4.79,615643.280829898,21,1,0,0,0,17.67,1.61,0.53,7.91,1.02,-0.16,-8.5625,-61.375,21.375,0.2493896484375,0.65338134765625,-0.19293212890625,0.688232421875,-31.25,-2.375,-16.0625,9.76,0.59,0.7,moving,1
4.79,615643.280829898,21,1,0,0,0,17.97,1.72,-0.48,8.2,1.16,-1.15,-16.5,-24.6875,15.625,0.24896240234375,0.65423583984375,-0.19537353515625,0.6868896484375,-31.25,-2.375,-16.0625,9.76,0.56,0.66,moving,1
4.8,615643.304789168,21,1,0,0,0,17.36,1.28,-0.74,7.59,0.74,-1.37,-7.5,-23.6875,9.0,0.2484130859375,0.65533447265625,-0.19683837890625,0.68560791015625,-31.25,-2.375,-16.0625,9.77,0.54,0.62,moving,1
4.81,615643.304789168,21,1,0,0,0,16.42,0.91,0.36,6.65,0.36,-0.23,14.9375,-15.0,-1.375,0.2474365234375,0.6566162109375,-0.1961669921875,0.68499755859375,-33.0625,-1.6875,-13.0,9.77,0.55,0.59,moving,1
4.82,615643.319859928,21,1,0,0,0,13.45,1.52,1.19,3.68,0.95,0.55,16.9375,24.5,-7.75,0.247314453125,0.6556396484375,-0.1942138671875,0.6865234375,-33.0625,-1.6875,-13.0,9.76,0.56,0.63,moving,1
4.83,615643.319859928,21,1,0,0,0,12.09,1.45,1.57,2.32,0.87,0.85,9.0625,49.6875,-11.125,0.248291015625,0.65301513671875,-0.19195556640625,0.68927001953125,-33.0625,-1.6875,-13.0,9.76,0.58,0.71,moving,1
4.84,615643.351456933,21,1,0,0,0,10.75,1.24,1.66,1.0,0.61,0.85,15.3125,53.0,-19.25,0.24945068359375,0.6505126953125,-0.18878173828125,0.69207763671875,-33.0625,-1.6875,-13.0,9.75,0.62,0.8,moving,1
4.85,615643.351456933,21,1,0,0,0,7.72,0.75,1.27,-2.01,0.09,0.37,23.0625,56.625,-23.0625,0.25048828125,0.64794921875,-0.184814453125,0.6951904296875,-33.0625,-1.6875,-13.0,9.74,0.66,0.9,moving,1
4.86,615643.364466536,21,1,0,0,0,6.39,0.36,1.02,-3.33,-0.33,0.02,16.6875,63.75,-20.1875,0.25177001953125,0.644775390625,-0.1812744140625,0.6986083984375,-33.0625,-1.6875,-13.75,9.72,0.7,1.0,moving,1
4.87,615643.364466536,21,1,0,0,0,5.29,-0.05,0.79,-4.42,-0.78,-0.31,4.0625,62.0625,-14.5625,0.25341796875,0.64129638671875,-0.1788330078125,0.7017822265625,-33.0625,-1.6875,-13.75,9.71,0.72,1.11,moving,1
4.88,615643.380540999,21,1,0,0,0,4.59,-0.33,0.75,-5.11,-1.08,-0.44,-0.3125,50.75,-9.875,0.25482177734375,0.6383056640625,-0.17718505859375,0.70440673828125,-33.0625,-1.6875,-13.75,9.7,0.74,1.19,moving,1
4.89,615643.380540999,21,1,0,0,0,4.23,-0.22,1.43,-5.46,-0.97,0.17,3.25,36.8125,-9.3125,0.25579833984375,0.63629150390625,-0.17559814453125,0.706298828125,-33.0625,-1.6875,-13.75,9.69,0.75,1.26,moving,1
4.9,615643.411018009,21,1,0,0,0,4.29,-0.17,1.68,-5.39,-0.94,0.37,3.875,27.1875,-8.5,0.25653076171875,0.63482666015625,-0.17431640625,0.70770263671875,-33.0625,-1.6875,-13.75,9.68,0.77,1.3,moving,1
4.91,615643.411018009,21,1,0,0,0,4.34,-0.23,1.66,-5.33,-1.01,0.31,1.375,25.0625,-5.3125,0.25714111328125,0.63336181640625,-0.17333984375,0.708984375,-32.0625,-3.0625,-15.25,9.68,0.78,1.34,moving,1
4.92,615643.425694848,21,1,0,0,0,4.36,-0.32,1.44,-5.3,-1.11,0.04,4.25,29.8125,-3.8125,0.25762939453125,0.6317138671875,-0.17218017578125,0.71063232421875,-32.0625,-3.0625,-15.25,9.67,0.79,1.39,moving,1
4.93,615643.425694848,21,1,0,0,0,4.18,-0.08,1.31,-5.47,-0.88,-0.13,12.4375,29.5625,-2.375,0.25750732421875,0.63018798828125,-0.170654296875,0.71234130859375,-32.0625,-3.0625,-15.25,9.66,0.79,1.44,moving,1
4.94,615643.440377831,21,1,0,0,0,4.24,0.27,1.78,-5.41,-0.52,0.3,15.0,17.8125,0.0,0.2569580078125,0.62939453125,-0.1693115234375,0.71356201171875,-32.0625,-3.0625,-15.25,9.66,0.8,1.47,moving,1
4.95,615643.440377831,21,1,0,0,0,4.51,0.54,2.4,-5.14,-0.25,0.93,5.5,1.0625,2.9375,0.2564697265625,0.62939453125,-0.1690673828125,0.71380615234375,-32.0625,-3.0625,-15.25,9.66,0.79,1.47,moving,1
4.96,615643.470831852,21,1,0,0,0,5.65,0.58,2.31,-4.0,-0.19,0.84,-8.5625,-7.9375,6.4375,0.25640869140625,0.62957763671875,-0.170166015625,0.71337890625,-31.0,-2.375,-14.875,9.66,0.78,1.46,moving,1
4.97,615643.470831852,21,1,0,0,0,6.74,0.55,1.34,-2.92,-0.21,-0.1,-17.9375,-12.125,9.625,0.25665283203125,0.62982177734375,-0.17205810546875,0.712646484375,-31.0,-2.375,-14.875,9.66,0.76,1.44,moving,1
4.98,615643.485649356,21,1,0,0,0,8.51,0.45,0.33,-1.16,-0.27,-1.07,-21.8125,-26.0625,12.3125,0.25665283203125,0.6307373046875,-0.1746826171875,0.711181640625,-31.0,-2.375,-14.875,9.67,0.73,1.4,moving,1
4.99,615643.485649356,21,1,0,0,0,10.97,0.33,-0.33,1.27,-0.36,-1.64,-25.375,-58.25,17.3125,0.256103515625,0.63348388671875,-0.17852783203125,0.70794677734375,-31.0,-2.375,-14.875,9.69,0.7,1.31,moving,1
5.0,615643.501242903,21,1,0,0,0,17.52,0.18,0.57,7.8,-0.46,-0.57,-37.0,-99.125,25.6875,0.2550048828125,0.63836669921875,-0.1844482421875,0.70245361328125,-31.0,-2.375,-14.875,9.71,0.65,1.14,moving,1
5.01,615643.501242903,21,1,0,0,0,18.19,0.89,-0.11,8.44,0.31,-1.05,-53.3125,-122.9375,38.875,0.25360107421875,0.64404296875,-0.19256591796875,0.695556640625,-32.375,-2.0,-15.6875,9.74,0.57,0.94,moving,1
5.02,615643.530043196,21,1,0,0,0,18.12,1.66,1.11,8.36,1.15,0.29,-16.25,-75.0625,36.5625,0.25103759765625,0.6475830078125,-0.19732666015625,0.69183349609375,-32.375,-2.0,-15.6875,9.75,0.51,0.81,moving,1
5.03,615643.530043196,21,1,0,0,0,18.38,1.3,0.03,8.62,0.81,-0.75,-7.5,-16.5,11.5625,0.25042724609375,0.64825439453125,-0.19879150390625,0.6910400390625,-32.375,-2.0,-15.6875,9.76,0.49,0.78,moving,1
5.04,615643.535685774,21,1,0,0,0,18.38,1.3,0.03,8.62,0.81,-0.75,-7.5,-16.5,11.5625,0.25042724609375,0.64825439453125,-0.19879150390625,0.6910400390625,-32.375,-2.0,-15.6875,9.76,0.49,0.78,moving,1
5.05,615643.535685774,21,1,0,0,0,16.68,0.67,-0.39,6.91,0.17,-1.12,11.5625,-31.0,-3.5625,0.24945068359375,0.65045166015625,-0.19854736328125,0.68939208984375,-32.375,-2.0,-15.6875,9.76,0.49,0.73,moving,1
5.05,615643.560732568,21,1,0,0,0,15.46,0.45,0.74,5.69,-0.06,0.06,48.4375,-33.8125,-8.25,0.24664306640625,0.65362548828125,-0.1959228515625,0.68817138671875,-32.375,-2.0,-15.6875,9.76,0.51,0.67,moving,1
5.07,615643.560732568,21,1,0,0,0,14.34,1.24,0.47,4.57,0.7,-0.22,58.9375,15.0,-12.9375,0.2442626953125,0.65423583984375,-0.1912841796875,0.689697265625,-33.5,-1.25,-13.75,9.76,0.54,0.69,moving,1
5.08,615643.575713972,21,1,0,0,0,11.69,1.56,2.21,1.93,0.99,1.43,26.5625,50.6875,-12.0,0.24432373046875,0.65191650390625,-0.18792724609375,0.69281005859375,-33.5,-1.25,-13.75,9.75,0.57,0.77,moving,1
5.09,615643.575713972,21,1,0,0,0,10.18,0.86,2.03,0.43,0.26,1.15,0.75,56.4375,-12.625,0.2459716796875,0.64874267578125,-0.18597412109375,0.69573974609375,-33.5,-1.25,-13.75,9.74,0.59,0.87,moving,1
5.09,615643.59038894,21,1,0,0,0,8.81,0.61,1.51,-0.92,0.0,0.53,4.1875,64.5,-14.3125,0.2476806640625,0.6451416015625,-0.1834716796875,0.69915771484375,-33.5,-1.25,-13.75,9.73,0.61,0.98,moving,1
5.1,615643.59038894,21,1,0,0,0,7.38,0.6,0.89,-2.33,-0.03,-0.2,9.75,67.25,-12.125,0.2489013671875,0.64141845703125,-0.1807861328125,0.70281982421875,-33.5,-1.25,-13.75,9.72,0.63,1.09,moving,1
5.11,615643.621310978,21,1,0,0,0,5.56,0.28,0.77,-4.14,-0.37,-0.42,7.8125,57.5625,-7.625,0.2498779296875,0.63818359375,-0.1785888671875,0.70599365234375,-31.6875,-1.6875,-13.75,9.71,0.65,1.19,moving,1
5.12,615643.621310978,21,1,0,0,0,5.1,0.26,1.2,-4.59,-0.39,-0.05,5.25,43.75,-3.875,0.25048828125,0.63568115234375,-0.1771240234375,0.7083740234375,-31.6875,-1.6875,-13.75,9.7,0.66,1.26,moving,1
5.13,615643.636225528,21,1,0,0,0,4.84,0.36,1.58,-4.84,-0.3,0.26,4.125,34.8125,-4.3125,0.25103759765625,0.6336669921875,-0.17584228515625,0.7103271484375,-31.6875,-1.6875,-13.75,9.69,0.67,1.32,moving,1
5.14,615643.636225528,21,1,0,0,0,4.63,0.37,1.56,-5.04,-0.3,0.17,2.875,33.875,-5.1875,0.251708984375,0.6317138671875,-0.17462158203125,0.71209716796875,-31.6875,-1.6875,-13.75,9.68,0.67,1.38,moving,1
5.15,615643.649445255,21,1,0,0,0,4.46,0.2,1.22,-5.21,-0.49,-0.21,6.5625,32.5,-5.75,0.252197265625,0.6298828125,-0.1732177734375,0.7138671875,-31.6875,-1.6875,-13.75,9.67,0.69,1.43,moving,1
5.16,615643.649445255,21,1,0,0,0,4.56,0.18,1.09,-5.1,-0.51,-0.38,17.75,26.5,-6.0625,0.25201416015625,0.62872314453125,-0.171142578125,0.7154541015625,-32.375,-3.0625,-14.875,9.66,0.7,1.47,moving,1
5.17,615643.679489119,21,1,0,0,0,4.94,0.29,1.14,-4.71,-0.43,-0.34,26.5625,11.25,-6.25,0.25115966796875,0.62872314453125,-0.1689453125,0.71630859375,-32.375,-3.0625,-14.875,9.66,0.72,1.49,moving,1
5.18,615643.679489119,21,1,0,0,0,6.31,0.55,2.06,-3.35,-0.17,0.59,20.625,-11.3125,-3.5,0.25006103515625,0.6298828125,-0.16766357421875,0.7159423828125,-32.375,-3.0625,-14.875,9.66,0.73,1.47,moving,1
5.19,615643.694945784,21,1,0,0,0,6.91,0.6,2.19,-2.75,-0.12,0.76,3.625,-25.125,2.0,0.24932861328125,0.63153076171875,-0.1680908203125,0.71466064453125,-32.375,-3.0625,-14.875,9.67,0.73,1.42,moving,1
5.2,615643.694945784,21,1,0,0,0,7.54,0.7,1.85,-2.13,-0.01,0.46,-7.875,-24.125,5.8125,0.24908447265625,0.63275146484375,-0.16943359375,0.71331787109375,-32.375,-3.0625,-14.875,9.68,0.72,1.39,moving,1
5.21,615643.710653222,21,1,0,0,0,9.41,0.5,0.99,-0.26,-0.2,-0.34,-10.1875,-27.75,6.9375,0.248779296875,0.6341552734375,-0.17108154296875,0.7117919921875,-31.25,-3.0,-15.6875,9.68,0.7,1.34,moving,1
5.22,615643.710653222,21,1,0,0,0,10.89,0.34,0.74,1.19,-0.33,-0.51,-12.625,-50.375,9.5625,0.2481689453125,0.6368408203125,-0.1734619140625,0.70904541015625,-31.25,-3.0,-15.6875,9.7,0.68,1.26,moving,1
5.23,615643.740893619,21,1,0,0,0,12.66,0.29,0.59,2.94,-0.36,-0.52,-19.3125,-79.875,14.1875,0.24713134765625,0.64117431640625,-0.17718505859375,0.70458984375,-31.25,-3.0,-15.6875,9.71,0.65,1.12,moving,1
5.24,615643.740893619,21,1,0,0,0,14.24,0.27,0.05,4.5,-0.34,-0.91,-30.125,-97.5625,20.0,0.24603271484375,0.64617919921875,-0.1822509765625,0.6990966796875,-31.25,-3.0,-15.6875,9.73,0.61,0.96,moving,1
5.25,615643.757270328,21,1,0,0,0,16.66,0.32,0.5,6.9,-0.25,-0.3,-35.0,-92.5625,24.125,0.24505615234375,0.650634765625,-0.187744140625,0.69378662109375,-31.25,-3.0,-15.6875,9.75,0.57,0.81,moving,1
5.26,615643.757270328,21,1,0,0,0,16.94,0.86,0.34,7.17,0.32,-0.37,-16.0625,-57.75,19.5625,0.24383544921875,0.6534423828125,-0.1910400390625,0.690673828125,-32.75,-2.6875,-14.875,9.76,0.53,0.71,moving,1
5.27,615643.769777734,21,1,0,0,0,16.91,1.37,0.28,7.14,0.85,-0.37,18.0,-32.3125,7.5625,0.2418212890625,0.6556396484375,-0.19110107421875,0.68927001953125,-32.75,-2.6875,-14.875,9.77,0.52,0.65,moving,1
5.28,615643.769777734,21,1,0,0,0,15.35,1.98,-0.23,5.57,1.45,-0.86,37.9375,-20.125,-1.5,0.2393798828125,0.65771484375,-0.18914794921875,0.688720703125,-32.75,-2.6875,-14.875,9.77,0.53,0.62,moving,1
5.29,615643.785398583,21,1,0,0,0,14.02,1.68,0.08,4.24,1.13,-0.53,46.625,1.375,-8.0,0.23724365234375,0.65869140625,-0.18585205078125,0.68939208984375,-32.75,-2.6875,-14.875,9.77,0.55,0.61,moving,1
5.3,615643.785398583,21,1,0,0,0,14.02,1.68,0.08,4.24,1.13,-0.53,46.625,1.375,-8.0,0.23724365234375,0.65869140625,-0.18585205078125,0.68939208984375,-32.75,-2.6875,-14.875,9.77,0.55,0.61,moving,1
5.31,615643.800101098,21,1,0,0,0,12.56,1.69,0.27,2.79,1.11,-0.39,26.875,28.0625,-9.8125,0.23675537109375,0.65771484375,-0.18310546875,0.69122314453125,-32.75,-2.6875,-14.875,9.76,0.57,0.66,moving,1
5.31,615643.800101098,21,1,0,0,0,11.34,1.69,1.2,1.58,1.11,0.46,5.9375,44.0625,-8.875,0.23760986328125,0.65533447265625,-0.18133544921875,0.69366455078125,-33.375,-2.25,-13.0,9.76,0.58,0.73,moving,1
5.32,615643.830975447,21,1,0,0,0,8.56,1.32,1.66,-1.19,0.7,0.84,8.6875,47.8125,-13.875,0.23870849609375,0.65283203125,-0.17901611328125,0.69622802734375,-33.375,-2.25,-13.0,9.75,0.61,0.81,moving,1
5.34,615643.830975447,21,1,0,0,0,7.06,1.08,1.44,-2.68,0.44,0.53,14.5,55.375,-16.0,0.23974609375,0.6500244140625,-0.176025390625,0.69927978515625,-33.375,-2.25,-13.0,9.74,0.64,0.91,moving,1
5.34,615643.846604231,21,1,0,0,0,5.75,0.84,1.17,-3.98,0.17,0.16,11.1875,61.0625,-14.8125,0.24090576171875,0.64678955078125,-0.1732177734375,0.70257568359375,-33.375,-2.25,-13.0,9.73,0.66,1.01,moving,1
5.35,615643.846604231,21,1,0,0,0,4.63,0.54,1.04,-5.07,-0.15,-0.06,5.4375,56.0625,-13.125,0.24224853515625,0.64361572265625,-0.17095947265625,0.70556640625,-33.375,-2.25,-13.0,9.71,0.69,1.1,moving,1
5.36,615643.859774764,21,1,0,0,0,3.42,0.18,0.79,-6.28,-0.52,-0.39,4.75,44.4375,-11.75,0.243408203125,0.64117431640625,-0.1690673828125,0.7078857421875,-32.25,-2.25,-15.25,9.7,0.71,1.18,moving,1
5.37,615643.859774764,21,1,0,0,0,3.21,0.03,0.75,-6.48,-0.7,-0.47,9.125,31.625,-11.375,0.24407958984375,0.63958740234375,-0.16717529296875,0.70953369140625,-32.25,-2.25,-15.25,9.7,0.73,1.23,moving,1
5.38,615643.89442434,21,1,0,0,0,3.28,-0.08,0.63,-6.4,-0.83,-0.63,13.5625,21.6875,-12.0,0.244384765625,0.638671875,-0.16522216796875,0.710693359375,-32.25,-2.25,-15.25,9.69,0.75,1.27,moving,1
5.39,615643.89442434,21,1,0,0,0,3.86,-0.33,0.75,-5.82,-1.11,-0.54,16.5,15.25,-11.625,0.244384765625,0.63824462890625,-0.1632080078125,0.71148681640625,-32.25,-2.25,-15.25,9.68,0.78,1.29,moving,1
5.4,615643.906204573,21,1,0,0,0,4.3,-0.36,0.95,-5.38,-1.16,-0.35,16.375,10.75,-10.375,0.2442626953125,0.6380615234375,-0.161376953125,0.712158203125,-32.25,-2.25,-15.25,9.68,0.8,1.31,moving,1
5.41,615643.906204573,21,1,0,0,0,4.7,-0.38,1.06,-4.98,-1.2,-0.25,10.4375,5.5625,-7.75,0.2442626953125,0.6380615234375,-0.16021728515625,0.71240234375,-31.1875,-3.6875,-14.5625,9.68,0.81,1.31,moving,1
5.42,615643.920086979,21,1,0,0,0,5.26,-0.38,1.16,-4.42,-1.21,-0.14,1.5625,-0.625,-3.75,0.244384765625,0.63818359375,-0.159912109375,0.71234130859375,-31.1875,-3.6875,-14.5625,9.68,0.82,1.31,moving,1
5.43,615643.920086979,21,1,0,0,0,6.44,-0.1,1.12,-3.24,-0.92,-0.17,-4.6875,-11.3125,1.0625,0.24444580078125,0.6387939453125,-0.16046142578125,0.711669921875,-31.1875,-3.6875,-14.5625,9.68,0.82,1.29,moving,1
5.44,615643.95025865,21,1,0,0,0,7.45,0.13,0.97,-2.24,-0.67,-0.28,-10.3125,-21.0,6.875,0.2442626953125,0.6397705078125,-0.1619873046875,0.71051025390625,-31.1875,-3.6875,-14.5625,9.69,0.8,1.26,moving,1
5.45,615643.95025865,21,1,0,0,0,8.59,0.3,0.76,-1.1,-0.47,-0.44,-18.0,-33.625,13.25,0.24395751953125,0.64129638671875,-0.16455078125,0.7086181640625,-31.1875,-3.6875,-14.5625,9.7,0.78,1.2,moving,1
5.46,615643.964117456,21,1,0,0,0,11.5,0.6,0.87,1.79,-0.13,-0.25,-30.6875,-53.4375,19.625,0.24371337890625,0.64361572265625,-0.16864013671875,0.70562744140625,-32.0,-3.6875,-16.0625,9.71,0.74,1.12,moving,1
5.47,615643.964117456,21,1,0,0,0,13.27,1.01,1.02,3.54,0.32,0.02,-45.625,-71.875,26.875,0.2435302734375,0.64666748046875,-0.17449951171875,0.70147705078125,-32.0,-3.6875,-16.0625,9.73,0.68,1.0,moving,1
5.48,615643.980947534,21,1,0,0,0,14.75,1.07,0.51,5.0,0.45,-0.34,-62.5,-89.875,34.1875,0.24359130859375,0.6502685546875,-0.18218994140625,0.69610595703125,-32.0,-3.6875,-16.0625,9.74,0.61,0.86,moving,1
5.49,615643.980947534,21,1,0,0,0,15.56,1.13,0.71,5.8,0.59,0.02,-69.5,-103.0,39.375,0.2435302734375,0.6544189453125,-0.1907958984375,0.69000244140625,-32.0,-3.6875,-16.0625,9.76,0.54,0.69,moving,1
5.5,615644.009835148,21,1,0,0,0,16.84,0.68,0.25,7.06,0.19,-0.31,-46.3125,-74.0,30.375,0.24310302734375,0.6573486328125,-0.1968994140625,0.68560791015625,-32.0,-3.6875,-16.0625,9.77,0.48,0.57,moving,1
5.51,615644.009835148,21,1,0,0,0,17.31,0.56,0.5,7.53,0.09,0.0,-6.625,-33.5625,10.3125,0.24224853515625,0.65899658203125,-0.1986083984375,0.68377685546875,-32.0625,-2.25,-14.0625,9.78,0.46,0.51,moving,1
5.52,615644.025828841,21,1,0,0,0,18.2,1.0,0.51,8.41,0.53,0.03,22.1875,-19.0625,0.9375,0.2406005859375,0.66064453125,-0.19775390625,0.68310546875,-32.0625,-2.25,-14.0625,9.78,0.46,0.48,moving,1
5.53,615644.025828841,21,1,0,0,0,17.19,1.42,-0.61,7.4,0.94,-1.09,26.0,-3.1875,-3.0,0.23919677734375,0.661376953125,-0.19610595703125,0.68328857421875,-32.0625,-2.25,-14.0625,9.78,0.47,0.47,moving,1
5.54,615644.039890934,21,1,0,0,0,16.28,1.03,-0.21,6.49,0.55,-0.69,7.75,1.6875,-2.4375,0.23895263671875,0.6614990234375,-0.1954345703125,0.6834716796875,-32.0625,-2.25,-14.0625,9.78,0.48,0.47,moving,1
5.55,615644.039890934,21,1,0,0,0,15.13,1.25,0.31,5.35,0.77,-0.18,-8.4375,16.625,-0.4375,0.23974609375,0.66033935546875,-0.19561767578125,0.68426513671875,-32.0625,-2.25,-14.0625,9.78,0.47,0.5,moving,1
5.56,615644.054599593,21,1,0,0,0,15.13,1.25,0.31,5.35,0.77,-0.18,-8.4375,16.625,-0.4375,0.23974609375,0.66033935546875,-0.19561767578125,0.68426513671875,-32.0625,-2.25,-14.0625,9.78,0.47,0.5,moving,1
5.57,615644.054599593,21,1,0,0,0,13.88,1.53,1.01,4.1,1.03,0.45,11.4375,38.625,-8.75,0.240234375,0.658447265625,-0.193603515625,0.6865234375,-33.5,-1.5625,-11.875,9.77,0.49,0.56,moving,1
5.58,615644.069670516,21,1,0,0,0,10.23,1.81,1.4,0.46,1.28,0.74,36.0625,57.375,-18.75,0.240234375,0.65606689453125,-0.18914794921875,0.69000244140625,-33.5,-1.5625,-11.875,9.76,0.53,0.66,moving,1
5.59,615644.069670516,21,1,0,0,0,8.4,1.61,1.04,-1.35,1.05,0.27,34.125,64.6875,-18.9375,0.240478515625,0.6531982421875,-0.18463134765625,0.69384765625,-33.5,-1.5625,-11.875,9.75,0.56,0.77,moving,1
5.59,615644.099572086,21,1,0,0,0,6.94,1.17,0.67,-2.8,0.57,-0.18,13.1875,59.0625,-14.0625,0.2415771484375,0.65008544921875,-0.18182373046875,0.6971435546875,-33.5,-1.5625,-11.875,9.74,0.59,0.86,moving,1
5.6,615644.099572086,21,1,0,0,0,5.66,0.75,0.36,-4.07,0.14,-0.58,-0.6875,49.1875,-10.0625,0.24298095703125,0.647216796875,-0.18023681640625,0.69970703125,-33.5,-1.5625,-11.875,9.74,0.61,0.95,moving,1
5.61,615644.114586002,21,1,0,0,0,3.7,0.39,0.47,-6.03,-0.22,-0.54,2.0625,41.625,-8.0,0.2440185546875,0.64483642578125,-0.17877197265625,0.701904296875,-32.375,-1.5625,-13.75,9.73,0.62,1.02,moving,1
5.62,615644.114586002,21,1,0,0,0,3.1,0.44,0.86,-6.61,-0.2,-0.21,18.125,37.9375,-9.625,0.24420166015625,0.64306640625,-0.17633056640625,0.7041015625,-32.375,-1.5625,-13.75,9.72,0.64,1.08,moving,1
5.63,615644.129725691,21,1,0,0,0,2.84,0.52,1.27,-6.87,-0.15,0.12,34.625,36.5625,-14.375,0.24371337890625,0.64178466796875,-0.172607421875,0.70635986328125,-32.375,-1.5625,-13.75,9.71,0.67,1.14,moving,1
5.64,615644.129725691,21,1,0,0,0,2.95,0.29,1.53,-6.75,-0.42,0.34,37.0,33.0,-19.0,0.2432861328125,0.64080810546875,-0.16851806640625,0.7083740234375,-32.375,-1.5625,-13.75,9.7,0.71,1.19,moving,1
5.65,615644.145171004,21,1,0,0,0,3.13,0.0,1.27,-6.56,-0.74,0.04,27.6875,27.375,-19.125,0.24334716796875,0.6400146484375,-0.1651611328125,0.70989990234375,-32.375,-1.5625,-13.75,9.69,0.75,1.23,moving,1
5.67,615644.145171004,21,1,0,0,0,3.41,-0.29,1.08,-6.27,-1.08,-0.18,18.75,20.9375,-16.75,0.24359130859375,0.63934326171875,-0.16259765625,0.7109375,-31.25,-3.0,-15.6875,9.69,0.78,1.27,moving,1
5.67,615644.174961287,21,1,0,0,0,3.71,-0.55,1.14,-5.97,-1.37,-0.14,21.1875,14.875,-16.625,0.24371337890625,0.63909912109375,-0.1600341796875,0.71173095703125,-31.25,-3.0,-15.6875,9.68,0.82,1.29,moving,1
5.68,615644.174961287,21,1,0,0,0,4.41,-0.28,1.73,-5.27,-1.14,0.43,25.4375,5.6875,-16.375,0.24334716796875,0.6395263671875,-0.15740966796875,0.7120361328125,-31.25,-3.0,-15.6875,9.68,0.85,1.29,moving,1
5.69,615644.192307845,21,1,0,0,0,4.67,0.07,1.87,-5.0,-0.8,0.58,18.0,-6.5625,-11.125,0.24298095703125,0.64044189453125,-0.15582275390625,0.71173095703125,-31.25,-3.0,-15.6875,9.68,0.87,1.28,moving,1
5.7,615644.192307845,21,1,0,0,0,5.31,0.17,1.7,-4.36,-0.7,0.44,-0.5,-11.0,-2.625,0.24298095703125,0.64117431640625,-0.1558837890625,0.7110595703125,-31.25,-3.0,-15.6875,9.68,0.88,1.26,moving,1
5.71,615644.205297225,21,1,0,0,0,7.84,0.13,0.52,-1.84,-0.73,-0.71,-22.0,-14.25,4.6875,0.24371337890625,0.64154052734375,-0.1578369140625,0.71002197265625,-32.375,-4.0625,-15.6875,9.68,0.86,1.24,moving,1
5.72,615644.205297225,21,1,0,0,0,9.59,0.14,0.14,-0.1,-0.69,-1.05,-39.875,-30.0,12.75,0.2447509765625,0.642333984375,-0.16168212890625,0.70806884765625,-32.375,-4.0625,-15.6875,9.69,0.83,1.2,moving,1
5.73,615644.235742944,21,1,0,0,0,11.54,0.14,0.27,1.83,-0.64,-0.84,-50.5,-55.3125,23.5,0.245361328125,0.64434814453125,-0.16729736328125,0.70477294921875,-32.375,-4.0625,-15.6875,9.71,0.78,1.11,moving,1
5.74,615644.235742944,21,1,0,0,0,13.95,0.36,1.1,4.22,-0.35,0.1,-59.4375,-73.4375,33.6875,0.24554443359375,0.64703369140625,-0.17437744140625,0.700439453125,-32.375,-4.0625,-15.6875,9.72,0.72,0.99,moving,1
5.75,615644.251099145,21,1,0,0,0,17.26,0.52,0.87,7.51,-0.1,0.0,-79.0625,-84.0625,45.0625,0.2459716796875,0.6497802734375,-0.18353271484375,0.6954345703125,-32.375,-4.0625,-15.6875,9.74,0.63,0.86,moving,1
5.76,615644.251099145,21,1,0,0,0,17.24,1.62,0.72,7.48,1.09,-0.01,-65.625,-74.3125,53.25,0.2452392578125,0.6519775390625,-0.192138671875,0.6912841796875,-33.0625,-3.0,-15.6875,9.76,0.53,0.74,moving,1
5.77,615644.28031403,21,1,0,0,0,17.5,1.35,-0.4,7.72,0.87,-1.08,-13.9375,-41.9375,31.75,0.243408203125,0.6536865234375,-0.1956787109375,0.6893310546875,-33.0625,-3.0,-15.6875,9.77,0.47,0.67,moving,1
5.78,615644.28031403,21,1,0,0,0,17.92,1.62,-0.22,8.15,1.15,-0.86,11.5,-23.0625,4.6875,0.2420654296875,0.65521240234375,-0.19573974609375,0.68829345703125,-33.0625,-3.0,-15.6875,9.77,0.46,0.63,moving,1
5.79,615644.296473128,21,1,0,0,0,17.76,1.47,-0.59,7.98,0.99,-1.19,41.1875,-21.0625,-3.25,0.23956298828125,0.65740966796875,-0.19354248046875,0.687744140625,-33.0625,-3.0,-15.6875,9.77,0.47,0.59,moving,1
5.8,615644.296473128,21,1,0,0,0,17.17,1.58,-0.63,7.39,1.09,-1.2,48.0625,-12.1875,-3.75,0.23681640625,0.65924072265625,-0.190673828125,0.687744140625,-33.0625,-3.0,-15.6875,9.77,0.48,0.57,moving,1
5.81,615644.325335392,21,1,0,0,0,17.17,1.58,-0.63,7.39,1.09,-1.2,48.0625,-12.1875,-3.75,0.23681640625,0.65924072265625,-0.190673828125,0.687744140625,-33.0625,-3.0,-15.6875,9.77,0.48,0.57,moving,1
5.82,615644.325335392,21,1,0,0,0,16.48,1.43,0.36,6.71,0.94,-0.23,-7.6875,21.875,-2.0625,0.23773193359375,0.65777587890625,-0.1905517578125,0.6888427734375,-32.75,-2.25,-13.75,9.77,0.49,0.6,moving,1
5.82,615644.330972029,21,1,0,0,0,13.45,1.03,0.5,3.68,0.53,-0.13,-7.6875,21.875,-2.0625,0.23870849609375,0.65631103515625,-0.19049072265625,0.68994140625,-32.75,-2.25,-13.75,9.77,0.49,0.64,moving,1
5.84,615644.330972029,21,1,0,0,0,11.72,1.3,0.66,1.95,0.79,-0.04,12.125,41.25,-11.875,0.2393798828125,0.654296875,-0.18817138671875,0.69219970703125,-32.75,-2.25,-13.75,9.76,0.51,0.71,moving,1
5.84,615644.340964868,21,1,0,0,0,10.09,1.15,0.74,0.33,0.61,-0.04,27.0625,48.75,-16.0625,0.2396240234375,0.65216064453125,-0.18463134765625,0.695068359375,-32.75,-2.25,-13.75,9.75,0.54,0.79,moving,1
5.85,615644.340964868,21,1,0,0,0,9.23,0.76,0.07,-0.51,0.18,-0.79,16.0,45.875,-13.6875,0.24029541015625,0.64996337890625,-0.181884765625,0.69769287109375,-32.75,-2.25,-13.75,9.75,0.57,0.87,moving,1
5.86,615644.35489008,21,1,0,0,0,7.25,1.35,1.67,-2.49,0.77,0.73,-5.75,35.625,-8.0625,0.24163818359375,0.64776611328125,-0.1810302734375,0.69940185546875,-32.375,-2.6875,-14.0625,9.74,0.58,0.93,moving,1
5.87,615644.35489008,21,1,0,0,0,5.55,0.93,0.85,-4.17,0.33,-0.13,-14.25,32.1875,-6.625,0.243408203125,0.6456298828125,-0.18084716796875,0.70086669921875,-32.375,-2.6875,-14.0625,9.73,0.59,0.98,moving,1
5.89,615644.38498029,21,1,0,0,0,5.57,0.79,1.7,-4.15,0.18,0.66,-17.5,28.625,-5.4375,0.24517822265625,0.64361572265625,-0.1810302734375,0.70208740234375,-32.375,-2.6875,-14.0625,9.73,0.6,1.03,moving,1
5.89,615644.38498029,21,1,0,0,0,4.02,0.1,1.14,-5.7,-0.51,0.05,-4.375,27.1875,-6.1875,0.2462158203125,0.64190673828125,-0.18035888671875,0.70343017578125,-32.375,-2.6875,-14.0625,9.72,0.61,1.08,moving,1
5.9,615644.399188745,21,1,0,0,0,3.5,-0.05,0.8,-6.2,-0.68,-0.33,15.6875,33.5625,-11.3125,0.24658203125,0.640380859375,-0.17803955078125,0.70526123046875,-32.375,-2.6875,-14.0625,9.71,0.63,1.14,moving,1
5.92,615644.399188745,21,1,0,0,0,3.15,0.1,1.13,-6.55,-0.57,-0.05,24.5625,29.4375,-18.375,0.24676513671875,0.639404296875,-0.17486572265625,0.7069091796875,-32.75,-3.25,-15.25,9.71,0.67,1.18,moving,1
5.92,615644.429318668,21,1,0,0,0,3.41,0.08,1.65,-6.28,-0.62,0.42,13.625,25.125,-18.5625,0.24755859375,0.638427734375,-0.17242431640625,0.7081298828125,-32.75,-3.25,-15.25,9.7,0.7,1.22,moving,1
5.93,615644.429318668,21,1,0,0,0,3.83,-0.38,2.17,-5.86,-1.12,0.91,-0.125,20.8125,-17.1875,0.2489013671875,0.63739013671875,-0.1710205078125,0.70892333984375,-32.75,-3.25,-15.25,9.69,0.73,1.26,moving,1
5.94,615644.444597925,21,1,0,0,0,3.62,-0.57,1.72,-6.06,-1.34,0.4,-0.8125,29.125,-16.5,0.25042724609375,0.63580322265625,-0.16949462890625,0.71014404296875,-32.75,-3.25,-15.25,9.68,0.76,1.31,moving,1
5.95,615644.444597925,21,1,0,0,0,3.79,-0.69,2.06,-5.88,-1.48,0.7,7.0,28.25,-16.375,0.25146484375,0.63446044921875,-0.16754150390625,0.71142578125,-32.75,-3.25,-15.25,9.67,0.79,1.36,moving,1
5.96,615644.45932583,21,1,0,0,0,3.83,-0.34,1.9,-5.83,-1.15,0.5,-0.125,18.125,-9.5,0.2523193359375,0.63348388671875,-0.1666259765625,0.71221923828125,-31.6875,-3.0,-14.5625,9.67,0.8,1.39,moving,1
5.97,615644.45932583,21,1,0,0,0,5.63,0.21,1.92,-4.03,-0.57,0.53,-29.3125,-1.6875,3.0,0.25372314453125,0.63287353515625,-0.16864013671875,0.7117919921875,-31.6875,-3.0,-14.5625,9.67,0.79,1.39,moving,1
5.98,615644.49048265,21,1,0,0,0,7.62,-0.01,1.18,-2.05,-0.76,-0.17,-60.5625,-25.9375,17.4375,0.255615234375,0.63287353515625,-0.1739501953125,0.7098388671875,-31.6875,-3.0,-14.5625,9.68,0.75,1.35,moving,1
5.99,615644.49048265,21,1,0,0,0,10.44,-0.46,0.34,0.74,-1.14,-0.92,-79.1875,-57.25,32.125,0.257080078125,0.6341552734375,-0.181884765625,0.7061767578125,-31.6875,-3.0,-14.5625,9.7,0.67,1.27,moving,1
6.0,615644.505745711,21,1,0,0,0,16.91,-0.15,1.32,7.19,-0.73,0.19,-83.5625,-87.125,50.75,0.2572021484375,0.63677978515625,-0.1917724609375,0.70111083984375,-31.6875,-3.0,-14.5625,9.72,0.57,1.13,moving,1
6.01,615644.505745711,21,1,0,0,0,17.53,0.41,1.76,7.78,-0.04,0.74,-48.6875,-67.6875,61.125,0.2550048828125,0.6387939453125,-0.19964599609375,0.6978759765625,-32.0625,-3.25,-15.6875,9.74,0.46,1.02,moving,1
6.02,615644.524488428,21,1,0,0,0,17.01,1.69,0.9,7.27,1.3,-0.1,-14.4375,-4.5625,43.375,0.25311279296875,0.63800048828125,-0.20306396484375,0.6983642578125,-32.0625,-3.25,-15.6875,9.74,0.38,1.01,moving,1
6.03,615644.524488428,21,1,0,0,0,17.08,2.04,0.12,7.34,1.66,-0.9,4.6875,9.8125,2.6875,0.25286865234375,0.637451171875,-0.20269775390625,0.69903564453125,-32.0625,-3.25,-15.6875,9.74,0.38,1.03,moving,1
6.04,615644.550236637,21,1,0,0,0,16.86,0.85,0.28,7.11,0.46,-0.72,29.3125,-7.75,-0.8125,0.25115966796875,0.6385498046875,-0.2010498046875,0.6990966796875,-32.0625,-3.25,-15.6875,9.74,0.38,1.01,moving,1
6.05,615644.550236637,21,1,0,0,0,16.77,1.11,-0.14,7.02,0.71,-1.12,50.875,-18.6875,-0.125,0.24798583984375,0.64080810546875,-0.1983642578125,0.698974609375,-32.0625,-3.25,-15.6875,9.74,0.39,0.98,moving,1
6.06,615644.556319604,21,1,0,0,0,16.01,1.47,-0.7,6.26,1.06,-1.65,46.0625,-14.9375,-2.9375,0.24530029296875,0.64276123046875,-0.1956787109375,0.6988525390625,-32.0625,-1.1875,-14.0625,9.75,0.41,0.95,moving,1
6.07,615644.556319604,21,1,0,0,0,16.01,1.47,-0.7,6.26,1.06,-1.65,46.0625,-14.9375,-2.9375,0.24530029296875,0.64276123046875,-0.1956787109375,0.6988525390625,-32.0625,-1.1875,-14.0625,9.75,0.41,0.95,moving,1
6.08,615644.587727279,21,1,0,0,0,14.32,1.55,1.04,4.57,1.12,0.07,22.375,8.3125,-9.0,0.2447509765625,0.64288330078125,-0.19366455078125,0.69952392578125,-32.0625,-1.1875,-14.0625,9.74,0.42,0.96,moving,1
6.09,615644.587727279,21,1,0,0,0,12.73,1.41,1.57,2.98,0.95,0.55,17.5,29.3125,-17.6875,0.245361328125,0.64178466796875,-0.19097900390625,0.7010498046875,-32.0625,-1.1875,-14.0625,9.74,0.46,1.01,moving,1
6.09,615644.59460765,21,1,0,0,0,10.92,1.24,1.41,1.19,0.73,0.33,14.4375,38.5,-21.125,0.2464599609375,0.64007568359375,-0.18804931640625,0.7030029296875,-32.0625,-1.1875,-14.0625,9.73,0.5,1.07,moving,1
6.1,615644.59460765,21,1,0,0,0,9.12,1.01,1.26,-0.6,0.48,0.13,-4.0625,28.0625,-17.6875,0.24822998046875,0.6385498046875,-0.18670654296875,0.7041015625,-32.0625,-1.1875,-14.0625,9.72,0.53,1.12,moving,1
6.11,615644.610729354,21,1,0,0,0,7.25,0.43,1.6,-2.46,-0.11,0.44,-19.9375,18.5,-11.6875,0.2503662109375,0.63720703125,-0.1868896484375,0.70452880859375,-33.0625,-2.6875,-14.5625,9.72,0.54,1.15,moving,1
6.12,615644.610729354,21,1,0,0,0,6.49,0.52,1.78,-3.22,-0.03,0.59,-21.3125,17.6875,-8.4375,0.25238037109375,0.6357421875,-0.18731689453125,0.70501708984375,-33.0625,-2.6875,-14.5625,9.71,0.55,1.19,moving,1
6.13,615644.641448429,21,1,0,0,0,5.42,0.54,1.51,-4.29,-0.03,0.28,-18.8125,23.125,-11.75,0.2545166015625,0.63409423828125,-0.18731689453125,0.7056884765625,-33.0625,-2.6875,-14.5625,9.71,0.57,1.23,moving,1
6.14,615644.641448429,21,1,0,0,0,4.21,0.08,1.19,-5.48,-0.51,-0.08,-21.25,27.3125,-14.0625,0.25701904296875,0.6322021484375,-0.187255859375,0.70654296875,-33.0625,-2.6875,-14.5625,9.7,0.59,1.28,moving,1
6.15,615644.655226261,21,1,0,0,0,4.03,-0.59,1.23,-5.66,-1.2,-0.09,-15.0,28.1875,-13.875,0.2591552734375,0.63037109375,-0.186767578125,0.70751953125,-33.0625,-2.6875,-14.5625,9.69,0.61,1.32,moving,1
6.17,615644.655226261,21,1,0,0,0,3.75,-0.86,1.05,-5.92,-1.5,-0.32,7.875,31.9375,-14.4375,0.2601318359375,0.6287841796875,-0.18475341796875,0.7091064453125,-32.0625,-1.875,-14.875,9.68,0.63,1.38,moving,1
6.17,615644.670380436,21,1,0,0,0,3.52,-0.79,1.12,-6.14,-1.46,-0.31,33.4375,31.0,-17.3125,0.2598876953125,0.62786865234375,-0.1810302734375,0.7109375,-32.0625,-1.875,-14.875,9.67,0.67,1.43,moving,1
6.18,615644.670380436,21,1,0,0,0,3.98,-0.28,1.65,-5.68,-0.99,0.18,39.25,24.25,-18.125,0.25921630859375,0.6275634765625,-0.17706298828125,0.71246337890625,-32.0625,-1.875,-14.875,9.66,0.71,1.46,moving,1
6.19,615644.700152694,21,1,0,0,0,4.42,-0.11,1.8,-5.23,-0.85,0.31,23.4375,13.8125,-15.0625,0.25909423828125,0.62744140625,-0.1744384765625,0.7132568359375,-32.0625,-1.875,-14.875,9.66,0.74,1.48,moving,1
6.2,615644.700152694,21,1,0,0,0,4.76,-0.12,1.64,-4.89,-0.89,0.14,5.9375,9.5,-9.3125,0.25946044921875,0.62713623046875,-0.17333984375,0.71368408203125,-32.0625,-1.875,-14.875,9.66,0.76,1.5,moving,1
6.21,615644.714866073,21,1,0,0,0,5.17,-0.29,1.59,-4.48,-1.06,0.07,-0.875,9.25,-3.4375,0.2598876953125,0.6265869140625,-0.17303466796875,0.71405029296875,-32.0,-3.0,-15.6875,9.65,0.77,1.51,moving,1
6.22,615644.714866073,21,1,0,0,0,6.71,0.41,0.91,-2.93,-0.34,-0.6,-4.25,0.0,3.375,0.2598876953125,0.62646484375,-0.1734619140625,0.714111328125,-32.0,-3.0,-15.6875,9.65,0.76,1.51,moving,1
6.23,615644.730760075,21,1,0,0,0,8.05,0.74,0.97,-1.6,0.0,-0.5,-15.5625,-26.25,10.375,0.25970458984375,0.6275634765625,-0.17559814453125,0.712646484375,-32.0,-3.0,-15.6875,9.66,0.74,1.47,stop,1
6.24,615644.730760075,21,1,0,0,0,9.73,0.79,1.33,0.04,0.08,-0.05,-36.25,-54.4375,18.6875,0.25970458984375,0.62982177734375,-0.18011474609375,0.70953369140625,-32.0,-3.0,-15.6875,9.68,0.7,1.39,stop,1
6.25,615644.760592839,21,1,0,0,0,11.87,0.71,1.77,2.16,0.07,0.48,-55.5,-64.3125,28.375,0.25994873046875,0.632080078125,-0.18658447265625,0.70574951171875,-32.0,-3.0,-15.6875,9.7,0.64,1.28,stop,1
6.26,615644.760592839,21,1,0,0,0,11.59,0.59,1.2,1.87,0.02,-0.02,-50.9375,-41.8125,29.9375,0.26025390625,0.63299560546875,-0.19232177734375,0.70330810546875,-30.875,-1.5625,-16.375,9.71,0.57,1.22,stop,1
6.27,615644.776370996,21,1,0,0,0,11.56,0.45,0.06,1.84,-0.09,-1.16,-6.75,-0.5,13.9375,0.259765625,0.63262939453125,-0.1934814453125,0.7034912109375,-30.875,-1.5625,-16.375,9.71,0.55,1.22,stop,1
6.28,615644.776370996,21,1,0,0,0,12.55,0.46,-0.99,2.84,-0.08,-2.18,23.8125,-16.3125,4.25,0.2579345703125,0.63409423828125,-0.192626953125,0.70306396484375,-30.875,-1.5625,-16.375,9.71,0.55,1.19,stop,1
6.29,615644.790394922,21,1,0,0,0,16.38,0.59,0.0,6.64,0.06,-1.07,21.875,-74.3125,16.0,0.25445556640625,0.63885498046875,-0.19384765625,0.69970703125,-30.875,-1.5625,-16.375,9.73,0.52,1.06,stop,1
6.3,615644.790394922,21,1,0,0,0,17.86,1.42,0.95,8.1,0.93,0.06,10.9375,-102.5,22.0625,0.250732421875,0.64495849609375,-0.19671630859375,0.69464111328125,-30.875,-1.5625,-16.375,9.75,0.49,0.88,stop,1
6.31,615644.805354028,21,1,0,0,0,17.45,2.0,1.79,7.68,1.52,1.01,8.0,-66.9375,11.8125,0.2484130859375,0.64892578125,-0.19830322265625,0.69122314453125,-32.25,-1.5625,-14.5625,9.76,0.47,0.77,stop,1
6.32,615644.805354028,21,1,0,0,0,17.45,2.0,1.79,7.68,1.52,1.01,8.0,-66.9375,11.8125,0.2484130859375,0.64892578125,-0.19830322265625,0.69122314453125,-32.25,-1.5625,-14.5625,9.76,0.47,0.77,stop,1
6.33,615644.822986068,21,1,0,0,0,12.51,1.33,1.31,2.74,0.84,0.53,14.25,3.9375,-7.125,0.24810791015625,0.649169921875,-0.19696044921875,0.6915283203125,-32.25,-1.5625,-14.5625,9.76,0.48,0.78,stop,1
6.34,615644.822986068,21,1,0,0,0,10.25,1.03,0.93,0.5,0.51,0.08,29.0,39.375,-21.6875,0.24847412109375,0.64776611328125,-0.19317626953125,0.69378662109375,-32.25,-1.5625,-14.5625,9.75,0.52,0.84,stop,1
6.34,615644.850113957,21,1,0,0,0,9.35,0.84,1.35,-0.39,0.26,0.46,39.6875,25.1875,-26.125,0.24822998046875,0.64752197265625,-0.188720703125,0.6953125,-32.25,-1.5625,-14.5625,9.74,0.57,0.88,stop,1
6.35,615644.850113957,21,1,0,0,0,9.18,1.14,2.09,-0.56,0.52,1.2,33.875,4.5,-20.25,0.24761962890625,0.6483154296875,-0.1854248046875,0.6956787109375,-32.25,-1.5625,-14.5625,9.74,0.61,0.88,stop,1
6.36,615644.86510061,21,1,0,0,0,8.83,1.47,2.89,-0.9,0.83,1.99,9.8125,3.25,-12.9375,0.2479248046875,0.6485595703125,-0.18402099609375,0.69573974609375,-32.6875,-1.5625,-15.25,9.74,0.64,0.89,stop,1
6.37,615644.86510061,21,1,0,0,0,8.18,1.66,2.5,-1.55,1.01,1.58,-21.0625,15.5,-3.5,0.24957275390625,0.647216796875,-0.18475341796875,0.69622802734375,-32.6875,-1.5625,-15.25,9.74,0.64,0.92,stop,1
6.39,615644.880116154,21,1,0,0,0,7.67,1.48,1.89,-2.06,0.85,0.93,-38.25,19.25,3.5,0.2518310546875,0.6451416015625,-0.1868896484375,0.69677734375,-32.6875,-1.5625,-15.25,9.73,0.63,0.95,stop,1
6.39,615644.880116154,21,1,0,0,0,7.33,0.94,1.22,-2.4,0.32,0.23,-38.125,11.75,4.5625,0.25384521484375,0.64349365234375,-0.18914794921875,0.6968994140625,-32.6875,-1.5625,-15.25,9.73,0.61,0.98,stop,1
6.41,615644.909933659,21,1,0,0,0,7.65,-0.33,0.8,-2.08,-0.95,-0.2,-26.375,11.625,1.0,0.2554931640625,0.6422119140625,-0.1905517578125,0.6971435546875,-32.6875,-1.5625,-15.25,9.73,0.61,1.0,stop,1
6.42,615644.909933659,21,1,0,0,0,7.94,-0.47,0.86,-1.78,-1.09,-0.17,-9.25,18.5625,-2.625,0.2564697265625,0.640869140625,-0.1905517578125,0.697998046875,-32.0,-1.1875,-13.75,9.73,0.61,1.03,stop,1
6.42,615644.925152897,21,1,0,0,0,8.34,-0.2,1.13,-1.38,-0.82,0.06,2.4375,20.75,-3.125,0.25689697265625,0.63970947265625,-0.18975830078125,0.6990966796875,-32.0,-1.1875,-13.75,9.72,0.62,1.07,stop,1
6.43,615644.925152897,21,1,0,0,0,9.26,0.4,1.29,-0.45,-0.21,0.2,2.125,13.375,-0.5625,0.25701904296875,0.63897705078125,-0.1893310546875,0.69989013671875,-32.0,-1.1875,-13.75,9.72,0.62,1.09,stop,1
6.44,615644.939943221,21,1,0,0,0,9.77,0.49,1.05,0.04,-0.11,-0.04,-6.5625,2.1875,5.125,0.25714111328125,0.63861083984375,-0.18994140625,0.70001220703125,-32.0,-1.1875,-13.75,9.72,0.61,1.1,stop,1
6.45,615644.939943221,21,1,0,0,0,10.31,0.63,0.85,0.59,0.03,-0.23,-13.6875,-8.1875,10.4375,0.25714111328125,0.63861083984375,-0.1915283203125,0.6995849609375,-32.0,-1.1875,-13.75,9.72,0.59,1.08,stop,1
6.46,615644.969785221,21,1,0,0,0,10.68,0.65,0.92,0.95,0.07,-0.14,-11.6875,-12.1875,10.8125,0.25689697265625,0.638916015625,-0.193115234375,0.69891357421875,-32.25,-1.1875,-13.75,9.73,0.57,1.06,stop,1
6.47,615644.969785221,21,1,0,0,0,11.11,0.95,1.49,1.37,0.39,0.44,-2.5625,-10.0625,7.9375,0.25640869140625,0.63934326171875,-0.1939697265625,0.698486328125,-32.25,-1.1875,-13.75,9.73,0.55,1.05,stop,1
6.48,615644.984761499,21,1,0,0,0,11.03,1.15,1.78,1.3,0.6,0.75,10.5,-10.5,3.9375,0.25537109375,0.64013671875,-0.19378662109375,0.69818115234375,-32.25,-1.1875,-13.75,9.73,0.55,1.03,stop,1
6.49,615644.984761499,21,1,0,0,0,10.68,1.2,1.91,0.94,0.65,0.89,20.8125,-8.4375,0.0,0.25408935546875,0.64111328125,-0.19268798828125,0.69805908203125,-32.25,-1.1875,-13.75,9.73,0.55,1.01,stop,1
6.5,615644.999747949,21,1,0,0,0,9.9,1.32,1.58,0.16,0.76,0.57,23.125,-4.0,-2.0,0.25286865234375,0.64190673828125,-0.1912841796875,0.69818115234375,-32.25,-1.1875,-13.75,9.73,0.56,1.0,stop,1
6.51,615644.999747949,21,1,0,0,0,9.57,1.32,1.37,-0.16,0.74,0.38,19.4375,-5.4375,-2.5,0.2518310546875,0.6427001953125,-0.1900634765625,0.6981201171875,-33.0,-0.5,-13.75,9.73,0.57,0.99,stop,1
6.52,615645.030715031,21,1,0,0,0,9.13,0.97,1.18,-0.6,0.39,0.2,13.375,-10.0,-2.0625,0.25103759765625,0.64361572265625,-0.1893310546875,0.69775390625,-33.0,-0.5,-13.75,9.74,0.57,0.97,stop,1
6.53,615645.030715031,21,1,0,0,0,8.78,0.61,1.13,-0.95,0.02,0.16,9.4375,-4.25,-3.0,0.2506103515625,0.6441650390625,-0.18865966796875,0.6976318359375,-33.0,-0.5,-13.75,9.74,0.58,0.97,stop,1
6.54,615645.044240015,21,1,0,0,0,8.47,0.7,1.43,-1.26,0.11,0.44,0.0,7.625,-3.125,0.25091552734375,0.64373779296875,-0.1883544921875,0.697998046875,-33.0,-0.5,-13.75,9.73,0.59,0.98,stop,1
6.55,615645.044240015,21,1,0,0,0,8.47,0.56,1.34,-1.26,-0.02,0.34,-15.375,8.1875,-0.625,0.25201416015625,0.64288330078125,-0.18902587890625,0.69818115234375,-33.0,-0.5,-13.75,9.73,0.58,0.99,stop,1
6.57,615645.076134098,21,1,0,0,0,8.57,0.25,1.02,-1.16,-0.32,0.02,-22.5,0.0,0.1875,0.25323486328125,0.64239501953125,-0.1904296875,0.69781494140625,-33.0,-2.6875,-14.875,9.73,0.58,1.0,stop,1
6.58,615645.076134098,21,1,0,0,0,9.29,0.06,0.81,-0.44,-0.52,-0.17,-13.3125,-5.1875,0.0,0.25390625,0.64239501953125,-0.19134521484375,0.69732666015625,-33.0,-2.6875,-14.875,9.73,0.58,0.99,stop,1
6.58,615645.080931096,21,1,0,0,0,9.29,0.06,0.81,-0.44,-0.52,-0.17,-13.3125,-5.1875,0.0,0.25390625,0.64239501953125,-0.19134521484375,0.69732666015625,-33.0,-2.6875,-14.875,9.73,0.58,0.99,stop,1
6.59,615645.080931096,21,1,0,0,0,9.52,0.28,1.12,-0.21,-0.29,0.13,-1.625,-2.3125,-0.4375,0.25396728515625,0.64251708984375,-0.19146728515625,0.6971435546875,-33.0,-2.6875,-14.875,9.73,0.58,0.99,stop,1
6.59,615645.091125513,21,1,0,0,0,9.71,0.54,1.34,-0.02,-0.03,0.35,-1.9375,-1.1875,0.0,0.25408935546875,0.64251708984375,-0.19158935546875,0.697021484375,-33.0,-2.6875,-14.875,9.73,0.58,0.98,stop,1
6.6,615645.091125513,21,1,0,0,0,9.65,0.54,1.3,-0.08,-0.03,0.32,-10.25,-4.1875,2.5625,0.25439453125,0.64251708984375,-0.19244384765625,0.69671630859375,-33.0,-2.6875,-14.875,9.74,0.57,0.98,stop,1
6.61,615645.121207259,21,1,0,0,0,9.74,0.21,0.87,0.0,-0.35,-0.1,-12.0,-6.375,4.0,0.2547607421875,0.642578125,-0.19354248046875,0.69622802734375,-32.6875,-1.875,-14.5625,9.74,0.56,0.97,stop,1
6.62,615645.121207259,21,1,0,0,0,9.74,0.19,0.86,0.0,-0.36,-0.09,-0.4375,-7.3125,3.9375,0.25439453125,0.6429443359375,-0.1939697265625,0.6959228515625,-32.6875,-1.875,-14.5625,9.74,0.56,0.96,stop,1
6.63,615645.134758,21,1,0,0,0,9.75,0.35,0.96,0.01,-0.2,0.02,17.5625,-7.5625,1.625,0.253173828125,0.64373779296875,-0.193115234375,0.69580078125,-32.6875,-1.875,-14.5625,9.74,0.56,0.94,stop,1
6.64,615645.134758,21,1,0,0,0,9.71,0.65,1.1,-0.03,0.08,0.17,27.375,-9.75,0.0625,0.25146484375,0.64495849609375,-0.19171142578125,0.69573974609375,-32.6875,-1.875,-14.5625,9.74,0.56,0.92,stop,1
6.66,615645.150068181,21,1,0,0,0,9.6,0.95,1.09,-0.14,0.38,0.19,22.5,-11.75,0.3125,0.25,0.64617919921875,-0.1905517578125,0.6954345703125,-32.6875,-1.875,-14.5625,9.74,0.56,0.9,stop,1
6.67,615645.150068181,21,1,0,0,0,9.5,0.76,0.9,-0.24,0.19,0.01,11.4375,-13.75,1.125,0.24908447265625,0.647216796875,-0.19024658203125,0.69488525390625,-33.6875,-1.5625,-14.0625,9.75,0.56,0.88,stop,1
6.67,615645.16485293,21,1,0,0,0,9.36,0.54,0.74,-0.39,-0.02,-0.11,7.625,-15.75,1.25,0.248291015625,0.6483154296875,-0.190185546875,0.69415283203125,-33.6875,-1.5625,-14.0625,9.75,0.56,0.85,stop,1
6.68,615645.16485293,21,1,0,0,0,9.42,0.49,0.82,-0.32,-0.07,0.0,12.875,-17.75,-0.8125,0.247314453125,0.649658203125,-0.18975830078125,0.693359375,-33.6875,-1.5625,-14.0625,9.75,0.57,0.82,stop,1
6.69,615645.195494287,21,1,0,0,0,9.46,0.62,0.9,-0.29,0.04,0.11,16.875,-18.4375,-2.625,0.2462158203125,0.65118408203125,-0.18896484375,0.69256591796875,-33.6875,-1.5625,-14.0625,9.75,0.57,0.78,stop,1
6.7,615645.195494287,21,1,0,0,0,9.43,0.68,0.9,-0.32,0.1,0.14,12.375,-15.8125,-2.875,0.24542236328125,0.6524658203125,-0.1883544921875,0.6917724609375,-33.6875,-1.5625,-14.0625,9.75,0.58,0.76,stop,1
6.71,615645.209997298,21,1,0,0,0,9.36,0.66,0.89,-0.39,0.07,0.14,1.875,-9.8125,-0.8125,0.2452392578125,0.653076171875,-0.18841552734375,0.6912841796875,-33.375,-3.0,-14.1875,9.76,0.58,0.74,stop,1
6.72,615645.209997298,21,1,0,0,0,9.41,0.41,0.74,-0.34,-0.17,0.0,-5.25,-6.125,2.125,0.245361328125,0.65325927734375,-0.18896484375,0.69091796875,-33.375,-3.0,-14.1875,9.76,0.58,0.73,stop,1
6.73,615645.225287704,21,1,0,0,0,9.6,0.35,0.82,-0.16,-0.22,0.1,-2.75,-8.125,3.5625,0.2451171875,0.65362548828125,-0.18951416015625,0.69049072265625,-33.375,-3.0,-14.1875,9.76,0.57,0.72,stop,1
6.75,615645.225287704,21,1,0,0,0,9.74,0.43,0.95,-0.01,-0.13,0.23,4.5,-5.5625,3.5625,0.24456787109375,0.6539306640625,-0.1895751953125,0.69036865234375,-33.375,-3.0,-14.1875,9.76,0.56,0.71,stop,1
6.75,615645.258323308,21,1,0,0,0,9.66,0.6,1.07,-0.09,0.04,0.35,7.0,1.875,3.625,0.2440185546875,0.65380859375,-0.1893310546875,0.69073486328125,-33.375,-3.0,-14.1875,9.76,0.56,0.71,stop,1
6.76,615645.258323308,21,1,0,0,0,9.54,0.65,1.0,-0.22,0.09,0.26,5.25,6.0,4.8125,0.2435302734375,0.65338134765625,-0.1890869140625,0.69140625,-33.375,-3.0,-13.0,9.76,0.55,0.73,stop,1
6.77,615645.269369776,21,1,0,0,0,9.62,0.68,0.98,-0.13,0.14,0.24,3.375,3.375,5.75,0.24310302734375,0.653076171875,-0.1890869140625,0.69183349609375,-33.375,-3.0,-13.0,9.76,0.54,0.74,stop,1
6.78,615645.269369776,21,1,0,0,0,9.73,0.74,0.98,-0.02,0.2,0.24,3.625,-0.5625,6.0625,0.24261474609375,0.65301513671875,-0.18914794921875,0.69207763671875,-33.375,-3.0,-13.0,9.76,0.53,0.74,stop,1
6.79,615645.300930689,21,1,0,0,0,9.76,0.79,0.88,0.0,0.26,0.14,6.1875,-1.4375,4.8125,0.24200439453125,0.653076171875,-0.18896484375,0.69219970703125,-33.375,-3.0,-13.0,9.76,0.53,0.74,stop,1
6.8,615645.300930689,21,1,0,0,0,9.68,0.83,0.8,-0.07,0.3,0.06,8.125,-0.75,2.625,0.241455078125,0.65325927734375,-0.1885986328125,0.6923828125,-33.375,-3.0,-13.0,9.76,0.53,0.73,stop,1
6.81,615645.316169621,21,1,0,0,0,9.59,0.82,0.79,-0.16,0.28,0.06,6.5,-3.1875,1.375,0.24102783203125,0.653564453125,-0.188232421875,0.69232177734375,-32.0,-3.25,-12.5625,9.76,0.53,0.73,stop,1
6.82,615645.316169621,21,1,0,0,0,9.62,0.75,0.78,-0.13,0.21,0.06,2.375,-8.25,1.0625,0.24078369140625,0.654052734375,-0.188232421875,0.69195556640625,-32.0,-3.25,-12.5625,9.76,0.53,0.72,stop,1
6.84,615645.338965113,21,1,0,0,0,9.66,0.67,0.79,-0.1,0.14,0.08,0.1875,-11.5625,0.875,0.2406005859375,0.65472412109375,-0.1884765625,0.69134521484375,-32.0,-3.25,-12.5625,9.76,0.53,0.7,stop,1
6.84,615645.338965113,21,1,0,0,0,9.62,0.67,0.78,-0.13,0.13,0.09,1.5625,-11.5,0.25,0.2403564453125,0.65545654296875,-0.18853759765625,0.690673828125,-32.0,-3.25,-12.5625,9.76,0.53,0.68,stop,1
6.85,615645.363062158,21,1,0,0,0,9.56,0.65,0.77,-0.2,0.11,0.1,4.0,-10.375,-0.5625,0.24005126953125,0.6561279296875,-0.1884765625,0.690185546875,-32.0,-3.25,-12.5625,9.76,0.53,0.66,stop,1
6.86,615645.363062158,21,1,0,0,0,9.44,0.67,0.71,-0.32,0.13,0.06,4.5,-10.375,-0.375,0.23968505859375,0.6568603515625,-0.1883544921875,0.689697265625,-33.0,-1.875,-14.0625,9.77,0.53,0.64,stop,1
6.87,615645.374653426,21,1,0,0,0,9.51,0.64,0.71,-0.25,0.1,0.08,3.25,-11.375,0.0625,0.23931884765625,0.6575927734375,-0.1883544921875,0.6890869140625,-33.0,-1.875,-14.0625,9.77,0.54,0.62,stop,1
6.88,615645.374653426,21,1,0,0,0,9.6,0.56,0.67,-0.17,0.02,0.06,2.375,-10.1875,0.875,0.239013671875,0.658203125,-0.1884765625,0.6885986328125,-33.0,-1.875,-14.0625,9.77,0.53,0.61,stop,1
6.9,615645.390119572,21,1,0,0,0,9.62,0.51,0.67,-0.14,-0.02,0.07,3.5,-7.0,0.875,0.2386474609375,0.65869140625,-0.18841552734375,0.68829345703125,-33.0,-1.875,-14.0625,9.77,0.53,0.6,stop,1
6.91,615645.390119572,21,1,0,0,0,9.71,0.63,0.8,-0.06,0.09,0.21,3.5625,-4.625,0.75,0.23834228515625,0.658935546875,-0.1883544921875,0.6881103515625,-33.0,-1.875,-14.0625,9.77,0.53,0.59,stop,1
6.92,615645.422095809,21,1,0,0,0,9.74,0.58,0.79,-0.02,0.04,0.2,0.25,-3.375,1.125,0.23822021484375,0.65911865234375,-0.18841552734375,0.68798828125,-33.375,-1.5625,-13.375,9.77,0.53,0.58,stop,1
6.92,615645.422095809,21,1,0,0,0,9.71,0.51,0.76,-0.06,-0.01,0.17,-2.5625,-0.75,1.25,0.23834228515625,0.6590576171875,-0.18865966796875,0.68798828125,-33.375,-1.5625,-13.375,9.77,0.53,0.58,stop,1
6.93,615645.435399073,21,1,0,0,0,9.72,0.53,0.83,-0.05,0.0,0.24,-2.1875,1.125,0.625,0.23846435546875,0.65887451171875,-0.18878173828125,0.68804931640625,-33.375,-1.5625,-13.375,9.77,0.53,0.59,stop,1
6.94,615645.435399073,21,1,0,0,0,9.71,0.5,0.78,-0.06,-0.02,0.18,-1.3125,0.6875,-0.1875,0.238525390625,0.65869140625,-0.1888427734375,0.6881103515625,-33.375,-1.5625,-13.375,9.77,0.53,0.59,stop,1
6.95,615645.451940007,21,1,0,0,0,9.72,0.55,0.74,-0.05,0.01,0.14,-0.125,-0.1875,-1.125,0.2386474609375,0.65869140625,-0.188720703125,0.68817138671875,-33.375,-1.5625,-13.375,9.77,0.53,0.59,stop,1
6.97,615645.451940007,21,1,0,0,0,9.61,0.5,0.56,-0.15,-0.03,-0.02,0.375,-0.375,-1.875,0.23876953125,0.65869140625,-0.18865966796875,0.6881103515625,-33.6875,-2.25,-13.375,9.77,0.53,0.59,stop,1
6.98,615645.465816757,21,1,0,0,0,9.43,0.52,0.51,-0.33,-0.02,-0.07,1.5625,-0.8125,-1.9375,0.23876953125,0.6588134765625,-0.18841552734375,0.68804931640625,-33.6875,-2.25,-13.375,9.77,0.54,0.59,stop,1
6.99,615645.465816757,21,1,0,0,0,9.52,0.55,0.72,-0.24,0.0,0.12,2.125,-1.8125,-1.5,0.23870849609375,0.65899658203125,-0.188232421875,0.68798828125,-33.6875,-2.25,-13.375,9.77,0.54,0.59,stop,1
7.0,615645.495902369,21,1,0,0,0,9.64,0.52,0.8,-0.13,-0.02,0.22,0.1875,-4.8125,0.375,0.2386474609375,0.65924072265625,-0.1883544921875,0.687744140625,-33.6875,-2.25,-13.375,9.77,0.54,0.58,stop,1
7.0,615645.495902369,21,1,0,0,0,9.83,0.45,0.88,0.05,-0.08,0.3,-0.875,-8.625,1.4375,0.23846435546875,0.65966796875,-0.18865966796875,0.68731689453125,-33.6875,-2.25,-13.375,9.77,0.54,0.57,stop,1
7.01,615645.51048501,21,1,0,0,0,9.89,0.51,0.78,0.11,-0.02,0.22,-0.375,-10.625,1.4375,0.23822021484375,0.66021728515625,-0.18896484375,0.686767578125,-33.375,-2.25,-12.25,9.77,0.53,0.55,stop,1
7.02,615645.51048501,21,1,0,0,0,9.97,0.58,0.75,0.19,0.04,0.21,0.25,-10.875,1.125,0.23797607421875,0.66082763671875,-0.189208984375,0.68621826171875,-33.375,-2.25,-12.25,9.77,0.53,0.53,stop,1
7.03,615645.541767888,21,1,0,0,0,9.97,0.6,0.71,0.2,0.07,0.19,1.625,-7.9375,0.25,0.23779296875,0.66131591796875,-0.18927001953125,0.685791015625,-33.375,-2.25,-12.25,9.77,0.53,0.52,stop,1
7.04,615645.541767888,21,1,0,0,0,9.8,0.62,0.64,0.02,0.08,0.12,4.1875,-4.4375,-0.5,0.23748779296875,0.66168212890625,-0.18914794921875,0.68560791015625,-33.375,-2.25,-12.25,9.77,0.53,0.51,stop,1
7.05,615645.555574121,21,1,0,0,0,9.82,0.74,0.64,0.04,0.2,0.13,5.5,-5.6875,-1.75,0.2371826171875,0.66217041015625,-0.1888427734375,0.685302734375,-33.375,-2.25,-12.25,9.77,0.54,0.5,stop,1
7.06,615645.555574121,21,1,0,0,0,9.82,0.73,0.63,0.04,0.19,0.13,2.875,-4.5,-2.4375,0.23712158203125,0.6624755859375,-0.18853759765625,0.68505859375,-32.6875,-2.6875,-12.5625,9.77,0.54,0.5,stop,1
7.08,615645.570264795,21,1,0,0,0,9.78,0.71,0.56,0.0,0.16,0.06,0.125,1.5,-2.625,0.2373046875,0.66241455078125,-0.1883544921875,0.68511962890625,-32.6875,-2.6875,-12.5625,9.77,0.55,0.5,stop,1
7.09,615645.570264795,21,1,0,0,0,9.63,0.76,0.63,-0.14,0.2,0.11,0.9375,4.375,-3.4375,0.23760986328125,0.6622314453125,-0.18792724609375,0.685302734375,-32.6875,-2.6875,-12.5625,9.77,0.55,0.51,stop,1
7.09,615645.600838933,21,1,0,0,0,9.66,0.78,0.73,-0.11,0.21,0.21,0.75,3.5,-3.375,0.23785400390625,0.66204833984375,-0.18756103515625,0.68548583984375,-32.6875,-2.6875,-12.5625,9.77,0.56,0.51,stop,1
7.1,615645.600838933,21,1,0,0,0,9.67,0.73,0.77,-0.09,0.15,0.24,-1.25,3.75,-3.0625,0.23828125,0.66180419921875,-0.18731689453125,0.6856689453125,-32.6875,-2.6875,-12.5625,9.77,0.57,0.52,stop,1
7.11,615645.618982894,21,1,0,0,0,9.59,0.59,0.69,-0.18,0.01,0.16,-2.125,4.625,-2.5625,0.2386474609375,0.6614990234375,-0.1871337890625,0.6859130859375,-33.375,-2.25,-13.0,9.77,0.57,0.53,stop,1
7.12,615645.618982894,21,1,0,0,0,9.58,0.57,0.68,-0.19,0.0,0.14,-1.6875,2.4375,-2.5,0.23895263671875,0.66131591796875,-0.18701171875,0.68597412109375,-33.375,-2.25,-13.0,9.77,0.58,0.54,stop,1
7.13,615645.630398177,21,1,0,0,0,9.57,0.55,0.62,-0.2,-0.03,0.07,-1.5625,-0.375,-2.0625,0.23919677734375,0.66131591796875,-0.18695068359375,0.68597412109375,-33.375,-2.25,-13.0,9.77,0.58,0.54,stop,1
7.14,615645.630398177,21,1,0,0,0,9.6,0.55,0.61,-0.16,-0.03,0.07,-1.3125,-2.375,-1.8125,0.2393798828125,0.66143798828125,-0.18701171875,0.685791015625,-33.375,-2.25,-13.0,9.77,0.59,0.54,stop,1
7.16,615645.660093571,21,1,0,0,0,9.55,0.66,0.66,-0.21,0.07,0.12,-0.0625,-3.5,-1.9375,0.23944091796875,0.66162109375,-0.18695068359375,0.685546875,-33.375,-2.25,-13.0,9.77,0.59,0.53,stop,1
7.17,615645.660093571,21,1,0,0,0,9.61,0.67,0.59,-0.15,0.08,0.06,1.1875,-4.0625,-2.25,0.23944091796875,0.66192626953125,-0.18682861328125,0.685302734375,-33.375,-2.6875,-12.5625,9.77,0.59,0.52,stop,1
7.17,615645.675577255,21,1,0,0,0,9.67,0.7,0.6,-0.1,0.1,0.08,1.3125,-5.1875,-2.1875,0.23944091796875,0.66229248046875,-0.18670654296875,0.68499755859375,-33.375,-2.6875,-12.5625,9.77,0.6,0.52,stop,1
7.18,615645.675577255,21,1,0,0,0,9.72,0.67,0.58,-0.04,0.06,0.07,1.25,-5.625,-2.25,0.23944091796875,0.66265869140625,-0.18658447265625,0.68463134765625,-33.375,-2.6875,-12.5625,9.77,0.6,0.51,stop,1
7.19,615645.690247339,21,1,0,0,0,9.72,0.68,0.69,-0.04,0.07,0.19,2.625,-4.9375,-2.75,0.2393798828125,0.66302490234375,-0.18634033203125,0.68438720703125,-33.375,-2.6875,-12.5625,9.77,0.61,0.5,stop,1
7.2,615645.690247339,21,1,0,0,0,9.72,0.7,0.75,-0.05,0.08,0.25,2.0625,-3.25,-2.9375,0.23944091796875,0.66326904296875,-0.18603515625,0.6842041015625,-33.375,-2.6875,-12.5625,9.77,0.61,0.49,stop,1
7.21,615645.72046552,21,1,0,0,0,9.69,0.67,0.66,-0.07,0.05,0.16,0.125,-2.1875,-3.0,0.2396240234375,0.66339111328125,-0.1859130859375,0.68408203125,-33.0,-1.875,-13.0,9.77,0.62,0.49,stop,1
7.22,615645.72046552,21,1,0,0,0,9.68,0.64,0.58,-0.08,0.01,0.09,-0.3125,-0.8125,-2.8125,0.23980712890625,0.6634521484375,-0.18572998046875,0.6839599609375,-33.0,-1.875,-13.0,9.77,0.62,0.49,stop,1
7.23,615645.73504987,21,1,0,0,0,9.67,0.65,0.64,-0.1,0.01,0.14,-0.3125,0.6875,-2.75,0.239990234375,0.6634521484375,-0.185546875,0.6839599609375,-33.0,-1.875,-13.0,9.77,0.63,0.49,stop,1
7.25,615645.73504987,21,1,0,0,0,9.65,0.63,0.65,-0.11,0.0,0.14,-0.625,1.5625,-2.625,0.240234375,0.663330078125,-0.18536376953125,0.68402099609375,-33.0,-1.875,-13.0,9.77,0.63,0.5,stop,1
7.25,615645.749659449,21,1,0,0,0,9.55,0.62,0.65,-0.21,-0.01,0.14,-0.5625,2.125,-2.25,0.240478515625,0.6632080078125,-0.18524169921875,0.68414306640625,-33.0,-1.875,-13.0,9.77,0.64,0.5,stop,1
7.26,615645.749659449,21,1,0,0,0,9.57,0.64,0.69,-0.19,0.0,0.18,0.0,1.9375,-1.9375,0.2406005859375,0.6630859375,-0.18505859375,0.68426513671875,-33.375,-2.25,-13.375,9.77,0.64,0.51,stop,1
7.27,615645.780224187,21,1,0,0,0,9.6,0.65,0.69,-0.16,0.0,0.18,-0.1875,0.6875,-1.625,0.24072265625,0.66302490234375,-0.1849365234375,0.684326171875,-33.375,-2.25,-13.375,9.77,0.64,0.51,stop,1
7.28,615645.780224187,21,1,0,0,0,9.66,0.65,0.71,-0.1,0.0,0.19,-0.4375,-1.0625,-1.0,0.24078369140625,0.66302490234375,-0.18487548828125,0.68426513671875,-33.375,-2.25,-13.375,9.77,0.65,0.51,stop,1
7.29,615645.795815251,21,1,0,0,0,9.72,0.7,0.77,-0.04,0.05,0.25,-0.6875,-2.75,-0.4375,0.2408447265625,0.66314697265625,-0.1849365234375,0.68414306640625,-33.375,-2.25,-13.375,9.77,0.65,0.51,stop,1
7.3,615645.795815251,21,1,0,0,0,9.69,0.69,0.72,-0.07,0.04,0.21,-0.625,-2.9375,-0.25,0.2408447265625,0.6632080078125,-0.18499755859375,0.68402099609375,-33.375,-2.25,-13.375,9.77,0.65,0.5,stop,1
7.31,615645.809803899,21,1,0,0,0,9.66,0.68,0.58,-0.1,0.03,0.07,0.0,-2.75,-0.4375,0.2408447265625,0.663330078125,-0.18505859375,0.68389892578125,-32.6875,-2.6875,-14.1875,9.77,0.65,0.5,stop,1
7.33,615645.809803899,21,1,0,0,0,9.6,0.66,0.56,-0.16,0.0,0.05,1.0625,-2.125,-0.5,0.24078369140625,0.6634521484375,-0.18499755859375,0.683837890625,-32.6875,-2.6875,-14.1875,9.77,0.65,0.5,stop,1
7.34,615645.840102686,21,1,0,0,0,9.6,0.66,0.56,-0.17,0.0,0.06,1.125,-2.375,-0.5,0.24066162109375,0.66363525390625,-0.18499755859375,0.6837158203125,-32.6875,-2.6875,-14.1875,9.77,0.65,0.49,stop,1
7.34,615645.840102686,21,1,0,0,0,9.63,0.64,0.61,-0.13,-0.01,0.11,0.3125,-2.5,-0.1875,0.24066162109375,0.66375732421875,-0.18499755859375,0.68359375,-32.6875,-2.6875,-14.1875,9.77,0.65,0.49,stop,1
7.35,615645.855167831,21,1,0,0,0,9.66,0.67,0.61,-0.1,0.01,0.12,-0.0625,-2.0625,0.0,0.2406005859375,0.66387939453125,-0.18505859375,0.6834716796875,-32.6875,-2.6875,-14.1875,9.77,0.65,0.49,stop,1
7.36,615645.855167831,21,1,0,0,0,9.7,0.7,0.63,-0.07,0.05,0.14,-0.1875,-1.0625,0.0,0.2406005859375,0.66387939453125,-0.18505859375,0.6834716796875,-33.0,-3.0,-12.5625,9.77,0.65,0.49,stop,1
7.37,615645.869990951,21,1,0,0,0,9.71,0.74,0.69,-0.06,0.08,0.2,-0.5625,0.0,0.0,0.24066162109375,0.663818359375,-0.18505859375,0.6834716796875,-33.0,-3.0,-12.5625,9.77,0.65,0.49,stop,1
7.38,615645.869990951,21,1,0,0,0,9.69,0.73,0.68,-0.07,0.07,0.19,-1.375,0.375,0.0625,0.24078369140625,0.66375732421875,-0.18511962890625,0.6834716796875,-33.0,-3.0,-12.5625,9.77,0.65,0.49,stop,1
7.39,615645.901723495,21,1,0,0,0,9.69,0.65,0.63,-0.08,0.0,0.13,-0.6875,-0.6875,0.1875,0.2408447265625,0.66375732421875,-0.1851806640625,0.6834716796875,-33.0,-3.0,-12.5625,9.77,0.65,0.49,stop,1
7.41,615645.901723495,21,1,0,0,0,9.63,0.6,0.56,-0.13,-0.04,0.07,2.0,-0.3125,-0.6875,0.24078369140625,0.66375732421875,-0.18499755859375,0.68353271484375,-33.0,-3.0,-12.5625,9.77,0.65,0.49,stop,1
7.42,615645.915252548,21,1,0,0,0,9.62,0.61,0.55,-0.14,-0.03,0.05,3.1875,-0.75,-0.75,0.24066162109375,0.66387939453125,-0.18475341796875,0.68353271484375,-32.6875,-1.5625,-13.0,9.77,0.65,0.49,stop,1
7.42,615645.915252548,21,1,0,0,0,9.64,0.68,0.62,-0.12,0.03,0.12,3.5,-0.4375,-0.9375,0.24053955078125,0.6639404296875,-0.1844482421875,0.68359375,-32.6875,-1.5625,-13.0,9.77,0.65,0.49,stop,1
7.43,615645.930127141,21,1,0,0,0,9.75,0.59,0.58,-0.01,-0.06,0.09,1.3125,-1.4375,0.3125,0.24041748046875,0.6640625,-0.1844482421875,0.68353271484375,-32.6875,-1.5625,-13.0,9.77,0.65,0.49,stop,1
7.44,615645.930127141,21,1,0,0,0,9.8,0.54,0.59,0.03,-0.11,0.11,0.0,-3.5,1.25,0.24029541015625,0.66424560546875,-0.1845703125,0.683349609375,-32.6875,-1.5625,-13.0,9.77,0.65,0.48,stop,1
7.45,615645.944358383,21,1,0,0,0,9.83,0.63,0.69,0.05,-0.01,0.21,2.3125,-3.75,0.6875,0.24005126953125,0.6644287109375,-0.1845703125,0.6832275390625,-32.6875,-1.5625,-13.0,9.77,0.65,0.47,stop,1
7.47,615645.944358383,21,1,0,0,0,9.8,0.69,0.67,0.02,0.03,0.19,2.75,-1.9375,0.1875,0.2398681640625,0.66455078125,-0.18438720703125,0.6832275390625,-33.0,-2.25,-13.0,9.77,0.65,0.47,stop,1
7.48,615645.975484197,21,1,0,0,0,9.68,0.72,0.57,-0.09,0.07,0.1,3.125,-1.8125,0.0,0.23968505859375,0.66473388671875,-0.18426513671875,0.68316650390625,-33.0,-2.25,-13.0,9.77,0.65,0.47,stop,1
7.49,615645.975484197,21,1,0,0,0,9.61,0.75,0.59,-0.15,0.09,0.12,3.9375,-1.0,-0.125,0.23944091796875,0.66485595703125,-0.18402099609375,0.6832275390625,-33.0,-2.25,-13.0,9.77,0.65,0.47,stop,1
7.5,615645.989679712,21,1,0,0,0,9.53,0.7,0.6,-0.23,0.05,0.13,3.5,0.25,0.125,0.2392578125,0.66485595703125,-0.18377685546875,0.68328857421875,-33.0,-2.25,-13.0,9.77,0.65,0.47,stop,1
7.5,615645.989679712,21,1,0,0,0,9.51,0.67,0.62,-0.25,0.02,0.15,3.6875,-0.125,0.125,0.23907470703125,0.6649169921875,-0.18353271484375,0.68341064453125,-33.0,-2.25,-13.0,9.77,0.65,0.47,stop,1
7.51,615646.020588607,21,1,0,0,0,9.56,0.71,0.59,-0.21,0.05,0.12,4.5,-0.625,0.0,0.23883056640625,0.6650390625,-0.1832275390625,0.6834716796875,-33.0,-1.1875,-13.0,9.77,0.65,0.47,stop,1
7.52,615646.020588607,21,1,0,0,0,9.58,0.74,0.56,-0.18,0.08,0.08,4.625,0.3125,0.125,0.23858642578125,0.66510009765625,-0.18292236328125,0.68353271484375,-33.0,-1.1875,-13.0,9.77,0.65,0.47,stop,1
7.53,615646.034509547,21,1,0,0,0,9.57,0.8,0.5,-0.19,0.14,0.02,4.4375,0.8125,0.125,0.23834228515625,0.6651611328125,-0.1826171875,0.68365478515625,-33.0,-1.1875,-13.0,9.77,0.66,0.47,stop,1
7.54,615646.034509547,21,1,0,0,0,9.62,0.81,0.42,-0.14,0.15,-0.04,3.625,0.0,0.5625,0.2381591796875,0.66522216796875,-0.18243408203125,0.68377685546875,-33.0,-1.1875,-13.0,9.77,0.66,0.47,stop,1
7.55,615646.053053085,21,1,0,0,0,9.65,0.8,0.43,-0.11,0.14,-0.03,3.125,-0.5625,0.375,0.23797607421875,0.665283203125,-0.18218994140625,0.68377685546875,-33.0,-1.1875,-13.0,9.77,0.66,0.47,stop,1
7.57,615646.053053085,21,1,0,0,0,9.68,0.77,0.46,-0.08,0.11,0.0,2.5625,-0.8125,0.4375,0.23785400390625,0.6654052734375,-0.18206787109375,0.68377685546875,-33.375,-3.0,-12.25,9.77,0.66,0.47,stop,1
7.58,615646.080151555,21,1,0,0,0,9.69,0.75,0.48,-0.08,0.09,0.01,1.8125,-1.3125,0.5625,0.2376708984375,0.66552734375,-0.1820068359375,0.6837158203125,-33.375,-3.0,-12.25,9.77,0.66,0.47,stop,1
7.59,615646.080151555,21,1,0,0,0,9.68,0.72,0.55,-0.09,0.06,0.08,1.625,-1.8125,0.5,0.23760986328125,0.6656494140625,-0.181884765625,0.68365478515625,-33.375,-3.0,-12.25,9.77,0.66,0.46,stop,1
7.59,615646.094859888,21,1,0,0,0,9.64,0.72,0.66,-0.12,0.06,0.19,2.0625,-1.25,0.1875,0.23748779296875,0.665771484375,-0.18182373046875,0.68359375,-33.375,-3.0,-12.25,9.77,0.66,0.46,stop,1
7.6,615646.094859888,21,1,0,0,0,9.58,0.74,0.68,-0.18,0.08,0.21,2.0625,-0.0625,0.0,0.23736572265625,0.665771484375,-0.181640625,0.68365478515625,-33.375,-3.0,-12.25,9.77,0.66,0.46,stop,1
7.61,615646.109709905,21,1,0,0,0,9.61,0.64,0.57,-0.16,-0.02,0.11,1.1875,-0.8125,0.4375,0.2373046875,0.66583251953125,-0.18157958984375,0.68365478515625,-33.375,-3.0,-11.375,9.77,0.66,0.46,stop,1
7.62,615646.109709905,21,1,0,0,0,9.68,0.65,0.54,-0.09,0.0,0.07,0.875,-2.4375,1.0625,0.2371826171875,0.66595458984375,-0.18157958984375,0.68359375,-33.375,-3.0,-11.375,9.77,0.66,0.46,stop,1
7.63,615646.141741358,21,1,0,0,0,9.68,0.68,0.55,-0.09,0.02,0.09,2.0625,-1.8125,1.125,0.23699951171875,0.666015625,-0.18157958984375,0.68359375,-33.375,-3.0,-11.375,9.77,0.66,0.45,stop,1
7.64,615646.141741358,21,1,0,0,0,9.67,0.7,0.59,-0.1,0.04,0.13,1.5625,-0.1875,1.1875,0.23681640625,0.666015625,-0.1815185546875,0.68365478515625,-33.375,-3.0,-11.375,9.77,0.65,0.45,stop,1
7.66,615646.155682764,21,1,0,0,0,9.71,0.65,0.53,-0.06,0.0,0.07,1.0625,-0.75,1.25,0.2366943359375,0.66607666015625,-0.18157958984375,0.68365478515625,-33.375,-3.0,-11.375,9.77,0.65,0.45,stop,1
7.67,615646.155682764,21,1,0,0,0,9.74,0.67,0.55,-0.02,0.01,0.09,0.875,-1.0625,1.0625,0.236572265625,0.6661376953125,-0.18157958984375,0.68365478515625,-33.6875,-2.25,-12.5625,9.77,0.65,0.45,stop,1
7.67,615646.171597356,21,1,0,0,0,9.72,0.67,0.6,-0.04,0.02,0.14,0.625,0.0625,1.0625,0.2364501953125,0.66607666015625,-0.18157958984375,0.6837158203125,-33.6875,-2.25,-12.5625,9.77,0.65,0.45,stop,1
7.68,615646.171597356,21,1,0,0,0,9.69,0.69,0.56,-0.08,0.04,0.1,1.0625,0.625,0.9375,0.23638916015625,0.666015625,-0.1815185546875,0.68377685546875,-33.6875,-2.25,-12.5625,9.77,0.65,0.45,stop,1
7.69,615646.185048446,21,1,0,0,0,9.66,0.71,0.54,-0.11,0.06,0.08,2.125,0.3125,0.625,0.2362060546875,0.66607666015625,-0.18145751953125,0.683837890625,-33.6875,-2.25,-12.5625,9.77,0.65,0.45,stop,1
7.7,615646.185048446,21,1,0,0,0,9.61,0.7,0.51,-0.15,0.05,0.05,2.625,0.25,0.4375,0.236083984375,0.66607666015625,-0.1812744140625,0.68389892578125,-33.6875,-2.25,-12.5625,9.77,0.65,0.46,stop,1
7.71,615646.214672958,21,1,0,0,0,9.58,0.7,0.46,-0.18,0.05,0.0,2.9375,0.75,0.1875,0.23590087890625,0.66607666015625,-0.18109130859375,0.68402099609375,-33.375,-1.875,-12.5625,9.77,0.65,0.46,stop,1
7.72,615646.214672958,21,1,0,0,0,9.6,0.7,0.46,-0.16,0.05,0.0,2.9375,0.0,0.3125,0.23577880859375,0.6661376953125,-0.180908203125,0.68408203125,-33.375,-1.875,-12.5625,9.77,0.65,0.46,stop,1
7.74,615646.230929143,21,1,0,0,0,9.63,0.71,0.51,-0.13,0.05,0.05,2.1875,-0.8125,0.5,0.23565673828125,0.666259765625,-0.1807861328125,0.68402099609375,-33.375,-1.875,-12.5625,9.77,0.65,0.45,stop,1
7.75,615646.230929143,21,1,0,0,0,9.64,0.7,0.53,-0.13,0.05,0.07,1.4375,-0.5625,0.625,0.2354736328125,0.66632080078125,-0.18072509765625,0.68408203125,-33.375,-1.875,-12.5625,9.77,0.65,0.45,stop,1
7.75,615646.24664712,21,1,0,0,0,9.66,0.69,0.46,-0.11,0.04,0.0,1.125,-0.3125,0.6875,0.23541259765625,0.66632080078125,-0.1806640625,0.68408203125,-33.375,-1.875,-12.5625,9.77,0.65,0.45,stop,1
7.76,615646.24664712,21,1,0,0,0,9.72,0.69,0.47,-0.04,0.04,0.01,0.75,-0.375,0.5625,0.2353515625,0.66632080078125,-0.1806640625,0.68414306640625,-33.0,-2.25,-13.375,9.77,0.65,0.45,stop,1
7.77,615646.275374252,21,1,0,0,0,9.74,0.73,0.55,-0.02,0.08,0.09,0.8125,0.125,0.5625,0.2352294921875,0.66632080078125,-0.1806640625,0.68414306640625,-33.0,-2.25,-13.375,9.77,0.65,0.45,stop,1
7.78,615646.275374252,21,1,0,0,0,9.76,0.73,0.52,0.0,0.08,0.06,0.5,0.5625,0.5625,0.2352294921875,0.666259765625,-0.1806640625,0.6842041015625,-33.0,-2.25,-13.375,9.77,0.64,0.46,stop,1
7.79,615646.290976791,21,1,0,0,0,9.77,0.71,0.56,0.0,0.06,0.1,0.4375,0.8125,0.25,0.23529052734375,0.66619873046875,-0.18060302734375,0.68426513671875,-33.0,-2.25,-13.375,9.77,0.64,0.46,stop,1
7.8,615646.290976791,21,1,0,0,0,9.76,0.7,0.58,-0.01,0.05,0.11,0.8125,1.5,0.0,0.2352294921875,0.66607666015625,-0.1805419921875,0.68438720703125,-33.0,-2.25,-13.375,9.77,0.65,0.46,stop,1
7.82,615646.305097559,21,1,0,0,0,9.73,0.71,0.62,-0.03,0.06,0.15,0.1875,2.125,-0.0625,0.23529052734375,0.66595458984375,-0.18048095703125,0.68450927734375,-33.0,-3.6875,-12.25,9.77,0.65,0.46,stop,1
7.83,615646.305097559,21,1,0,0,0,9.75,0.73,0.73,-0.01,0.08,0.26,-0.5625,2.9375,-0.0625,0.23541259765625,0.66571044921875,-0.180419921875,0.68475341796875,-33.0,-3.6875,-12.25,9.77,0.65,0.47,stop,1
7.84,615646.336740504,21,1,0,0,0,9.69,0.67,0.66,-0.08,0.01,0.18,-2.5625,3.4375,0.0,0.23565673828125,0.6654052734375,-0.180419921875,0.6849365234375,-33.0,-3.6875,-12.25,9.77,0.65,0.48,stop,1
7.84,615646.336740504,21,1,0,0,0,9.62,0.58,0.48,-0.14,-0.06,0.0,-3.25,2.3125,0.3125,0.23590087890625,0.6651611328125,-0.18060302734375,0.68505859375,-33.0,-3.6875,-12.25,9.77,0.65,0.48,stop,1
7.85,615646.35027863,21,1,0,0,0,9.58,0.56,0.36,-0.18,-0.09,-0.12,-0.0625,2.875,-0.75,0.2359619140625,0.6650390625,-0.18048095703125,0.6851806640625,-33.0,-3.6875,-12.25,9.77,0.65,0.49,stop,1
7.86,615646.35027863,21,1,0,0,0,9.55,0.7,0.51,-0.21,0.04,0.01,2.5625,3.3125,-1.25,0.2359619140625,0.6649169921875,-0.18017578125,0.6854248046875,-32.6875,-3.25,-12.5625,9.77,0.65,0.49,stop,1
7.87,615646.381917099,21,1,0,0,0,9.61,0.78,0.68,-0.15,0.12,0.18,2.0,3.875,-1.125,0.23602294921875,0.66473388671875,-0.17987060546875,0.6856689453125,-32.6875,-3.25,-12.5625,9.77,0.65,0.5,stop,1
7.89,615646.381917099,21,1,0,0,0,9.7,0.73,0.69,-0.06,0.07,0.18,-1.625,2.6875,0.3125,0.23614501953125,0.66448974609375,-0.179931640625,0.685791015625,-32.6875,-3.25,-12.5625,9.77,0.65,0.51,stop,1
7.9,615646.394679509,21,1,0,0,0,9.69,0.68,0.63,-0.07,0.03,0.11,-3.875,1.5625,1.125,0.23638916015625,0.66424560546875,-0.18017578125,0.68585205078125,-32.6875,-3.25,-12.5625,9.77,0.65,0.51,stop,1
7.91,615646.394679509,21,1,0,0,0,9.73,0.69,0.76,-0.03,0.04,0.24,-2.4375,2.0,0.375,0.236572265625,0.6640625,-0.18023681640625,0.68597412109375,-32.6875,-3.25,-12.5625,9.77,0.65,0.52,stop,1
7.92,615646.4186094,21,1,0,0,0,9.71,0.71,0.78,-0.05,0.06,0.25,-2.0625,2.75,0.0,0.23675537109375,0.66375732421875,-0.1802978515625,0.6861572265625,-33.0,-2.6875,-13.0,9.77,0.65,0.52,stop,1
7.92,615646.4186094,21,1,0,0,0,9.77,0.7,0.75,0.0,0.05,0.22,-3.0,1.9375,0.1875,0.23699951171875,0.66351318359375,-0.18035888671875,0.686279296875,-33.0,-2.6875,-13.0,9.77,0.65,0.53,stop,1
7.93,615646.440167424,21,1,0,0,0,9.77,0.66,0.63,0.0,0.0,0.09,-2.625,1.9375,0.1875,0.23724365234375,0.663330078125,-0.18048095703125,0.6864013671875,-33.0,-2.6875,-13.0,9.76,0.65,0.53,stop,1
7.94,615646.440167424,21,1,0,0,0,9.73,0.62,0.64,-0.03,-0.02,0.09,-1.5,3.8125,0.0,0.23736572265625,0.66302490234375,-0.18048095703125,0.6866455078125,-33.0,-2.6875,-13.0,9.76,0.65,0.54,stop,1
7.95,615646.455054753,21,1,0,0,0,9.71,0.65,0.73,-0.05,0.0,0.17,-0.4375,4.8125,-0.0625,0.23748779296875,0.6627197265625,-0.18035888671875,0.68695068359375,-33.0,-2.6875,-13.0,9.76,0.65,0.55,stop,1
7.97,615646.455054753,21,1,0,0,0,9.66,0.64,0.76,-0.1,-0.01,0.2,0.125,4.375,-0.25,0.237548828125,0.66241455078125,-0.1802978515625,0.68719482421875,-32.0,-2.6875,-11.875,9.76,0.65,0.56,stop,1
7.98,615646.470708888,21,1,0,0,0,9.69,0.6,0.73,-0.07,-0.05,0.16,0.0,4.3125,-0.375,0.23760986328125,0.662109375,-0.18017578125,0.6875,-32.0,-2.6875,-11.875,9.76,0.65,0.57,stop,1
7.99,615646.470708888,21,1,0,0,0,9.76,0.57,0.63,0.0,-0.08,0.05,-0.5625,4.5625,0.0,0.23773193359375,0.66180419921875,-0.18011474609375,0.68780517578125,-32.0,-2.6875,-11.875,9.76,0.65,0.57,stop,1
8.0,615646.484859563,21,1,0,0,0,10.09,0.59,0.54,0.33,-0.06,-0.04,-1.9375,1.25,1.0,0.23779296875,0.66168212890625,-0.18023681640625,0.6878662109375,-32.0,-2.6875,-11.875,9.76,0.65,0.58,stop,1
8.0,615646.484859563,21,1,0,0,0,10.09,0.59,0.54,0.33,-0.06,-0.04,-1.9375,1.25,1.0,0.23779296875,0.66168212890625,-0.18023681640625,0.6878662109375,-32.0,-2.6875,-11.875,9.76,0.65,0.58,stop,1
8.01,615646.500315414,21,1,0,0,0,10.52,0.65,0.47,0.75,0.0,-0.1,-2.4375,-3.0625,2.625,0.23773193359375,0.6617431640625,-0.18060302734375,0.68768310546875,-32.0,-2.6875,-11.875,9.76,0.64,0.57,stop,1
8.01,615646.500315414,21,1,0,0,0,11.26,0.87,0.52,1.49,0.23,-0.04,-1.9375,-4.375,3.5,0.237548828125,0.66192626953125,-0.1810302734375,0.6875,-33.0,-3.6875,-13.0,9.76,0.64,0.57,stop,1
8.02,615646.529994003,21,1,0,0,0,11.54,0.89,0.43,1.78,0.25,-0.12,-1.5625,-2.8125,3.75,0.2374267578125,0.6619873046875,-0.181396484375,0.6873779296875,-33.0,-3.6875,-13.0,9.76,0.63,0.56,stop,1
8.03,615646.529994003,21,1,0,0,0,11.7,0.91,0.36,1.93,0.28,-0.19,-1.5,-2.8125,3.5,0.23724365234375,0.662109375,-0.1817626953125,0.687255859375,-33.0,-3.6875,-13.0,9.77,0.63,0.56,stop,1
8.04,615646.544539006,21,1,0,0,0,11.6,0.88,0.46,1.83,0.25,-0.09,-0.125,-1.1875,2.6875,0.237060546875,0.662109375,-0.18194580078125,0.687255859375,-33.0,-3.6875,-13.0,9.77,0.62,0.55,stop,1
8.06,615646.544539006,21,1,0,0,0,11.5,0.81,0.43,1.73,0.18,-0.13,2.4375,3.9375,0.8125,0.2369384765625,0.66192626953125,-0.1817626953125,0.68756103515625,-33.0,-3.6875,-13.0,9.77,0.62,0.56,stop,1
8.07,615646.559761622,21,1,0,0,0,11.42,0.75,0.4,1.65,0.13,-0.16,3.1875,4.8125,0.5625,0.23675537109375,0.66168212890625,-0.1815185546875,0.6878662109375,-33.375,-2.6875,-12.25,9.76,0.62,0.57,stop,1
8.08,615646.559761622,21,1,0,0,0,11.33,0.67,0.5,1.56,0.04,-0.07,2.625,2.4375,0.9375,0.23663330078125,0.66156005859375,-0.18133544921875,0.6881103515625,-33.375,-2.6875,-12.25,9.76,0.62,0.57,stop,1
8.09,615646.590358383,21,1,0,0,0,10.86,0.72,0.68,1.09,0.1,0.1,4.0625,3.375,0.875,0.23638916015625,0.66143798828125,-0.18109130859375,0.6883544921875,-33.375,-2.6875,-12.25,9.76,0.62,0.58,stop,1
8.09,615646.590358383,21,1,0,0,0,10.49,0.69,0.6,0.72,0.07,0.01,5.5625,6.375,0.6875,0.236083984375,0.6611328125,-0.1806640625,0.6888427734375,-33.375,-2.6875,-12.25,9.76,0.62,0.59,stop,1
8.1,615646.606662501,21,1,0,0,0,10.13,0.68,0.56,0.36,0.06,-0.03,6.8125,7.5,0.125,0.23583984375,0.66082763671875,-0.1800537109375,0.68939208984375,-33.375,-2.6875,-12.25,9.76,0.62,0.6,stop,1
8.11,615646.606662501,21,1,0,0,0,9.29,0.73,0.61,-0.47,0.1,0.0,9.5,9.125,-0.4375,0.23541259765625,0.66046142578125,-0.1793212890625,0.6900634765625,-34.0625,-1.1875,-12.5625,9.76,0.62,0.62,stop,1
8.12,615646.623679428,21,1,0,0,0,8.82,0.72,0.56,-0.94,0.09,-0.07,13.625,13.5625,-2.0,0.2349853515625,0.65997314453125,-0.1781005859375,0.6910400390625,-34.0625,-1.1875,-12.5625,9.76,0.62,0.64,stop,1
8.13,615646.623679428,21,1,0,0,0,8.3,0.76,0.44,-1.45,0.12,-0.22,17.6875,17.4375,-3.125,0.23443603515625,0.6593017578125,-0.17645263671875,0.6922607421875,-34.0625,-1.1875,-12.5625,9.76,0.63,0.66,stop,1
8.15,615646.650585719,21,1,0,0,0,7.83,0.72,0.32,-1.92,0.07,-0.37,20.625,18.8125,-3.8125,0.2337646484375,0.65863037109375,-0.17462158203125,0.69354248046875,-34.0625,-1.1875,-12.5625,9.76,0.64,0.69,stop,1
8.16,615646.650585719,21,1,0,0,0,7.01,0.63,0.09,-2.74,-0.01,-0.63,22.375,20.625,-3.8125,0.2330322265625,0.65789794921875,-0.172607421875,0.69500732421875,-34.0625,-1.1875,-12.5625,9.75,0.65,0.73,stop,1
8.17,615646.664877752,21,1,0,0,0,6.75,0.58,0.11,-3.0,-0.07,-0.64,23.1875,21.375,-3.4375,0.23223876953125,0.65716552734375,-0.17059326171875,0.696533203125,-33.0,-2.6875,-13.375,9.75,0.66,0.76,stop,1
8.17,615646.664877752,21,1,0,0,0,6.59,0.56,0.24,-3.15,-0.11,-0.55,22.9375,20.9375,-3.1875,0.2314453125,0.6563720703125,-0.1685791015625,0.697998046875,-33.0,-2.6875,-13.375,9.75,0.67,0.79,stop,1
8.18,615646.681110011,21,1,0,0,0,6.47,0.58,0.28,-3.27,-0.09,-0.54,22.375,20.4375,-3.25,0.23065185546875,0.6556396484375,-0.1666259765625,0.69940185546875,-33.0,-2.6875,-13.375,9.74,0.68,0.83,stop,1
8.19,615646.681110011,21,1,0,0,0,6.46,0.73,0.92,-3.27,0.04,0.06,20.375,20.125,-3.25,0.22998046875,0.65484619140625,-0.16473388671875,0.7008056640625,-33.0,-2.6875,-13.375,9.74,0.68,0.86,stop,1
8.2,615646.712118515,21,1,0,0,0,6.51,0.77,1.31,-3.22,0.08,0.42,13.625,17.375,-2.3125,0.22955322265625,0.65411376953125,-0.1634521484375,0.70196533203125,-33.0,-2.6875,-13.375,9.74,0.69,0.89,stop,1
8.21,615646.712118515,21,1,0,0,0,6.42,0.75,1.72,-3.31,0.06,0.81,2.375,11.375,0.125,0.2296142578125,0.6534423828125,-0.1630859375,0.70263671875,-32.6875,-3.0,-13.375,9.73,0.69,0.91,stop,1
8.22,615646.724741806,21,1,0,0,0,6.22,0.72,1.97,-3.51,0.03,1.05,-8.5,6.1875,1.375,0.2301025390625,0.65289306640625,-0.16351318359375,0.702880859375,-32.6875,-3.0,-13.375,9.73,0.69,0.92,stop,1
8.24,615646.724741806,21,1,0,0,0,6.33,0.66,1.7,-3.4,-0.02,0.78,-16.6875,1.625,1.75,0.23095703125,0.65240478515625,-0.16461181640625,0.7027587890625,-32.6875,-3.0,-13.375,9.73,0.68,0.92,moving,1
8.25,615646.74055276,21,1,0,0,0,6.9,0.43,1.27,-2.84,-0.24,0.35,-25.0625,-7.625,2.8125,0.23211669921875,0.65234375,-0.16650390625,0.7020263671875,-32.6875,-3.0,-13.375,9.74,0.67,0.91,moving,1
8.25,615646.74055276,21,1,0,0,0,7.8,0.09,0.55,-1.93,-0.56,-0.33,-32.6875,-20.6875,5.125,0.2333984375,0.65283203125,-0.169189453125,0.70050048828125,-32.6875,-3.0,-13.375,9.74,0.66,0.88,moving,1
8.26,615646.771104843,21,1,0,0,0,10.97,-0.52,-0.93,1.22,-1.16,-1.76,-38.4375,-35.0,9.75,0.23443603515625,0.654052734375,-0.17279052734375,0.6981201171875,-32.0,-2.6875,-12.5625,9.75,0.64,0.83,moving,1
8.27,615646.771104843,21,1,0,0,0,12.74,-0.53,-1.15,2.98,-1.14,-1.91,-41.8125,-49.0625,17.0625,0.23504638671875,0.65594482421875,-0.17730712890625,0.69500732421875,-32.0,-2.6875,-12.5625,9.75,0.6,0.75,moving,1
8.28,615646.776693751,21,1,0,0,0,12.74,-0.53,-1.15,2.98,-1.14,-1.91,-41.8125,-49.0625,17.0625,0.23504638671875,0.65594482421875,-0.17730712890625,0.69500732421875,-32.0,-2.6875,-12.5625,9.75,0.6,0.75,moving,1
8.29,615646.776693751,21,1,0,0,0,14.37,-0.15,-0.77,4.6,-0.71,-1.43,-41.125,-55.75,22.6875,0.23516845703125,0.6580810546875,-0.1822509765625,0.691650390625,-32.0,-2.6875,-12.5625,9.76,0.56,0.66,moving,1
8.29,615646.800640447,21,1,0,0,0,15.58,1.12,0.4,5.81,0.6,-0.19,-26.5625,-38.125,22.3125,0.2347412109375,0.65948486328125,-0.1859130859375,0.68951416015625,-32.0,-2.6875,-12.5625,9.77,0.52,0.59,moving,1
8.31,615646.800640447,21,1,0,0,0,15.84,1.34,-0.5,6.06,0.84,-1.07,-14.375,-17.375,15.375,0.234375,0.65997314453125,-0.18804931640625,0.6885986328125,-32.0,-2.6875,-12.5625,9.77,0.49,0.57,moving,1
8.32,615646.816181585,21,1,0,0,0,16.51,1.65,-0.9,6.73,1.17,-1.45,-10.5625,-14.125,11.4375,0.2340087890625,0.66046142578125,-0.18963623046875,0.68780517578125,-32.6875,-2.25,-13.75,9.77,0.47,0.54,moving,1
8.33,615646.816181585,21,1,0,0,0,16.37,1.01,-0.88,6.58,0.54,-1.38,9.8125,-26.1875,4.5,0.2327880859375,0.662109375,-0.1898193359375,0.68658447265625,-32.6875,-2.25,-13.75,9.78,0.46,0.5,moving,1
8.34,615646.830350652,21,1,0,0,0,14.54,0.93,0.77,4.75,0.46,0.29,21.375,-13.3125,0.0625,0.2313232421875,0.66339111328125,-0.1888427734375,0.6861572265625,-32.6875,-2.25,-13.75,9.78,0.46,0.47,moving,1
8.34,615646.830350652,21,1,0,0,0,13.11,1.17,1.38,3.33,0.7,0.86,23.1875,25.5,-2.1875,0.23052978515625,0.662353515625,-0.186767578125,0.68792724609375,-32.6875,-2.25,-13.75,9.78,0.47,0.51,moving,1
8.35,615646.860238144,21,1,0,0,0,11.78,1.28,1.55,2.0,0.79,0.96,29.5625,44.3125,-6.9375,0.22991943359375,0.660400390625,-0.1837158203125,0.69085693359375,-32.6875,-2.25,-13.75,9.77,0.48,0.59,moving,1
8.36,615646.860238144,21,1,0,0,0,8.66,1.15,0.8,-1.1,0.63,0.14,47.5625,42.6875,-14.8125,0.228759765625,0.65899658203125,-0.17913818359375,0.6937255859375,-33.6875,-2.25,-12.5625,9.77,0.51,0.65,moving,1
8.37,615646.874699244,21,1,0,0,0,7.13,0.98,0.32,-2.62,0.41,-0.39,61.6875,37.5625,-20.25,0.22705078125,0.65826416015625,-0.1734619140625,0.69647216796875,-33.6875,-2.25,-12.5625,9.76,0.56,0.71,moving,1
8.39,615646.874699244,21,1,0,0,0,6.08,0.75,0.12,-3.67,0.15,-0.63,52.3125,30.6875,-18.0625,0.2255859375,0.65771484375,-0.16864013671875,0.6986083984375,-33.6875,-2.25,-12.5625,9.75,0.59,0.76,moving,1
8.4,615646.889804021,21,1,0,0,0,5.36,0.55,0.07,-4.38,-0.07,-0.73,28.8125,24.0625,-13.3125,0.22509765625,0.656982421875,-0.1656494140625,0.7001953125,-33.6875,-2.25,-12.5625,9.75,0.62,0.8,moving,1
8.41,615646.889804021,21,1,0,0,0,4.76,0.18,0.45,-4.98,-0.46,-0.38,13.6875,20.3125,-11.3125,0.225341796875,0.65618896484375,-0.16375732421875,0.7012939453125,-33.6875,-2.25,-12.5625,9.74,0.64,0.83,moving,1
8.42,615646.921065903,21,1,0,0,0,4.73,0.15,0.77,-5.01,-0.51,-0.08,11.75,18.4375,-12.5625,0.22564697265625,0.65545654296875,-0.16192626953125,0.7022705078125,-33.0,-3.25,-13.0,9.74,0.67,0.86,moving,1
8.42,615646.921065903,21,1,0,0,0,4.8,0.23,1.19,-4.93,-0.46,0.29,12.6875,20.4375,-13.625,0.22607421875,0.6546630859375,-0.15997314453125,0.703369140625,-33.0,-3.25,-13.0,9.74,0.69,0.89,moving,1
8.43,615646.936247136,21,1,0,0,0,4.84,0.27,1.36,-4.89,-0.44,0.42,9.3125,24.625,-12.25,0.22662353515625,0.65350341796875,-0.158203125,0.70465087890625,-33.0,-3.25,-13.0,9.73,0.71,0.93,moving,1
8.44,615646.936247136,21,1,0,0,0,5.07,0.41,1.42,-4.65,-0.31,0.44,-0.75,23.0,-7.8125,0.22747802734375,0.65216064453125,-0.1573486328125,0.705810546875,-33.0,-3.25,-13.0,9.73,0.73,0.97,moving,1
8.45,615646.951449,21,1,0,0,0,5.08,0.39,1.44,-4.64,-0.33,0.44,-13.6875,14.0625,-1.1875,0.228515625,0.65106201171875,-0.1578369140625,0.70635986328125,-33.0,-3.25,-13.0,9.72,0.73,1.0,moving,1
8.47,615646.951449,21,1,0,0,0,5.0,0.23,1.55,-4.72,-0.48,0.53,-25.25,7.125,3.375,0.2298583984375,0.65008544921875,-0.15948486328125,0.70648193359375,-33.375,-3.6875,-13.75,9.72,0.72,1.01,moving,1
8.48,615646.965946884,21,1,0,0,0,4.47,0.03,1.61,-5.25,-0.66,0.57,-30.75,12.375,5.125,0.2314453125,0.64862060546875,-0.161376953125,0.70684814453125,-33.375,-3.6875,-13.75,9.72,0.7,1.04,moving,1
8.49,615646.965946884,21,1,0,0,0,4.53,0.01,1.47,-5.18,-0.67,0.39,-29.375,20.9375,4.3125,0.233154296875,0.64666748046875,-0.16302490234375,0.707763671875,-33.375,-3.6875,-13.75,9.72,0.69,1.08,moving,1
8.5,615646.995791163,21,1,0,0,0,5.22,-0.03,1.21,-4.49,-0.72,0.1,-25.75,16.8125,3.4375,0.234619140625,0.64501953125,-0.16448974609375,0.7083740234375,-33.375,-3.6875,-13.75,9.71,0.68,1.11,moving,1
8.5,615646.995791163,21,1,0,0,0,6.9,-0.06,0.56,-2.81,-0.73,-0.54,-28.1875,-6.5625,4.625,0.23583984375,0.64483642578125,-0.1666259765625,0.70770263671875,-33.375,-3.6875,-13.75,9.72,0.67,1.1,moving,1
8.51,615647.009622055,21,1,0,0,0,13.4,-0.1,-0.4,3.67,-0.74,-1.44,-38.4375,-41.125,11.125,0.2366943359375,0.6463623046875,-0.17047119140625,0.705078125,-33.0,-3.0,-14.875,9.72,0.64,1.04,moving,1
8.52,615647.009622055,21,1,0,0,0,18.27,-0.88,0.9,8.53,-1.48,-0.01,-57.0625,-77.875,21.9375,0.2374267578125,0.649658203125,-0.17681884765625,0.70025634765625,-33.0,-3.0,-14.875,9.74,0.59,0.91,moving,1
8.53,615647.024612941,21,1,0,0,0,19.9,0.44,0.35,10.13,-0.08,-0.42,-51.1875,-85.875,35.0625,0.23681640625,0.65325927734375,-0.1837158203125,0.69525146484375,-33.0,-3.0,-14.875,9.76,0.52,0.77,moving,1
8.54,615647.024612941,21,1,0,0,0,19.9,0.44,0.35,10.13,-0.08,-0.42,-51.1875,-85.875,35.0625,0.23681640625,0.65325927734375,-0.1837158203125,0.69525146484375,-33.0,-3.0,-14.875,9.76,0.52,0.77,moving,1
8.54,615647.039629217,21,1,0,0,0,17.78,1.87,0.53,8.01,1.4,-0.15,-28.875,-52.0625,30.9375,0.23577880859375,0.65533447265625,-0.18829345703125,0.6925048828125,-33.0,-3.0,-14.875,9.77,0.47,0.68,moving,1
8.56,615647.039629217,21,1,0,0,0,18.47,1.72,-0.27,8.7,1.27,-0.98,-33.125,12.9375,9.75,0.2373046875,0.6536865234375,-0.1905517578125,0.69287109375,-33.0,-3.0,-14.875,9.77,0.45,0.71,moving,1
8.57,615647.069894679,21,1,0,0,0,18.19,0.69,-1.03,8.42,0.24,-1.74,-23.5625,-0.5,-1.5,0.23870849609375,0.65325927734375,-0.19189453125,0.69244384765625,-33.6875,-2.6875,-13.0,9.77,0.45,0.71,moving,1
8.58,615647.069894679,21,1,0,0,0,17.55,-0.42,0.06,7.77,-0.89,-0.57,11.25,-44.4375,-6.75,0.23773193359375,0.65625,-0.1917724609375,0.68994140625,-33.6875,-2.6875,-13.0,9.77,0.46,0.63,moving,1
8.59,615647.085842596,21,1,0,0,0,14.79,1.13,1.34,5.01,0.64,0.74,33.75,-20.0,-9.0625,0.23602294921875,0.6583251953125,-0.18963623046875,0.68914794921875,-33.6875,-2.6875,-13.0,9.77,0.48,0.6,moving,1
8.59,615647.085842596,21,1,0,0,0,12.57,1.61,1.58,2.8,1.1,0.92,33.9375,38.0625,-14.0625,0.23553466796875,0.656982421875,-0.18597412109375,0.69158935546875,-33.6875,-2.6875,-13.0,9.77,0.51,0.66,moving,1
8.6,615647.101936427,21,1,0,0,0,10.59,1.4,2.22,0.83,0.84,1.45,39.8125,66.75,-23.9375,0.23577880859375,0.65411376953125,-0.18084716796875,0.695556640625,-33.6875,-2.6875,-13.0,9.76,0.55,0.77,moving,1
8.61,615647.101936427,21,1,0,0,0,6.76,0.7,0.79,-2.98,0.09,-0.09,45.125,73.25,-27.3125,0.23602294921875,0.6510009765625,-0.175048828125,0.69989013671875,-34.0625,-2.25,-13.375,9.74,0.61,0.89,moving,1
8.62,615647.130972885,21,1,0,0,0,6.19,0.49,0.59,-3.54,-0.15,-0.42,28.875,73.3125,-19.75,0.2366943359375,0.64739990234375,-0.170654296875,0.70404052734375,-34.0625,-2.25,-13.375,9.73,0.64,1.01,moving,1
8.63,615647.130972885,21,1,0,0,0,4.38,0.06,-0.22,-5.33,-0.6,-1.34,9.3125,62.3125,-10.75,0.23773193359375,0.6439208984375,-0.16815185546875,0.70745849609375,-34.0625,-2.25,-13.375,9.71,0.66,1.11,moving,1
8.65,615647.145547592,21,1,0,0,0,4.32,0.03,0.94,-5.38,-0.65,-0.25,7.1875,45.4375,-8.125,0.238525390625,0.64141845703125,-0.16632080078125,0.7099609375,-34.0625,-2.25,-13.375,9.7,0.68,1.19,moving,1
8.66,615647.145547592,21,1,0,0,0,3.87,0.37,2.29,-5.82,-0.32,1.03,8.0625,38.75,-13.0,0.23944091796875,0.63934326171875,-0.164306640625,0.71197509765625,-34.0625,-2.25,-13.375,9.69,0.7,1.25,moving,1
8.67,615647.160136744,21,1,0,0,0,3.94,0.74,2.43,-5.74,0.0,1.12,-2.3125,31.375,-15.5,0.240966796875,0.6375732421875,-0.16290283203125,0.71337890625,-32.6875,-3.25,-15.25,9.69,0.73,1.31,moving,1
8.67,615647.160136744,21,1,0,0,0,3.69,0.39,2.2,-5.98,-0.35,0.83,-19.25,35.375,-11.9375,0.2432861328125,0.6351318359375,-0.1627197265625,0.71478271484375,-32.6875,-3.25,-15.25,9.68,0.74,1.37,moving,1
8.68,615647.190637924,21,1,0,0,0,3.81,-0.11,1.77,-5.85,-0.88,0.33,-17.25,36.125,-13.3125,0.24560546875,0.6326904296875,-0.16229248046875,0.71624755859375,-32.6875,-3.25,-15.25,9.67,0.76,1.43,moving,1
8.69,615647.190637924,21,1,0,0,0,3.96,-0.03,1.1,-5.7,-0.82,-0.38,-4.0625,28.8125,-13.4375,0.2470703125,0.6309814453125,-0.1611328125,0.717529296875,-32.6875,-3.25,-15.25,9.66,0.78,1.48,moving,1
8.7,615647.204714503,21,1,0,0,0,4.49,0.32,1.25,-5.16,-0.48,-0.23,2.625,3.25,-11.0625,0.2476806640625,0.6309814453125,-0.1602783203125,0.71746826171875,-32.6875,-3.25,-15.25,9.65,0.8,1.49,moving,1
8.71,615647.204714503,21,1,0,0,0,5.63,0.56,2.01,-4.02,-0.24,0.55,-8.8125,-20.8125,-5.6875,0.24822998046875,0.6322021484375,-0.1610107421875,0.71612548828125,-31.1875,-3.6875,-14.875,9.66,0.81,1.45,moving,1
8.73,615647.221159816,21,1,0,0,0,8.24,0.79,1.27,-1.42,-0.01,-0.13,-29.375,-29.375,0.5625,0.2493896484375,0.63336181640625,-0.16351318359375,0.71405029296875,-31.1875,-3.6875,-14.875,9.67,0.8,1.41,moving,1
8.74,615647.221159816,21,1,0,0,0,9.98,0.61,0.48,0.3,-0.16,-0.87,-44.4375,-34.25,7.75,0.2508544921875,0.6343994140625,-0.16741943359375,0.71173095703125,-31.1875,-3.6875,-14.875,9.67,0.78,1.36,moving,1
8.75,615647.236047267,21,1,0,0,0,12.04,0.47,0.11,2.34,-0.26,-1.15,-51.8125,-61.1875,15.25,0.25189208984375,0.6368408203125,-0.1728515625,0.7078857421875,-31.1875,-3.6875,-14.875,9.69,0.74,1.26,moving,1
8.75,615647.236047267,21,1,0,0,0,15.08,0.35,0.56,5.36,-0.33,-0.53,-64.625,-104.25,24.0,0.25244140625,0.6414794921875,-0.180419921875,0.70159912109375,-31.1875,-3.6875,-14.875,9.72,0.69,1.09,moving,1
8.76,615647.265733831,21,1,0,0,0,18.45,0.24,0.54,8.71,-0.36,-0.34,-70.1875,-124.0625,36.6875,0.25213623046875,0.6468505859375,-0.18951416015625,0.6943359375,-31.5625,-3.25,-14.875,9.74,0.61,0.89,moving,1
8.78,615647.265733831,21,1,0,0,0,17.99,1.35,0.22,8.23,0.78,-0.53,-17.5,-80.8125,31.0,0.2498779296875,0.65087890625,-0.194091796875,0.69012451171875,-31.5625,-3.25,-14.875,9.76,0.56,0.75,moving,1
8.78,615647.279995184,21,1,0,0,0,17.72,2.37,0.48,7.95,1.82,-0.24,1.625,-13.25,2.4375,0.24945068359375,0.65167236328125,-0.1944580078125,0.689453125,-31.5625,-3.25,-14.875,9.76,0.55,0.73,moving,1
8.79,615647.279995184,21,1,0,0,0,17.72,2.37,0.48,7.95,1.82,-0.24,1.625,-13.25,2.4375,0.24945068359375,0.65167236328125,-0.1944580078125,0.689453125,-31.5625,-3.25,-14.875,9.76,0.55,0.73,moving,1
8.8,615647.31131513,21,1,0,0,0,17.6,1.36,0.96,7.84,0.79,0.24,15.5,-9.3125,-7.75,0.24884033203125,0.6527099609375,-0.1932373046875,0.68902587890625,-31.5625,-3.25,-14.875,9.76,0.57,0.71,moving,1
8.81,615647.31131513,21,1,0,0,0,15.36,2.12,-0.5,5.6,1.52,-1.2,45.5625,-10.6875,-9.5,0.24664306640625,0.65447998046875,-0.190185546875,0.68896484375,-31.5625,-3.25,-14.875,9.76,0.59,0.69,moving,1
8.82,615647.318349472,21,1,0,0,0,13.76,1.95,0.69,4.0,1.32,-0.05,41.4375,34.625,-14.8125,0.2457275390625,0.65350341796875,-0.18609619140625,0.6912841796875,-32.6875,-3.0,-13.75,9.75,0.62,0.75,moving,1
8.83,615647.318349472,21,1,0,0,0,13.02,2.19,1.54,3.28,1.54,0.7,1.0625,51.875,-12.4375,0.24725341796875,0.650634765625,-0.1842041015625,0.6939697265625,-32.6875,-3.0,-13.75,9.74,0.64,0.83,moving,1
8.84,615647.325324773,21,1,0,0,0,9.68,0.63,1.8,-0.05,-0.02,0.84,-17.5625,67.8125,-11.1875,0.25,0.64630126953125,-0.18316650390625,0.697265625,-32.6875,-3.0,-13.75,9.73,0.66,0.95,moving,1
8.84,615647.325324773,21,1,0,0,0,7.36,0.4,0.74,-2.35,-0.29,-0.35,6.5,83.9375,-19.1875,0.25213623046875,0.6416015625,-0.17987060546875,0.70172119140625,-32.6875,-3.0,-13.75,9.72,0.69,1.09,moving,1
8.85,615647.356307968,21,1,0,0,0,5.73,0.23,0.67,-3.96,-0.49,-0.58,30.3125,97.125,-18.75,0.25311279296875,0.6365966796875,-0.1748046875,0.7071533203125,-32.6875,-3.0,-13.75,9.69,0.73,1.25,moving,1
8.86,615647.356307968,21,1,0,0,0,3.58,0.62,0.72,-6.09,-0.14,-0.67,35.25,86.8125,-16.75,0.2535400390625,0.63226318359375,-0.1697998046875,0.71209716796875,-32.6875,-2.25,-13.375,9.67,0.77,1.4,moving,1
8.87,615647.370181178,21,1,0,0,0,3.44,0.69,1.34,-6.21,-0.1,-0.16,21.375,65.1875,-14.5,0.25421142578125,0.62890625,-0.16619873046875,0.7156982421875,-32.6875,-2.25,-13.375,9.65,0.8,1.5,moving,1
8.89,615647.370181178,21,1,0,0,0,3.01,0.54,1.33,-6.62,-0.27,-0.24,3.75,42.8125,-11.9375,0.25537109375,0.62646484375,-0.16436767578125,0.71783447265625,-32.6875,-2.25,-13.375,9.64,0.82,1.57,moving,1
8.9,615647.399823838,21,1,0,0,0,3.17,0.41,1.62,-6.45,-0.42,-0.01,-1.9375,38.1875,-8.5,0.256591796875,0.6241455078125,-0.16314697265625,0.7197265625,-32.6875,-2.25,-13.375,9.63,0.83,1.64,moving,1
8.91,615647.399823838,21,1,0,0,0,3.06,0.16,1.31,-6.55,-0.68,-0.39,8.9375,43.25,-9.4375,0.25726318359375,0.62176513671875,-0.1611328125,0.72198486328125,-32.6875,-2.25,-13.375,9.61,0.85,1.71,moving,1
8.92,615647.415209132,21,1,0,0,0,3.33,0.26,1.46,-6.27,-0.61,-0.3,22.8125,34.25,-11.125,0.2572021484375,0.62030029296875,-0.15826416015625,0.723876953125,-30.875,-4.0625,-16.0625,9.6,0.88,1.76,moving,1
8.92,615647.415209132,21,1,0,0,0,3.77,0.27,1.77,-5.82,-0.62,-0.01,19.875,9.5625,-7.1875,0.2567138671875,0.6202392578125,-0.15643310546875,0.7244873046875,-30.875,-4.0625,-16.0625,9.6,0.9,1.78,moving,1
8.93,615647.429946803,21,1,0,0,0,4.51,0.15,2.13,-5.09,-0.75,0.38,0.25,-20.375,-1.625,0.256591796875,0.62152099609375,-0.15679931640625,0.723388671875,-30.875,-4.0625,-16.0625,9.6,0.9,1.74,moving,1
8.94,615647.429946803,21,1,0,0,0,5.69,-0.26,2.04,-3.91,-1.16,0.35,-17.8125,-32.6875,3.0,0.25689697265625,0.6231689453125,-0.1588134765625,0.721435546875,-30.875,-4.0625,-16.0625,9.61,0.89,1.69,moving,1
8.95,615647.459199896,21,1,0,0,0,6.45,0.02,1.37,-3.16,-0.85,-0.26,-21.1875,-33.75,5.9375,0.2572021484375,0.62469482421875,-0.16119384765625,0.71942138671875,-30.875,-4.0625,-16.0625,9.62,0.87,1.64,moving,1
8.97,615647.459199896,21,1,0,0,0,7.81,0.32,0.97,-1.82,-0.52,-0.59,-17.8125,-45.5,10.6875,0.2568359375,0.62701416015625,-0.1639404296875,0.7169189453125,-30.875,-4.0625,-16.375,9.64,0.85,1.56,moving,1
8.98,615647.474611924,21,1,0,0,0,11.78,0.44,0.65,2.11,-0.37,-0.77,-19.9375,-80.375,16.6875,0.2557373046875,0.63134765625,-0.16790771484375,0.71258544921875,-30.875,-4.0625,-16.375,9.66,0.82,1.43,moving,1
8.99,615647.474611924,21,1,0,0,0,14.19,0.44,1.11,4.49,-0.33,-0.13,-33.9375,-114.125,22.6875,0.2545166015625,0.6373291015625,-0.173828125,0.706298828125,-30.875,-4.0625,-16.375,9.69,0.77,1.24,moving,1
9.0,615647.489371771,21,1,0,0,0,16.27,-0.13,1.05,6.55,-0.84,0.0,-55.5625,-121.5,31.9375,0.2537841796875,0.64300537109375,-0.18170166015625,0.6993408203125,-30.875,-4.0625,-16.375,9.72,0.7,1.04,moving,1
9.0,615647.489371771,21,1,0,0,0,16.73,0.47,0.05,6.99,-0.14,-0.84,-50.5625,-92.375,43.375,0.25250244140625,0.6468505859375,-0.18927001953125,0.69427490234375,-30.875,-4.0625,-16.375,9.74,0.62,0.89,moving,1
9.01,615647.5201247,21,1,0,0,0,17.01,1.76,0.41,7.26,1.19,-0.41,-3.6875,-36.625,31.0,0.250244140625,0.6484375,-0.1920166015625,0.69287109375,-31.5625,-3.6875,-15.25,9.75,0.57,0.83,moving,1
9.02,615647.5201247,21,1,0,0,0,17.44,1.56,1.04,7.69,1.0,0.24,19.25,-18.3125,10.125,0.24822998046875,0.6497802734375,-0.19183349609375,0.6923828125,-31.5625,-3.6875,-15.25,9.75,0.55,0.8,moving,1
9.03,615647.535603704,21,1,0,0,0,17.86,2.08,-0.14,8.09,1.52,-0.9,50.6875,-24.0,-0.5625,0.2449951171875,0.65234375,-0.18927001953125,0.69183349609375,-31.5625,-3.6875,-15.25,9.76,0.56,0.75,moving,1
9.04,615647.535603704,21,1,0,0,0,17.86,2.08,-0.14,8.09,1.52,-0.9,50.6875,-24.0,-0.5625,0.2449951171875,0.65234375,-0.18927001953125,0.69183349609375,-31.5625,-3.6875,-15.25,9.76,0.56,0.75,moving,1
9.05,615647.541149196,21,1,0,0,0,15.18,2.14,0.15,5.42,1.54,-0.6,67.75,6.1875,-10.4375,0.2418212890625,0.653564453125,-0.1844482421875,0.69305419921875,-31.5625,-3.6875,-15.25,9.75,0.59,0.76,moving,1
9.06,615647.541149196,21,1,0,0,0,14.05,1.72,0.72,4.3,1.11,-0.06,32.0625,19.5,-6.625,0.24072265625,0.6531982421875,-0.18170166015625,0.69451904296875,-31.5625,-3.6875,-15.25,9.75,0.6,0.79,moving,1
9.07,615647.564735255,21,1,0,0,0,13.1,1.04,1.37,3.34,0.44,0.53,-16.6875,25.375,3.0,0.24188232421875,0.6512451171875,-0.182373046875,0.69580078125,-33.6875,-1.5625,-14.1875,9.75,0.6,0.83,moving,1
9.08,615647.564735255,21,1,0,0,0,12.0,0.82,1.4,2.26,0.21,0.5,-6.8125,34.375,-4.75,0.24310302734375,0.64910888671875,-0.1817626953125,0.697509765625,-33.6875,-1.5625,-14.1875,9.74,0.6,0.89,moving,1
9.09,615647.580606186,21,1,0,0,0,8.86,1.25,1.72,-0.87,0.62,0.75,22.6875,50.5625,-11.0625,0.2432861328125,0.64666748046875,-0.1787109375,0.70050048828125,-33.6875,-1.5625,-14.1875,9.73,0.63,0.97,moving,1
9.09,615647.580606186,21,1,0,0,0,7.41,1.3,1.32,-2.31,0.65,0.26,20.9375,52.125,-11.0,0.24359130859375,0.64410400390625,-0.1756591796875,0.7034912109375,-33.6875,-1.5625,-14.1875,9.72,0.65,1.06,moving,1
9.1,615647.610005316,21,1,0,0,0,6.41,0.95,1.57,-3.3,0.29,0.43,-11.9375,44.0,-5.0625,0.2452392578125,0.6412353515625,-0.1751708984375,0.7056884765625,-33.6875,-1.5625,-14.1875,9.71,0.65,1.14,moving,1
9.11,615647.610005316,21,1,0,0,0,4.93,0.13,0.75,-4.78,-0.51,-0.43,-37.125,22.9375,0.8125,0.24761962890625,0.63897705078125,-0.177001953125,0.7064208984375,-32.25,-1.875,-14.1875,9.71,0.65,1.18,moving,1
9.12,615647.626775945,21,1,0,0,0,4.58,-0.27,0.63,-5.12,-0.91,-0.58,-40.0625,17.6875,2.5,0.25,0.63702392578125,-0.17926025390625,0.70684814453125,-32.25,-1.875,-14.1875,9.7,0.63,1.21,moving,1
9.14,615647.626775945,21,1,0,0,0,4.01,-0.46,0.3,-5.69,-1.1,-0.94,-19.5,19.25,-1.4375,0.25146484375,0.6353759765625,-0.179931640625,0.70758056640625,-32.25,-1.875,-14.1875,9.7,0.63,1.25,moving,1
9.15,615647.640449285,21,1,0,0,0,3.93,-0.31,0.8,-5.76,-0.96,-0.48,7.375,21.9375,-6.9375,0.2518310546875,0.63433837890625,-0.1785888671875,0.708740234375,-32.25,-1.875,-14.1875,9.69,0.65,1.28,moving,1
9.16,615647.640449285,21,1,0,0,0,4.25,-0.03,1.56,-5.44,-0.7,0.24,22.5,19.25,-9.8125,0.25152587890625,0.6337890625,-0.17626953125,0.7099609375,-32.25,-1.875,-14.1875,9.69,0.67,1.31,moving,1
9.17,615647.670207993,21,1,0,0,0,4.66,-0.13,1.65,-5.02,-0.82,0.31,18.9375,15.75,-9.5,0.25128173828125,0.63336181640625,-0.1741943359375,0.71087646484375,-31.5625,-2.25,-14.875,9.68,0.69,1.34,moving,1
9.17,615647.670207993,21,1,0,0,0,4.96,-0.26,1.79,-4.72,-0.97,0.43,8.5,12.5,-6.3125,0.25140380859375,0.63287353515625,-0.17303466796875,0.7115478515625,-31.5625,-2.25,-14.875,9.68,0.7,1.36,moving,1
9.18,615647.688155991,21,1,0,0,0,5.19,-0.07,2.13,-4.48,-0.78,0.75,4.6875,9.375,-2.5625,0.25146484375,0.6324462890625,-0.17242431640625,0.71209716796875,-31.5625,-2.25,-14.875,9.68,0.71,1.37,moving,1
9.19,615647.688155991,21,1,0,0,0,5.88,0.33,2.25,-3.79,-0.37,0.85,4.6875,8.0,2.125,0.25115966796875,0.6319580078125,-0.17205810546875,0.712646484375,-31.5625,-2.25,-14.875,9.68,0.7,1.39,moving,1
9.2,615647.700141302,21,1,0,0,0,6.6,0.4,1.65,-3.07,-0.29,0.25,-3.8125,2.3125,5.0625,0.2510986328125,0.63165283203125,-0.17254638671875,0.71282958984375,-31.5625,-2.25,-14.875,9.68,0.69,1.39,moving,1
9.21,615647.700141302,21,1,0,0,0,7.91,0.09,0.95,-1.77,-0.58,-0.41,-22.5,-13.125,11.3125,0.25146484375,0.6318359375,-0.1748046875,0.7120361328125,-32.6875,-2.6875,-16.1875,9.68,0.67,1.37,moving,1
9.23,615647.729755804,21,1,0,0,0,11.95,-0.4,0.25,2.25,-1.04,-1.05,-37.9375,-39.125,18.9375,0.25177001953125,0.63311767578125,-0.1790771484375,0.709716796875,-32.6875,-2.6875,-16.1875,9.69,0.63,1.31,moving,1
9.24,615647.729755804,21,1,0,0,0,14.64,-0.44,0.67,4.92,-1.02,-0.53,-47.8125,-66.25,26.375,0.251708984375,0.6357421875,-0.1849365234375,0.70587158203125,-32.6875,-2.6875,-16.1875,9.71,0.57,1.2,moving,1
9.25,615647.744872178,21,1,0,0,0,16.45,0.32,0.06,6.72,-0.18,-1.0,-55.6875,-82.125,34.625,0.2513427734375,0.63897705078125,-0.19207763671875,0.701171875,-32.6875,-2.6875,-16.1875,9.73,0.5,1.07,moving,1
9.25,615647.744872178,21,1,0,0,0,17.19,1.9,1.22,7.44,1.46,0.24,-19.25,-61.4375,36.4375,0.2491455078125,0.6417236328125,-0.1966552734375,0.69818115234375,-32.6875,-2.6875,-16.1875,9.74,0.44,0.97,moving,1
9.26,615647.7609643,21,1,0,0,0,18.31,2.26,0.66,8.56,1.85,-0.26,-2.875,-26.4375,21.3125,0.24755859375,0.64288330078125,-0.1986083984375,0.6971435546875,-32.0,-2.6875,-15.75,9.75,0.4,0.92,moving,1
9.27,615647.7609643,21,1,0,0,0,17.72,1.64,-0.17,7.96,1.25,-1.07,1.9375,-17.875,5.3125,0.246826171875,0.6439208984375,-0.19915771484375,0.6962890625,-32.0,-2.6875,-15.75,9.75,0.39,0.89,moving,1
9.29,615647.791433131,21,1,0,0,0,17.2,1.32,-0.02,7.44,0.92,-0.89,20.3125,-15.0,-0.25,0.24542236328125,0.645263671875,-0.1982421875,0.69580078125,-32.0,-2.6875,-15.75,9.75,0.4,0.86,moving,1
9.29,615647.791433131,21,1,0,0,0,14.49,1.84,0.87,4.73,1.43,0.01,40.3125,-5.375,-6.6875,0.24346923828125,0.64654541015625,-0.195556640625,0.696044921875,-32.0,-2.6875,-15.75,9.76,0.41,0.85,moving,1
9.3,615647.796608831,21,1,0,0,0,14.49,1.84,0.87,4.73,1.43,0.01,40.3125,-5.375,-6.6875,0.24346923828125,0.64654541015625,-0.195556640625,0.696044921875,-32.0,-2.6875,-15.75,9.76,0.41,0.85,moving,1
9.31,615647.796608831,21,1,0,0,0,13.06,1.93,1.41,3.31,1.5,0.53,35.0625,15.875,-9.1875,0.2423095703125,0.646484375,-0.19256591796875,0.69732666015625,-32.0,-2.6875,-15.75,9.75,0.43,0.88,moving,1
9.32,615647.8201188,21,1,0,0,0,11.13,1.44,1.49,1.38,0.97,0.56,19.5,31.6875,-15.4375,0.24267578125,0.645263671875,-0.1898193359375,0.6990966796875,-32.6875,0.5625,-13.5,9.75,0.46,0.93,moving,1
9.33,615647.8201188,21,1,0,0,0,9.39,1.14,1.58,-0.35,0.63,0.59,14.625,35.8125,-20.25,0.24365234375,0.64373779296875,-0.18701171875,0.700927734375,-32.6875,0.5625,-13.5,9.74,0.5,0.99,moving,1
9.34,615647.834976059,21,1,0,0,0,6.79,0.45,0.33,-2.93,-0.08,-0.72,6.75,40.5,-19.5625,0.2451171875,0.6417236328125,-0.18463134765625,0.702880859375,-32.6875,0.5625,-13.5,9.73,0.53,1.06,moving,1
9.34,615647.834976059,21,1,0,0,0,5.21,0.03,1.07,-4.5,-0.52,-0.07,-5.3125,51.75,-15.6875,0.24725341796875,0.638671875,-0.1829833984375,0.705322265625,-32.6875,0.5625,-13.5,9.72,0.56,1.15,moving,1
9.35,615647.851389756,21,1,0,0,0,4.74,-0.04,0.84,-4.96,-0.63,-0.38,-5.375,49.6875,-14.5625,0.24920654296875,0.63568115234375,-0.18145751953125,0.70770263671875,-32.6875,0.5625,-13.5,9.71,0.58,1.23,moving,1
9.37,615647.851389756,21,1,0,0,0,4.15,0.02,1.08,-5.54,-0.58,-0.22,-1.875,46.0,-14.5,0.2509765625,0.633056640625,-0.17974853515625,0.70989990234375,-32.25,-1.1875,-15.0,9.69,0.61,1.31,moving,1
9.38,615647.880951157,21,1,0,0,0,3.87,-0.05,1.17,-5.81,-0.69,-0.2,-1.125,36.5625,-13.625,0.25244140625,0.6309814453125,-0.17828369140625,0.71160888671875,-32.25,-1.1875,-15.0,9.68,0.63,1.37,moving,1
9.39,615647.880951157,21,1,0,0,0,3.99,-0.38,1.23,-5.68,-1.04,-0.19,-2.875,32.125,-11.75,0.25384521484375,0.62908935546875,-0.17706298828125,0.71307373046875,-32.25,-1.1875,-15.0,9.67,0.65,1.42,moving,1
9.4,615647.895849798,21,1,0,0,0,4.07,-0.37,0.96,-5.59,-1.05,-0.52,1.8125,34.9375,-10.1875,0.25494384765625,0.62713623046875,-0.1756591796875,0.71478271484375,-32.25,-1.1875,-15.0,9.66,0.67,1.48,moving,1
9.41,615647.895849798,21,1,0,0,0,4.32,-0.32,0.96,-5.33,-1.01,-0.58,11.1875,39.5625,-9.5625,0.2554931640625,0.62506103515625,-0.17352294921875,0.7169189453125,-32.25,-1.1875,-15.0,9.65,0.69,1.55,moving,1
9.42,615647.910253281,21,1,0,0,0,4.53,-0.14,1.2,-5.11,-0.84,-0.37,12.8125,17.5625,-3.375,0.25531005859375,0.624267578125,-0.172119140625,0.71795654296875,-31.5625,-2.6875,-16.5,9.65,0.7,1.58,moving,1
9.42,615647.910253281,21,1,0,0,0,4.74,0.19,1.79,-4.9,-0.51,0.18,12.8125,17.5625,-3.375,0.25506591796875,0.62353515625,-0.1707763671875,0.71905517578125,-31.5625,-2.6875,-16.5,9.64,0.71,1.6,moving,1
9.43,615647.940742987,21,1,0,0,0,5.01,0.37,2.16,-4.63,-0.33,0.55,2.9375,2.9375,1.8125,0.25482177734375,0.62335205078125,-0.17059326171875,0.71929931640625,-31.5625,-2.6875,-16.5,9.64,0.7,1.61,moving,1
9.44,615647.940742987,21,1,0,0,0,5.93,0.66,2.03,-3.71,-0.02,0.44,-12.5625,-9.6875,8.1875,0.2548828125,0.62353515625,-0.17205810546875,0.71875,-31.5625,-2.6875,-16.5,9.65,0.69,1.59,moving,1
9.46,615647.955490871,21,1,0,0,0,6.58,0.56,1.71,-3.07,-0.09,0.15,-20.3125,-25.375,11.4375,0.2548828125,0.62451171875,-0.17449951171875,0.71734619140625,-31.5625,-2.6875,-16.5,9.65,0.66,1.55,moving,1
9.47,615647.955490871,21,1,0,0,0,7.66,0.37,1.37,-2.0,-0.25,-0.1,-31.25,-52.125,15.875,0.2547607421875,0.6268310546875,-0.178466796875,0.71435546875,-30.875,-2.25,-16.1875,9.67,0.63,1.47,moving,1
9.48,615647.969919866,21,1,0,0,0,11.93,0.0,1.0,2.23,-0.58,-0.32,-45.125,-86.3125,20.75,0.25457763671875,0.630859375,-0.184326171875,0.7093505859375,-30.875,-2.25,-16.1875,9.69,0.58,1.33,moving,1
9.49,615647.969919866,21,1,0,0,0,15.01,-0.31,0.62,5.28,-0.83,-0.5,-65.625,-123.8125,29.5625,0.25433349609375,0.63653564453125,-0.19281005859375,0.70208740234375,-30.875,-2.25,-16.1875,9.72,0.52,1.13,moving,1
9.5,615647.999942531,21,1,0,0,0,18.22,-0.54,0.1,8.47,-0.99,-0.84,-30.625,-110.0625,36.0625,0.25201416015625,0.6419677734375,-0.1990966796875,0.69622802734375,-30.875,-2.25,-16.1875,9.75,0.45,0.94,moving,1
9.5,615647.999942531,21,1,0,0,0,18.97,1.2,1.16,9.21,0.78,0.31,-0.6875,-54.9375,19.25,0.2498779296875,0.64495849609375,-0.201416015625,0.69354248046875,-30.875,-2.25,-16.1875,9.76,0.42,0.85,moving,1
9.51,615648.015308945,21,1,0,0,0,18.53,1.79,0.48,8.76,1.36,-0.33,4.125,-20.5,0.0,0.24932861328125,0.64630126953125,-0.20159912109375,0.6925048828125,-32.0,-2.6875,-15.375,9.76,0.42,0.81,moving,1
9.52,615648.015308945,21,1,0,0,0,18.88,1.23,0.03,9.11,0.79,-0.74,26.75,-18.3125,-4.375,0.24774169921875,0.64801025390625,-0.20013427734375,0.69183349609375,-32.0,-2.6875,-15.375,9.76,0.43,0.78,moving,1
9.53,615648.029989731,21,1,0,0,0,18.44,1.66,-0.8,8.67,1.21,-1.58,42.75,-1.3125,-8.375,0.24578857421875,0.649169921875,-0.1971435546875,0.69232177734375,-32.0,-2.6875,-15.375,9.76,0.45,0.77,moving,1
9.54,615648.029989731,21,1,0,0,0,15.75,1.6,1.15,5.99,1.14,0.33,12.0,21.4375,-6.5,0.245849609375,0.64825439453125,-0.195556640625,0.693603515625,-32.0,-2.6875,-15.375,9.76,0.46,0.81,moving,1
9.56,615648.045652573,21,1,0,0,0,14.0,1.31,1.25,4.25,0.83,0.35,-11.25,48.5,-5.4375,0.2476806640625,0.6451416015625,-0.19488525390625,0.69598388671875,-32.0,-2.6875,-15.375,9.75,0.47,0.89,moving,1
9.56,615648.045652573,21,1,0,0,0,14.0,1.31,1.25,4.25,0.83,0.35,-11.25,48.5,-5.4375,0.2476806640625,0.6451416015625,-0.19488525390625,0.69598388671875,-32.0,-2.6875,-15.375,9.75,0.47,0.89,moving,1
9.57,615648.059960719,21,1,0,0,0,12.03,0.38,1.49,2.29,-0.11,0.5,18.375,59.25,-16.875,0.2486572265625,0.64227294921875,-0.1915283203125,0.69927978515625,-33.6875,-0.1875,-14.25,9.74,0.5,0.99,moving,1
9.58,615648.059960719,21,1,0,0,0,10.67,1.3,1.96,0.94,0.74,0.84,40.5625,75.0,-23.9375,0.24908447265625,0.638916015625,-0.18609619140625,0.70361328125,-33.6875,-0.1875,-14.25,9.72,0.55,1.12,moving,1
9.59,615648.09182103,21,1,0,0,0,6.62,0.79,1.08,-3.08,0.2,-0.17,19.1875,80.75,-16.5,0.2503662109375,0.6346435546875,-0.1822509765625,0.70806884765625,-33.6875,-0.1875,-14.25,9.7,0.58,1.25,moving,1
9.59,615648.09182103,21,1,0,0,0,5.66,0.67,1.2,-4.03,0.08,-0.14,-16.375,55.6875,-7.625,0.25262451171875,0.6309814453125,-0.18157958984375,0.710693359375,-33.6875,-0.1875,-14.25,9.69,0.59,1.35,moving,1
9.6,615648.105063869,21,1,0,0,0,4.05,0.15,0.8,-5.62,-0.43,-0.6,-34.5,37.5,-5.0,0.25543212890625,0.6279296875,-0.1826171875,0.71209716796875,-33.6875,-0.1875,-14.25,9.68,0.59,1.41,moving,1
9.61,615648.105063869,21,1,0,0,0,4.19,-0.33,0.98,-5.47,-0.93,-0.49,-18.25,35.625,-10.0625,0.25762939453125,0.62548828125,-0.18243408203125,0.7135009765625,-32.25,-1.5625,-15.375,9.67,0.6,1.48,moving,1
9.62,615648.120432114,21,1,0,0,0,3.33,-0.53,1.35,-6.32,-1.16,-0.19,10.625,41.8125,-16.375,0.25872802734375,0.6234130859375,-0.179931640625,0.715576171875,-32.25,-1.5625,-15.375,9.66,0.63,1.54,moving,1
9.64,615648.120432114,21,1,0,0,0,3.16,-0.24,1.6,-6.48,-0.92,-0.01,27.0625,45.5,-19.375,0.2591552734375,0.6214599609375,-0.1761474609375,0.71807861328125,-32.25,-1.5625,-15.375,9.64,0.67,1.62,moving,1
9.65,615648.152919053,21,1,0,0,0,3.02,-0.19,1.71,-6.61,-0.91,0.03,24.1875,40.625,-20.125,0.25970458984375,0.6197509765625,-0.172607421875,0.72015380859375,-32.25,-1.5625,-15.375,9.63,0.71,1.68,moving,1
9.66,615648.152919053,21,1,0,0,0,3.27,-0.25,1.84,-6.34,-1.0,0.09,10.9375,34.125,-17.0625,0.2607421875,0.61810302734375,-0.17022705078125,0.7218017578125,-32.25,-1.5625,-15.375,9.62,0.75,1.74,moving,1
9.67,615648.166800807,21,1,0,0,0,3.49,-0.49,1.89,-6.11,-1.27,0.1,6.4375,28.375,-13.4375,0.26165771484375,0.61669921875,-0.16845703125,0.72308349609375,-31.5625,-2.25,-16.875,9.61,0.77,1.79,moving,1
9.67,615648.166800807,21,1,0,0,0,3.44,-0.61,1.73,-6.15,-1.41,-0.09,13.8125,24.5,-8.8125,0.2618408203125,0.61553955078125,-0.16650390625,0.72442626953125,-31.5625,-2.25,-16.875,9.6,0.79,1.83,moving,1
9.68,615648.179987616,21,1,0,0,0,3.32,-0.25,2.01,-6.26,-1.05,0.15,17.75,14.4375,-2.625,0.26123046875,0.6151123046875,-0.1649169921875,0.72540283203125,-31.5625,-2.25,-16.875,9.59,0.8,1.85,moving,1
9.69,615648.179987616,21,1,0,0,0,4.01,0.5,2.28,-5.58,-0.29,0.43,5.1875,-1.6875,4.625,0.2606201171875,0.615234375,-0.1649169921875,0.72552490234375,-31.5625,-2.25,-16.875,9.59,0.79,1.84,moving,1
9.71,615648.195070176,21,1,0,0,0,5.23,0.38,1.97,-4.36,-0.38,0.17,-19.9375,-27.75,13.75,0.26043701171875,0.6163330078125,-0.16754150390625,0.72406005859375,-31.5625,-2.25,-16.875,9.6,0.76,1.8,moving,1
9.72,615648.195070176,21,1,0,0,0,7.05,0.16,1.5,-2.57,-0.55,-0.2,-42.5625,-60.5625,24.25,0.26031494140625,0.61883544921875,-0.17291259765625,0.720703125,-30.5,-2.6875,-17.6875,9.62,0.71,1.7,moving,1
9.73,615648.224743027,21,1,0,0,0,13.01,-0.33,0.21,3.35,-0.96,-1.33,-58.5625,-101.25,36.5625,0.2596435546875,0.623291015625,-0.18084716796875,0.71514892578125,-30.5,-2.6875,-17.6875,9.66,0.63,1.54,moving,1
9.74,615648.224743027,21,1,0,0,0,18.02,-1.01,1.06,8.32,-1.54,-0.22,-83.0,-152.25,50.9375,0.258544921875,0.6300048828125,-0.19219970703125,0.70660400390625,-30.5,-2.6875,-17.6875,9.7,0.53,1.29,moving,1
9.75,615648.241336981,21,1,0,0,0,21.8,-0.79,0.23,12.05,-1.19,-0.8,-60.375,-155.0625,68.3125,0.2550048828125,0.636962890625,-0.20318603515625,0.69854736328125,-30.5,-2.6875,-17.6875,9.74,0.4,1.03,moving,1
9.75,615648.241336981,21,1,0,0,0,22.29,1.02,1.92,12.53,0.71,1.02,-9.125,-77.5,50.6875,0.25103759765625,0.64056396484375,-0.208251953125,0.6951904296875,-30.5,-2.6875,-17.6875,9.75,0.31,0.9,moving,1
9.76,615648.271534491,21,1,0,0,0,22.42,2.0,-0.06,12.66,1.69,-0.92,8.875,-24.375,3.5,0.2498779296875,0.64215087890625,-0.20849609375,0.69403076171875,-32.0,-3.25,-15.75,9.76,0.3,0.86,moving,1
9.77,615648.271534491,21,1,0,0,0,19.57,1.28,-1.31,9.8,0.94,-2.09,38.625,-46.9375,-16.375,0.24786376953125,0.6461181640625,-0.20623779296875,0.6917724609375,-32.0,-3.25,-15.75,9.76,0.34,0.78,moving,1
9.79,615648.288143255,21,1,0,0,0,18.43,0.48,0.72,8.65,0.11,-0.01,66.5625,-26.5,-10.75,0.2442626953125,0.64935302734375,-0.20220947265625,0.69122314453125,-32.0,-3.25,-15.75,9.77,0.36,0.73,moving,1
9.8,615648.288143255,21,1,0,0,0,14.08,2.47,0.57,4.32,2.07,-0.27,44.75,69.8125,-13.4375,0.2437744140625,0.64630126953125,-0.19720458984375,0.6956787109375,-32.0,-3.25,-15.75,9.76,0.39,0.85,moving,1
9.81,615648.30162523,21,1,0,0,0,13.18,2.61,2.61,3.43,2.18,1.61,0.375,90.125,-18.6875,0.24639892578125,0.64117431640625,-0.19427490234375,0.7003173828125,-32.0,-3.25,-15.75,9.74,0.43,1.0,moving,1
9.81,615648.30162523,21,1,0,0,0,13.18,2.61,2.61,3.43,2.18,1.61,0.375,90.125,-18.6875,0.24639892578125,0.64117431640625,-0.19427490234375,0.7003173828125,-32.0,-3.25,-15.75,9.74,0.43,1.0,moving,1
9.82,615648.318822658,21,1,0,0,0,10.3,1.35,1.2,0.58,0.89,0.03,-11.25,98.125,-21.1875,0.25,0.63525390625,-0.191650390625,0.70513916015625,-33.375,-1.1875,-13.875,9.72,0.46,1.17,moving,1
9.83,615648.318822658,21,1,0,0,0,8.5,0.83,1.54,-1.19,0.32,0.18,7.8125,111.3125,-23.375,0.25286865234375,0.62896728515625,-0.18743896484375,0.71087646484375,-33.375,-1.1875,-13.875,9.69,0.5,1.35,moving,1
9.84,615648.331210109,21,1,0,0,0,5.39,0.02,-0.33,-4.26,-0.52,-1.89,18.1875,125.125,-20.25,0.255126953125,0.62188720703125,-0.18243408203125,0.717529296875,-33.375,-1.1875,-13.875,9.66,0.54,1.56,moving,1
9.84,615648.331210109,21,1,0,0,0,3.45,-0.26,0.46,-6.18,-0.83,-1.27,23.5,106.3125,-11.9375,0.25628662109375,0.61590576171875,-0.17791748046875,0.723388671875,-33.375,-1.1875,-13.875,9.63,0.57,1.74,moving,1
9.85,615648.346776556,21,1,0,0,0,2.94,-0.2,1.4,-6.65,-0.8,-0.48,12.0,86.75,-12.9375,0.2578125,0.61090087890625,-0.17449951171875,0.7279052734375,-33.375,-1.1875,-13.875,9.6,0.59,1.88,moving,1
9.87,615648.346776556,21,1,0,0,0,2.87,0.08,2.11,-6.69,-0.53,0.09,-16.8125,72.75,-16.5,0.2608642578125,0.60614013671875,-0.173095703125,0.73114013671875,-30.875,-2.6875,-17.6875,9.57,0.61,2.01,moving,1
9.88,615648.376674831,21,1,0,0,0,2.84,-0.28,2.35,-6.7,-0.91,0.22,-34.4375,64.5,-16.5,0.26470947265625,0.60150146484375,-0.17291259765625,0.733642578125,-30.875,-2.6875,-17.6875,9.55,0.63,2.12,moving,1
9.89,615648.376674831,21,1,0,0,0,2.63,-0.84,1.96,-6.89,-1.49,-0.25,-24.4375,58.4375,-17.0,0.2679443359375,0.597412109375,-0.1722412109375,0.7359619140625,-30.875,-2.6875,-17.6875,9.52,0.65,2.22,moving,1
9.9,615648.389977158,21,1,0,0,0,2.71,-0.94,1.69,-6.79,-1.63,-0.6,0.75,42.75,-21.0625,0.2698974609375,0.594970703125,-0.17010498046875,0.7376708984375,-30.875,-2.6875,-17.6875,9.5,0.68,2.29,moving,1
9.91,615648.389977158,21,1,0,0,0,2.83,-0.76,2.36,-6.65,-1.49,0.03,15.5625,20.875,-23.25,0.2708740234375,0.5943603515625,-0.16741943359375,0.73846435546875,-30.875,-2.6875,-17.6875,9.49,0.73,2.32,moving,1
9.92,615648.40499791,21,1,0,0,0,3.4,-0.73,2.74,-6.08,-1.51,0.41,9.875,1.875,-21.8125,0.27178955078125,0.59478759765625,-0.16558837890625,0.73822021484375,-29.375,-1.5625,-18.5,9.49,0.77,2.33,moving,1
9.92,615648.40499791,21,1,0,0,0,3.74,-0.55,3.02,-5.75,-1.35,0.7,-0.4375,-9.0,-13.3125,0.27252197265625,0.5955810546875,-0.16510009765625,0.7374267578125,-29.375,-1.5625,-18.5,9.49,0.79,2.31,moving,1
9.93,615648.451751735,21,1,0,0,0,4.17,-0.25,2.95,-5.32,-1.04,0.67,-1.4375,-21.125,0.0625,0.2723388671875,0.59686279296875,-0.16571044921875,0.73626708984375,-29.375,-1.5625,-18.5,9.5,0.79,2.28,moving,1
9.94,615648.451751735,21,1,0,0,0,6.28,0.27,1.74,-3.24,-0.49,-0.44,-3.5625,-55.5625,12.9375,0.2708740234375,0.60015869140625,-0.16790771484375,0.733642578125,-29.375,-1.5625,-18.5,9.52,0.77,2.18,moving,1
9.96,615648.456901393,21,1,0,0,0,9.2,0.69,0.58,-0.37,-0.02,-1.39,-14.4375,-125.375,24.0625,0.26824951171875,0.607421875,-0.173095703125,0.7274169921875,-29.375,-1.5625,-18.5,9.57,0.72,1.98,moving,1
9.97,615648.456901393,21,1,0,0,0,13.85,0.75,0.2,4.2,0.11,-1.42,-35.5,-214.3125,42.5,0.26409912109375,0.61944580078125,-0.18255615234375,0.71636962890625,-29.75,-2.25,-19.1875,9.64,0.64,1.62,moving,1
9.98,615648.482016302,21,1,0,0,0,23.58,1.13,1.26,13.87,0.62,0.03,-57.8125,-239.5,73.3125,0.2587890625,0.6317138671875,-0.19561767578125,0.70404052734375,-29.75,-2.25,-19.1875,9.71,0.5,1.22,moving,1
9.99,615648.482016302,21,1,0,0,0,22.87,2.42,2.62,13.12,2.06,1.6,-12.5,-119.25,80.375,0.25250244140625,0.6373291015625,-0.2034912109375,0.69903564453125,-29.75,-2.25,-19.1875,9.74,0.36,1.02,moving,1
10.0,615648.495853623,21,1,0,0,0,20.31,2.32,-0.46,10.57,2.01,-1.53,1.9375,27.9375,29.8125,0.25103759765625,0.6351318359375,-0.20440673828125,0.7012939453125,-29.75,-2.25,-19.1875,9.74,0.31,1.07,moving,1
10.0,615648.495853623,21,1,0,0,0,19.38,1.78,0.33,9.64,1.44,-0.75,37.0625,11.1875,-8.0625,0.24969482421875,0.63543701171875,-0.20147705078125,0.702392578125,-29.75,-2.25,-19.1875,9.73,0.33,1.09,moving,1
10.01,615648.510437486,21,1,0,0,0,16.55,1.5,0.28,6.82,1.1,-0.85,87.9375,30.4375,-28.75,0.2470703125,0.63592529296875,-0.19378662109375,0.7049560546875,-32.6875,-1.875,-15.0,9.73,0.4,1.13,moving,1
10.02,615648.510437486,21,1,0,0,0,15.1,2.78,0.44,5.39,2.3,-0.78,83.3125,56.5625,-39.3125,0.245849609375,0.6348876953125,-0.185302734375,0.7086181640625,-32.6875,-1.875,-15.0,9.71,0.48,1.22,moving,1
10.03,615648.541839626,21,1,0,0,0,14.17,3.34,1.49,4.47,2.81,0.13,4.0625,75.5,-21.4375,0.2481689453125,0.63067626953125,-0.18218994140625,0.71240234375,-32.6875,-1.875,-15.0,9.69,0.52,1.35,moving,1
10.05,615648.541839626,21,1,0,0,0,10.43,0.78,2.26,0.76,0.25,0.75,-47.625,88.6875,-12.375,0.2529296875,0.624267578125,-0.18255615234375,0.7161865234375,-32.6875,-1.875,-15.0,9.67,0.53,1.5,moving,1
10.06,615648.55874258,21,1,0,0,0,8.17,-0.31,0.93,-1.46,-0.86,-0.76,-32.75,112.625,-17.0625,0.257568359375,0.61676025390625,-0.18121337890625,0.721435546875,-32.6875,-1.875,-15.0,9.64,0.55,1.7,moving,1
10.07,615648.55874258,21,1,0,0,0,6.27,-0.46,0.88,-3.33,-1.05,-0.99,10.0,108.5,-20.875,0.26007080078125,0.6104736328125,-0.177001953125,0.72686767578125,-32.0,-1.875,-15.375,9.6,0.59,1.88,moving,1
10.07,615648.565914089,21,1,0,0,0,6.27,-0.46,0.88,-3.33,-1.05,-0.99,10.0,108.5,-20.875,0.26007080078125,0.6104736328125,-0.177001953125,0.72686767578125,-32.0,-1.875,-15.375,9.6,0.59,1.88,moving,1
10.08,615648.565914089,21,1,0,0,0,5.03,0.45,1.16,-4.53,-0.18,-0.86,22.875,86.125,-24.8125,0.26171875,0.60589599609375,-0.1722412109375,0.73126220703125,-32.0,-1.875,-15.375,9.57,0.63,2.02,moving,1
10.09,615648.60524673,21,1,0,0,0,3.88,0.49,2.02,-5.66,-0.19,-0.09,-5.0,51.6875,-27.25,0.2645263671875,0.6029052734375,-0.169921875,0.7332763671875,-32.0,-1.875,-15.375,9.55,0.68,2.11,moving,1
10.09,615648.60524673,21,1,0,0,0,3.31,0.28,1.51,-6.21,-0.41,-0.65,-37.125,36.0625,-21.875,0.26837158203125,0.60003662109375,-0.17034912109375,0.734130859375,-32.0,-1.875,-15.375,9.53,0.7,2.17,moving,1
10.1,615648.610248317,21,1,0,0,0,3.39,-0.04,1.82,-6.12,-0.77,-0.4,-27.625,33.625,-18.9375,0.27154541015625,0.5975341796875,-0.1702880859375,0.7349853515625,-32.0,-1.875,-15.375,9.52,0.72,2.23,moving,1
10.11,615648.610248317,21,1,0,0,0,2.9,-0.33,1.25,-6.6,-1.1,-1.03,12.25,37.8125,-23.5625,0.27301025390625,0.595703125,-0.16741943359375,0.736572265625,-30.5,-2.25,-17.6875,9.5,0.77,2.29,moving,1
10.13,615648.631969509,21,1,0,0,0,2.73,0.28,1.77,-6.75,-0.54,-0.55,39.0,25.1875,-26.375,0.27301025390625,0.59539794921875,-0.16290283203125,0.73785400390625,-30.5,-2.25,-17.6875,9.48,0.83,2.33,moving,1
10.14,615648.631969509,21,1,0,0,0,3.12,0.35,2.12,-6.36,-0.51,-0.2,29.0625,-2.6875,-21.375,0.2728271484375,0.5965576171875,-0.15997314453125,0.73760986328125,-30.5,-2.25,-17.6875,9.48,0.87,2.32,moving,1
