timestamp,android_nano_timestamp,temperature,calib_mag,calib_accel,calib_gyro,calib_sys,acc_x,acc_y,acc_z,lacc_x,lacc_y,lacc_z,gyro_x,gyro_y,gyro_z,quat_w,quat_x,quat_y,quat_z,mag_x,mag_y,mag_z,gravity_x,gravity_y,gravity_z,label,person
4.54,1673431.283885492,25,3,3,3,3,-524.0,17.23,6.05,-2.07,7.96,6.42,13.76,-46.375,-2.125,516.125,0.33477783203125,0.63763427734375,0.47674560546875,0.0638,-15.5625,13.875,-19.8125,9.27,-0.36,moving,6
4.55,1673431.313465733,25,3,3,3,3,-1023.0,27.28,8.65,-7.04,18.01,9.11,13.68,-75.9375,-7.25,518.1875,0.34130859375,0.63800048828125,0.469482421875,0.0638,-15.5625,13.875,-19.875,9.26,-0.46,moving,6
4.56,1673431.313465733,25,3,3,3,3,-1041.0,29.44,8.52,-7.18,20.2,9.03,11.46,-124.5625,-16.0625,523.75,0.3486328125,0.6358642578125,0.46099853515625,0.0638,-15.5625,13.875,-20.125,9.24,-0.5,moving,6
4.57,1673431.328247675,25,3,3,3,3,-979.0,31.92,5.92,-6.51,22.69,6.33,1.31,-190.625,-20.625,535.125,0.35540771484375,0.62823486328125,0.45379638671875,0.0638,-15.5625,13.875,-20.4375,9.23,-0.41,moving,6
4.58,1673431.328247675,25,3,3,3,3,-1369.0,38.63,1.14,-10.39,29.39,1.21,-22.11,-211.25,-7.3125,551.5,0.35699462890625,0.6131591796875,0.45440673828125,0.0646,-13.75,14.6875,-20.5625,9.23,-0.06,moving,6
4.59,1673431.358865961,25,3,3,3,3,-1115.0,38.54,-20.32,-7.87,29.31,-20.75,-41.51,-140.3125,6.5625,567.0625,0.3505859375,0.59588623046875,0.46405029296875,0.0646,-13.75,14.6875,-20.5,9.23,0.43,moving,6
4.6,1673431.358865961,25,3,3,3,3,-614.0,29.33,-6.31,-2.86,20.12,-7.08,-34.21,15.625,-3.0625,572.9375,0.33941650390625,0.58795166015625,0.4754638671875,0.0646,-13.75,14.6875,-20.5,9.2,0.76,moving,6
4.61,1673431.372608311,25,3,3,3,3,-741.0,21.77,-5.2,-4.09,12.59,-6.14,-17.57,-4.6875,-20.8125,577.375,0.3331298828125,0.583740234375,0.47991943359375,0.0646,-13.75,14.6875,-20.6875,9.17,0.94,moving,6
4.62,1673431.372608311,25,3,3,3,3,-741.0,19.76,-4.24,-4.09,10.58,-5.12,9.69,-49.6875,-4.5625,578.375,0.33795166015625,0.58392333984375,0.47515869140625,0.0646,-13.75,14.6875,-20.6875,9.18,0.87,moving,6
4.63,1673431.388829177,25,3,3,3,3,-424.0,15.35,-0.34,-0.91,6.16,-1.06,17.45,-38.5,-10.25,577.5,0.34442138671875,0.58685302734375,0.46795654296875,0.0649,-12.0,5.375,-20.8125,9.19,0.72,moving,6
4.64,1673431.388829177,25,3,3,3,3,-251.0,13.17,0.51,0.83,3.97,-0.07,14.96,-30.4375,-12.125,576.6875,0.349609375,0.5894775390625,0.46160888671875,0.0649,-12.0,5.375,-20.875,9.19,0.59,moving,6
4.65,1673431.402626744,25,3,3,3,3,-198.0,10.75,0.05,1.38,1.55,-0.45,9.89,-32.0,-14.0625,577.0,0.35321044921875,0.5908203125,0.456787109375,0.0649,-12.0,5.375,-21.0,9.19,0.51,moving,6
4.66,1673431.402626744,25,3,3,3,3,-157.0,5.2,0.33,1.8,-3.99,-0.12,6.28,-28.5625,-10.8125,577.6875,0.35577392578125,0.59130859375,0.45330810546875,0.0649,-12.0,5.375,-21.125,9.19,0.46,moving,6
4.67,1673431.431662958,25,3,3,3,3,-129.0,3.17,0.79,2.09,-6.02,0.36,5.24,-27.3125,-7.0,578.375,0.35809326171875,0.59149169921875,0.450439453125,0.0649,-12.0,5.375,-21.125,9.19,0.42,moving,6
4.68,1673431.431662958,25,3,3,3,3,-83.0,1.71,0.93,2.55,-7.47,0.55,6.96,-26.125,-2.5625,578.4375,0.36114501953125,0.59197998046875,0.447265625,0.0649,-12.25,3.5,-21.1875,9.19,0.37,moving,6
4.69,1673431.447238886,25,3,3,3,3,-53.0,0.44,1.22,2.85,-8.75,0.93,9.82,-27.8125,-2.625,578.0625,0.3651123046875,0.59307861328125,0.44305419921875,0.0649,-12.25,3.5,-21.1875,9.19,0.29,moving,6
4.7,1673431.447238886,25,3,3,3,3,68.0,-0.85,0.6,4.07,-10.04,0.41,11.99,-31.9375,-2.3125,577.375,0.36993408203125,0.594482421875,0.43804931640625,0.0649,-12.25,3.5,-21.1875,9.19,0.19,moving,6
4.71,1673431.47747143,25,3,3,3,3,72.0,-1.44,0.61,4.11,-10.64,0.52,11.85,-32.3125,-1.5,576.6875,0.37469482421875,0.59576416015625,0.43310546875,0.0649,-12.25,3.5,-21.1875,9.19,0.09,moving,6
4.72,1673431.47747143,25,3,3,3,3,65.0,-1.43,0.05,4.05,-10.63,0.04,10.46,-31.6875,0.3125,576.125,0.379150390625,0.59661865234375,0.42864990234375,0.0649,-12.25,3.5,-21.1875,9.19,0.0,moving,6
4.73,1673431.494725865,25,3,3,3,3,42.0,-1.73,0.45,3.81,-10.93,0.5,7.42,-28.375,3.125,575.9375,0.38262939453125,0.59686279296875,0.4254150390625,0.0649,-12.6875,1.0625,-21.1875,9.2,-0.05,moving,6
4.74,1673431.494725865,25,3,3,3,3,-14.0,-2.13,0.77,3.24,-11.34,0.86,5.17,-28.3125,3.4375,576.1875,0.38543701171875,0.5965576171875,0.4229736328125,0.0649,-12.6875,1.0625,-21.125,9.2,-0.08,moving,6
4.75,1673431.508898554,25,3,3,3,3,-14.0,-2.13,0.77,3.24,-11.34,0.86,5.17,-28.3125,3.4375,576.1875,0.38543701171875,0.5965576171875,0.4229736328125,0.0649,-12.6875,1.0625,-21.125,9.2,-0.08,moving,6
4.75,1673431.508898554,25,3,3,3,3,-51.0,-2.0,0.96,2.86,-11.2,1.08,5.04,-23.75,1.0,576.3125,0.387939453125,0.59649658203125,0.42059326171875,0.0649,-12.6875,1.0625,-21.125,9.2,-0.12,moving,6
4.76,1673431.523093541,25,3,3,3,3,-94.0,-1.79,1.23,2.43,-10.99,1.4,5.88,-19.6875,2.625,576.0,0.390625,0.5968017578125,0.41815185546875,0.0649,-12.6875,1.0625,-21.125,9.2,-0.17,moving,6
4.77,1673431.523093541,25,3,3,3,3,-134.0,-1.49,1.26,2.02,-10.7,1.49,6.98,-18.3125,8.0,575.125,0.39385986328125,0.59722900390625,0.4156494140625,0.0649,-12.6875,1.0625,-21.0,9.2,-0.23,moving,6
4.78,1673431.537403111,25,3,3,3,3,-143.0,-0.43,1.23,1.91,-9.64,1.52,7.29,-22.5625,11.1875,574.3125,0.3974609375,0.59735107421875,0.41302490234375,0.0656,-13.75,0.375,-20.9375,9.21,-0.29,moving,6
4.79,1673431.537403111,25,3,3,3,3,-108.0,0.12,0.82,2.24,-9.09,1.16,6.22,-29.1875,10.6875,574.125,0.4010009765625,0.596923828125,0.4105224609375,0.0656,-13.75,0.375,-20.8125,9.21,-0.33,moving,6
4.8,1673431.567673578,25,3,3,3,3,-104.0,0.79,0.34,2.27,-8.42,0.71,4.63,-27.25,10.1875,574.125,0.40386962890625,0.5963134765625,0.4085693359375,0.0656,-13.75,0.375,-20.75,9.21,-0.36,moving,6
4.81,1673431.567673578,25,3,3,3,3,-111.0,1.14,0.15,2.18,-8.08,0.53,3.33,-20.25,10.125,574.125,0.40618896484375,0.595703125,0.40728759765625,0.0656,-13.75,0.375,-20.625,9.22,-0.38,moving,6
4.82,1673431.582219721,25,3,3,3,3,-101.0,0.97,-0.09,2.28,-8.25,0.3,2.73,-21.375,9.75,574.25,0.40826416015625,0.59490966796875,0.40606689453125,0.0656,-13.75,0.375,-20.5625,9.22,-0.4,moving,6
4.83,1673431.582219721,25,3,3,3,3,-71.0,0.77,-0.45,2.56,-8.46,-0.03,3.22,-28.375,8.25,574.75,0.41070556640625,0.59393310546875,0.4044189453125,0.0652,-13.0,-0.75,-20.5,9.23,-0.41,moving,6
4.84,1673431.597694452,25,3,3,3,3,-41.0,0.46,-0.72,2.85,-8.77,-0.28,4.1,-34.0625,7.4375,575.3125,0.41351318359375,0.5928955078125,0.40228271484375,0.0652,-13.0,-0.75,-20.4375,9.23,-0.44,moving,6
4.85,1673431.597694452,25,3,3,3,3,20.0,0.08,-1.13,3.47,-9.14,-0.66,4.98,-39.5,6.875,576.0,0.41680908203125,0.591796875,0.3995361328125,0.0652,-13.0,-0.75,-20.375,9.23,-0.46,moving,6
4.86,1673431.627050613,25,3,3,3,3,40.0,0.01,-1.42,3.66,-9.22,-0.92,5.64,-44.5,6.125,576.8125,0.42041015625,0.590576171875,0.39642333984375,0.0652,-13.0,-0.75,-20.3125,9.23,-0.5,moving,6
4.87,1673431.627050613,25,3,3,3,3,44.0,0.26,-1.69,3.69,-8.96,-1.16,5.72,-45.9375,4.75,577.75,0.4239501953125,0.58941650390625,0.39312744140625,0.0652,-13.0,-0.75,-20.3125,9.23,-0.53,moving,6
4.88,1673431.642355097,25,3,3,3,3,22.0,1.26,-1.71,3.47,-7.96,-1.15,5.21,-42.1875,3.0,578.625,0.42718505859375,0.58831787109375,0.3900146484375,0.066,-13.0,-2.75,-20.3125,9.23,-0.56,moving,6
4.89,1673431.642355097,25,3,3,3,3,-132.0,6.16,-0.55,1.93,-3.06,0.02,4.6,-34.75,1.375,579.3125,0.42987060546875,0.5875244140625,0.3873291015625,0.066,-13.0,-2.75,-20.3125,9.23,-0.58,moving,6
4.9,1673431.659593826,25,3,3,3,3,-307.0,11.43,1.05,0.17,2.19,1.66,4.07,-27.5,2.0,579.6875,0.43212890625,0.58697509765625,0.38507080078125,0.066,-13.0,-2.75,-20.3125,9.23,-0.61,moving,6
4.91,1673431.659593826,25,3,3,3,3,-615.0,20.49,3.55,-2.9,11.26,4.19,4.16,-32.625,7.8125,580.125,0.4349365234375,0.58587646484375,0.38287353515625,0.066,-13.0,-2.75,-20.25,9.23,-0.63,moving,6
4.92,1673431.688237747,25,3,3,3,3,-1247.0,37.45,7.39,-9.26,28.2,8.02,1.91,-35.25,20.875,580.8125,0.437744140625,0.583740234375,0.3819580078125,0.066,-13.0,-2.75,-20.0625,9.24,-0.63,moving,6
4.93,1673431.688237747,25,3,3,3,3,-1528.0,38.98,12.53,-12.09,29.72,13.04,-9.55,-42.5,23.1875,584.5625,0.4373779296875,0.5787353515625,0.384521484375,0.0661,-12.25,-3.0625,-19.875,9.26,-0.51,moving,6
4.94,1673431.702327183,25,3,3,3,3,-1339.0,39.04,3.08,-10.2,29.77,3.25,-29.19,-77.25,-5.4375,595.75,0.4305419921875,0.56890869140625,0.3905029296875,0.0661,-12.25,-3.0625,-19.9375,9.27,-0.17,moving,6
4.95,1673431.702327183,25,3,3,3,3,-1266.0,39.04,-14.83,-9.46,29.78,-15.11,-37.99,-124.1875,-5.875,611.25,0.42230224609375,0.5545654296875,0.397216796875,0.0661,-12.25,-3.0625,-20.0,9.26,0.27,moving,6
4.96,1673431.733239903,25,3,3,3,3,-756.0,23.72,-11.63,-4.38,14.46,-12.22,-27.17,-65.3125,8.0,620.5625,0.41607666015625,0.544921875,0.40338134765625,0.0661,-12.25,-3.0625,-19.875,9.25,0.58,moving,6
4.97,1673431.733239903,25,3,3,3,3,-687.0,19.24,-6.74,-3.67,10.0,-7.53,-18.36,-32.75,-11.1875,626.8125,0.41058349609375,0.53948974609375,0.40704345703125,0.0661,-12.25,-3.0625,-19.9375,9.23,0.79,moving,6
4.98,1673431.738925084,25,3,3,3,3,-723.0,18.48,-2.38,-4.01,9.26,-3.18,-0.07,-23.625,-14.875,628.4375,0.41070556640625,0.53875732421875,0.4053955078125,0.0661,-12.0,-8.0625,-20.0625,9.22,0.8,moving,6
4.99,1673431.738925084,25,3,3,3,3,-746.0,17.12,1.51,-4.23,7.88,0.83,13.87,-26.6875,-7.875,626.8125,0.41595458984375,0.54071044921875,0.39990234375,0.0661,-12.0,-8.0625,-20.125,9.23,0.67,moving,6
5.0,1673431.747396723,25,3,3,3,3,-746.0,17.12,1.51,-4.23,7.88,0.83,13.87,-26.6875,-7.875,626.8125,0.41595458984375,0.54071044921875,0.39990234375,0.0661,-12.0,-8.0625,-20.125,9.23,0.67,moving,6
5.0,1673431.747396723,25,3,3,3,3,-186.0,13.05,1.22,1.37,3.82,0.68,14.57,-25.9375,-11.125,625.0625,0.421142578125,0.54290771484375,0.39410400390625,0.0661,-12.0,-8.0625,-20.25,9.23,0.54,moving,6
5.01,1673431.776794998,25,3,3,3,3,-193.0,9.85,1.43,1.32,0.6,1.0,11.97,2.625,-7.25,622.375,0.4246826171875,0.54583740234375,0.3902587890625,0.0661,-12.0,-8.0625,-20.3125,9.24,0.42,moving,6
5.02,1673431.776794998,25,3,3,3,3,-81.0,6.25,0.3,2.45,-2.98,-0.05,6.56,-12.1875,-5.1875,621.5625,0.42706298828125,0.54681396484375,0.3875732421875,0.0661,-12.0,-8.0625,-20.375,9.24,0.36,moving,6
5.03,1673431.793750686,25,3,3,3,3,-10.0,3.24,-0.14,3.16,-5.99,-0.5,3.15,-43.9375,-2.625,623.0625,0.429443359375,0.54522705078125,0.38482666015625,0.0661,-12.0,-10.0625,-20.375,9.24,0.35,moving,6
5.04,1673431.793750686,25,3,3,3,3,210.0,-0.79,-0.53,5.35,-10.03,-0.87,5.53,-60.8125,2.6875,624.5625,0.4334716796875,0.54302978515625,0.38104248046875,0.0661,-12.0,-10.0625,-20.3125,9.24,0.33,moving,6
5.05,1673431.808102533,25,3,3,3,3,199.0,-2.55,-0.18,5.23,-11.8,-0.45,9.62,-64.4375,6.375,625.125,0.4390869140625,0.5413818359375,0.3760986328125,0.0661,-12.0,-10.0625,-20.25,9.25,0.27,moving,6
5.06,1673431.808102533,25,3,3,3,3,133.0,-3.66,-0.35,4.56,-12.91,-0.52,13.49,-56.25,5.125,624.3125,0.4456787109375,0.5408935546875,0.3702392578125,0.0661,-12.0,-10.0625,-20.1875,9.25,0.17,moving,6
5.07,1673431.83774796,25,3,3,3,3,71.0,-4.22,-0.45,3.94,-13.48,-0.51,14.39,-51.0,0.3125,623.1875,0.45208740234375,0.54107666015625,0.36395263671875,0.0661,-12.0,-10.0625,-20.1875,9.25,0.05,moving,6
5.08,1673431.83774796,25,3,3,3,3,4.0,-5.04,0.21,3.27,-14.3,0.25,11.38,-42.75,-4.0625,622.5,0.45703125,0.54119873046875,0.35870361328125,0.065,-13.75,-11.25,-20.1875,9.25,-0.03,moving,6
5.09,1673431.851991043,25,3,3,3,3,-75.0,-4.03,0.28,2.48,-13.29,0.39,8.38,-22.0,-3.1875,621.5,0.46038818359375,0.54180908203125,0.35516357421875,0.065,-13.75,-11.25,-20.25,9.25,-0.1,moving,6
5.1,1673431.851991043,25,3,3,3,3,-132.0,-3.2,0.38,1.9,-12.45,0.53,4.49,0.0,4.75,620.1875,0.46209716796875,0.54248046875,0.35406494140625,0.065,-13.75,-11.25,-20.1875,9.25,-0.15,moving,6
5.11,1673431.867449335,25,3,3,3,3,-184.0,-3.1,0.91,1.37,-12.36,1.08,1.0,13.3125,8.4375,619.0,0.46240234375,0.54302978515625,0.35479736328125,0.065,-13.75,-11.25,-20.125,9.26,-0.17,moving,6
5.12,1673431.867449335,25,3,3,3,3,-234.0,-1.86,2.18,0.87,-11.13,2.34,-1.99,18.25,4.8125,618.4375,0.46142578125,0.54345703125,0.3563232421875,0.065,-13.75,-11.25,-20.0625,9.26,-0.16,moving,6
5.13,1673431.897936396,25,3,3,3,3,-233.0,-0.79,2.26,0.87,-10.05,2.39,-3.7,15.6875,0.0625,618.625,0.459716796875,0.5435791015625,0.35809326171875,0.0643,-14.0,-13.1875,-20.0625,9.26,-0.13,moving,6
5.14,1673431.897936396,25,3,3,3,3,-230.0,0.21,1.71,0.9,-9.04,1.82,-2.59,11.5625,-0.875,618.8125,0.45843505859375,0.543701171875,0.3592529296875,0.0643,-14.0,-13.1875,-20.0625,9.26,-0.11,moving,6
5.15,1673431.913079747,25,3,3,3,3,-166.0,1.49,1.03,1.55,-7.76,1.14,-1.45,12.5,-0.5625,618.5625,0.45751953125,0.54412841796875,0.36016845703125,0.0643,-14.0,-13.1875,-20.0625,9.26,-0.1,moving,6
5.16,1673431.913079747,25,3,3,3,3,-150.0,1.62,1.09,1.71,-7.63,1.2,-0.11,12.875,-0.625,618.0,0.45703125,0.5447998046875,0.36065673828125,0.0643,-14.0,-13.1875,-20.0625,9.26,-0.11,moving,6
5.17,1673431.926391718,25,3,3,3,3,-110.0,1.6,0.82,2.11,-7.65,0.95,1.39,1.9375,-0.6875,617.5625,0.4573974609375,0.54522705078125,0.36029052734375,0.0643,-14.0,-13.1875,-20.0625,9.26,-0.12,moving,6
5.18,1673431.926391718,25,3,3,3,3,-64.0,1.43,0.2,2.57,-7.82,0.35,2.54,-13.0625,0.25,617.5625,0.45867919921875,0.54498291015625,0.3590087890625,0.064,-14.375,-13.875,-20.0625,9.26,-0.14,moving,6
5.19,1673431.957342687,25,3,3,3,3,-1.0,0.67,-1.03,3.2,-8.59,-0.87,3.55,-25.25,1.0,617.875,0.46063232421875,0.5443115234375,0.35699462890625,0.064,-14.375,-13.875,-20.0625,9.26,-0.16,moving,6
5.2,1673431.957342687,25,3,3,3,3,13.0,0.27,-1.51,3.35,-8.98,-1.32,4.12,-32.25,2.0,618.3125,0.463134765625,0.5433349609375,0.35455322265625,0.064,-14.375,-13.875,-20.0625,9.26,-0.19,moving,6
5.21,1673431.972288121,25,3,3,3,3,19.0,0.03,-1.79,3.4,-9.22,-1.58,3.94,-35.6875,2.625,618.9375,0.46563720703125,0.5421142578125,0.35205078125,0.064,-14.375,-13.875,-20.0625,9.26,-0.21,moving,6
5.22,1673431.972288121,25,3,3,3,3,17.0,-0.12,-2.02,3.38,-9.39,-1.8,3.61,-37.3125,2.875,619.6875,0.46807861328125,0.540771484375,0.349609375,0.064,-14.375,-13.875,-20.0,9.26,-0.22,moving,6
5.23,1673431.987629959,25,3,3,3,3,53.0,0.02,-2.51,3.74,-9.23,-2.27,3.11,-38.0,3.1875,620.625,0.470458984375,0.5391845703125,0.3472900390625,0.0643,-14.375,-12.75,-20.0,9.26,-0.23,moving,6
5.24,1673431.987629959,25,3,3,3,3,47.0,0.12,-2.6,3.67,-9.14,-2.36,2.34,-32.5,3.6875,621.4375,0.47235107421875,0.53778076171875,0.345458984375,0.0643,-14.375,-12.75,-20.0,9.26,-0.24,moving,6
5.25,1673432.018215164,25,3,3,3,3,30.0,0.61,-2.24,3.49,-8.65,-2.0,1.38,-20.9375,2.75,622.0,0.47357177734375,0.53680419921875,0.3443603515625,0.0643,-14.375,-12.75,-19.9375,9.26,-0.24,moving,6
5.26,1673432.018215164,25,3,3,3,3,30.0,0.61,-2.24,3.49,-8.65,-2.0,1.38,-20.9375,2.75,622.0,0.47357177734375,0.53680419921875,0.3443603515625,0.0643,-14.375,-12.75,-19.9375,9.26,-0.24,moving,6
5.27,1673432.023356074,25,3,3,3,3,-4.0,1.7,-1.67,3.14,-7.56,-1.42,1.07,-9.4375,2.0,622.125,0.47430419921875,0.53643798828125,0.34375,0.0643,-14.375,-12.75,-19.9375,9.26,-0.25,moving,6
5.27,1673432.023356074,25,3,3,3,3,-197.0,8.14,0.77,1.21,-1.12,1.03,1.18,-2.375,1.1875,621.875,0.474853515625,0.5364990234375,0.34332275390625,0.0643,-14.375,-12.75,-19.9375,9.26,-0.26,moving,6
5.28,1673432.047295608,25,3,3,3,3,-318.0,14.49,3.31,0.0,5.22,3.59,2.33,-3.375,3.5,621.3125,0.47589111328125,0.53662109375,0.34271240234375,0.0635,-12.875,-14.75,-19.875,9.26,-0.28,moving,6
5.29,1673432.047295608,25,3,3,3,3,-794.0,29.0,5.07,-4.78,19.73,5.42,5.89,9.5625,18.8125,618.6875,0.47845458984375,0.53741455078125,0.34234619140625,0.0635,-12.875,-14.75,-19.6875,9.27,-0.34,moving,6
5.3,1673432.06332698,25,3,3,3,3,-1642.0,38.97,15.11,-13.32,29.67,15.49,2.74,1.4375,37.4375,616.75,0.48101806640625,0.53643798828125,0.3436279296875,0.0635,-12.875,-14.75,-19.3125,9.29,-0.37,moving,6
5.31,1673432.06332698,25,3,3,3,3,-1587.0,39.04,16.4,-12.8,29.73,16.63,-11.97,-45.0625,15.375,621.625,0.4791259765625,0.53118896484375,0.34600830078125,0.0635,-12.875,-14.75,-19.1875,9.3,-0.23,moving,6
5.32,1673432.077368403,25,3,3,3,3,-1246.0,35.04,-6.94,-9.34,25.74,-7.08,-31.05,-92.0625,-24.25,634.9375,0.470458984375,0.5213623046875,0.34979248046875,0.0635,-12.875,-14.75,-19.4375,9.29,0.13,moving,6
5.33,1673432.077368403,25,3,3,3,3,-1512.0,38.32,-18.18,-11.99,29.04,-18.63,-32.49,33.875,-13.6875,642.25,0.45770263671875,0.5174560546875,0.359619140625,0.0647,-12.6875,-14.375,-19.5625,9.28,0.44,moving,6
5.34,1673432.108741124,25,3,3,3,3,-671.0,31.69,-7.22,-3.58,22.41,-7.87,-21.58,40.0625,7.1875,645.625,0.4493408203125,0.51513671875,0.36767578125,0.0647,-12.6875,-14.375,-19.5,9.27,0.64,moving,6
5.35,1673432.108741124,25,3,3,3,3,-415.0,24.43,-5.39,-1.0,15.18,-6.23,-15.13,-68.375,-17.6875,653.125,0.44549560546875,0.50897216796875,0.3682861328125,0.0647,-12.6875,-14.375,-19.625,9.24,0.83,moving,6
5.36,1673432.122280227,25,3,3,3,3,-579.0,23.39,-2.47,-2.65,14.14,-3.29,3.63,-39.9375,-2.6875,654.125,0.44793701171875,0.50762939453125,0.36553955078125,0.0647,-12.6875,-14.375,-19.625,9.25,0.81,moving,6
5.37,1673432.122280227,25,3,3,3,3,-430.0,19.73,-0.41,-1.13,10.48,-1.13,8.92,5.8125,-10.5625,651.9375,0.45037841796875,0.5101318359375,0.3626708984375,0.0647,-12.6875,-14.375,-19.75,9.25,0.72,moving,6
5.38,1673432.136912918,25,3,3,3,3,-509.0,14.1,1.95,-1.89,4.85,1.32,7.81,34.6875,-15.75,648.875,0.4512939453125,0.51422119140625,0.36102294921875,0.0647,-10.5,-18.25,-19.9375,9.25,0.62,moving,6
5.39,1673432.136912918,25,3,3,3,3,-507.0,10.73,0.85,-1.84,1.48,0.33,9.0,21.6875,-16.375,646.125,0.4530029296875,0.51788330078125,0.3583984375,0.0647,-10.5,-18.25,-20.125,9.24,0.52,moving,6
5.4,1673432.167603876,25,3,3,3,3,-420.0,7.74,-0.09,-0.95,-1.49,-0.53,9.02,-25.4375,-17.5,645.5625,0.45611572265625,0.5189208984375,0.3538818359375,0.0647,-10.5,-18.25,-20.3125,9.24,0.44,moving,6
5.41,1673432.167603876,25,3,3,3,3,-303.0,4.53,0.17,0.23,-4.7,-0.18,10.32,-32.0625,-14.6875,644.875,0.4599609375,0.51971435546875,0.348876953125,0.0647,-10.5,-18.25,-20.4375,9.23,0.35,moving,6
5.42,1673432.181832026,25,3,3,3,3,-34.0,-0.18,0.49,2.94,-9.42,0.26,14.39,-21.375,-11.9375,642.5,0.46502685546875,0.521728515625,0.34326171875,0.0647,-10.5,-18.25,-20.5625,9.23,0.22,moving,6
5.43,1673432.181832026,25,3,3,3,3,44.0,-2.18,0.34,3.74,-11.41,0.29,18.12,-22.4375,-9.6875,639.125,0.471435546875,0.5242919921875,0.33660888671875,0.0629,-12.0,-15.875,-20.625,9.23,0.05,moving,6
5.44,1673432.197887934,25,3,3,3,3,62.0,-3.39,-0.18,3.94,-12.62,-0.05,19.56,-26.875,-8.375,635.4375,0.47845458984375,0.5267333984375,0.3294677734375,0.0629,-12.0,-15.875,-20.6875,9.22,-0.12,moving,6
5.45,1673432.197887934,25,3,3,3,3,82.0,-4.82,-0.36,4.16,-14.04,-0.08,17.6,-34.8125,-12.25,632.6875,0.48486328125,0.52850341796875,0.322265625,0.0629,-12.0,-15.875,-20.875,9.21,-0.28,moving,6
5.46,1673432.230988479,25,3,3,3,3,96.0,-5.14,-0.28,4.33,-14.34,0.12,14.53,-32.5625,-15.875,630.6875,0.48992919921875,0.52996826171875,0.3157958984375,0.0629,-12.0,-15.875,-21.0,9.2,-0.4,moving,6
5.47,1673432.230988479,25,3,3,3,3,113.0,-5.13,0.01,4.52,-14.31,0.53,12.85,-17.6875,-13.375,628.375,0.49407958984375,0.53179931640625,0.31060791015625,0.0629,-12.0,-15.875,-21.1875,9.18,-0.52,moving,6
5.48,1673432.24485526,25,3,3,3,3,71.0,-4.55,0.2,4.12,-13.72,0.84,11.69,-3.5625,-11.0625,625.625,0.49755859375,0.5340576171875,0.30645751953125,0.0629,-13.375,-18.5625,-21.25,9.17,-0.64,moving,6
5.49,1673432.24485526,25,3,3,3,3,52.0,-2.66,0.37,3.94,-11.82,1.14,11.33,14.6875,-8.0,622.0,0.5006103515625,0.537109375,0.3033447265625,0.0629,-13.375,-18.5625,-21.375,9.15,-0.76,moving,6
5.5,1673432.259438959,25,3,3,3,3,33.0,-1.5,0.82,3.76,-10.65,1.7,10.39,23.0,-4.6875,618.0625,0.503173828125,0.54022216796875,0.301025390625,0.0629,-13.375,-18.5625,-21.375,9.14,-0.88,moving,6
5.51,1673432.259438959,25,3,3,3,3,43.0,-0.44,1.21,3.85,-9.58,2.17,7.31,12.5625,-0.375,615.375,0.5052490234375,0.5421142578125,0.2994384765625,0.0629,-13.375,-18.5625,-21.375,9.13,-0.96,moving,6
5.52,1673432.272424677,25,3,3,3,3,43.0,-0.44,1.21,3.85,-9.58,2.17,7.31,12.5625,-0.375,615.375,0.5052490234375,0.5421142578125,0.2994384765625,0.0629,-13.375,-18.5625,-21.375,9.13,-0.96,moving,6
5.53,1673432.272424677,25,3,3,3,3,22.0,0.18,1.27,3.64,-8.95,2.26,3.11,1.8125,3.1875,614.3125,0.50640869140625,0.5426025390625,0.2987060546875,0.0629,-13.375,-18.5625,-21.3125,9.13,-0.99,moving,6
5.53,1673432.287637853,25,3,3,3,3,-57.0,0.79,0.99,2.83,-8.35,1.98,-1.14,-4.9375,5.75,614.75,0.50640869140625,0.5418701171875,0.29913330078125,0.0632,-14.0625,-17.75,-21.25,9.14,-0.98,moving,6
5.54,1673432.287637853,25,3,3,3,3,-70.0,0.88,0.71,2.69,-8.26,1.66,-3.03,-11.1875,8.9375,615.875,0.50616455078125,0.5404052734375,0.29998779296875,0.0632,-14.0625,-17.75,-21.1875,9.15,-0.94,moving,6
5.55,1673432.317529576,25,3,3,3,3,-75.0,0.92,0.37,2.62,-8.23,1.29,-1.86,-15.6875,10.5,616.875,0.5064697265625,0.538818359375,0.3004150390625,0.0632,-14.0625,-17.75,-21.125,9.15,-0.91,moving,6
5.56,1673432.317529576,25,3,3,3,3,-77.0,0.85,-0.02,2.59,-8.31,0.88,0.79,-16.5,11.4375,617.1875,0.5076904296875,0.53759765625,0.300048828125,0.0632,-14.0625,-17.75,-21.0,9.16,-0.91,moving,6
5.57,1673432.331901158,25,3,3,3,3,-70.0,0.28,-0.66,2.64,-8.88,0.27,3.19,-15.6875,11.75,616.6875,0.50970458984375,0.5367431640625,0.29901123046875,0.0632,-14.0625,-17.75,-20.9375,9.16,-0.93,moving,6
5.58,1673432.331901158,25,3,3,3,3,-70.0,0.02,-0.86,2.63,-9.14,0.1,4.79,-15.875,11.875,615.75,0.51220703125,0.53619384765625,0.29754638671875,0.0635,-15.5625,-18.25,-20.8125,9.17,-0.97,moving,6
5.59,1673432.347625564,25,3,3,3,3,-63.0,-0.15,-1.09,2.68,-9.32,-0.07,5.67,-18.3125,11.8125,614.6875,0.51513671875,0.53564453125,0.295654296875,0.0635,-15.5625,-18.25,-20.6875,9.17,-1.02,moving,6
5.6,1673432.347625564,25,3,3,3,3,-52.0,-0.17,-1.47,2.78,-9.34,-0.4,6.2,-19.5,11.3125,613.5625,0.5181884765625,0.53509521484375,0.2935791015625,0.0635,-15.5625,-18.25,-20.625,9.17,-1.07,moving,6
5.61,1673432.37698559,25,3,3,3,3,-37.0,-0.11,-1.54,2.91,-9.28,-0.41,6.63,-18.25,10.6875,612.1875,0.52130126953125,0.53472900390625,0.29132080078125,0.0635,-15.5625,-18.25,-20.5625,9.16,-1.13,moving,6
5.62,1673432.37698559,25,3,3,3,3,-15.0,0.0,-1.53,3.12,-9.15,-0.33,7.01,-13.875,9.8125,610.5625,0.5244140625,0.53466796875,0.2891845703125,0.0635,-15.5625,-18.25,-20.4375,9.16,-1.19,moving,6
5.63,1673432.392493362,25,3,3,3,3,17.0,0.11,-1.56,3.44,-9.04,-0.3,7.23,-7.5,9.0625,608.5625,0.52734375,0.5350341796875,0.28717041015625,0.0622,-15.5,-18.5625,-20.375,9.16,-1.26,moving,6
5.64,1673432.392493362,25,3,3,3,3,106.0,0.2,-1.6,4.31,-8.94,-0.27,6.84,0.0625,8.3125,606.3125,0.52996826171875,0.53570556640625,0.28558349609375,0.0622,-15.5,-18.5625,-20.3125,9.15,-1.33,moving,6
5.65,1673432.407493362,25,3,3,3,3,129.0,0.79,-1.59,4.53,-8.35,-0.2,5.87,7.5625,6.875,604.0,0.531982421875,0.53668212890625,0.2845458984375,0.0622,-15.5,-18.5625,-20.1875,9.15,-1.39,moving,6
5.66,1673432.407493362,25,3,3,3,3,83.0,2.5,-1.36,4.06,-6.63,0.08,4.34,15.1875,4.1875,601.875,0.533203125,0.5379638671875,0.2841796875,0.0622,-15.5,-18.5625,-20.125,9.14,-1.44,moving,6
5.67,1673432.437153763,25,3,3,3,3,-23.0,4.96,-0.67,2.98,-4.17,0.8,2.04,22.875,0.125,600.1875,0.5333251953125,0.53948974609375,0.28466796875,0.0622,-15.5,-18.5625,-20.125,9.14,-1.47,moving,6
5.68,1673432.437153763,25,3,3,3,3,-332.0,12.57,3.08,-0.1,3.43,4.56,-0.71,24.5625,-2.8125,599.25,0.5323486328125,0.540771484375,0.285888671875,0.0629,-16.1875,-18.25,-20.125,9.14,-1.48,moving,6
5.69,1673432.451767614,25,3,3,3,3,-661.0,21.94,6.59,-3.39,12.79,8.06,-3.18,23.75,-2.8125,599.125,0.53057861328125,0.5416259765625,0.28778076171875,0.0629,-16.1875,-18.25,-20.125,9.14,-1.46,moving,6
5.7,1673432.451767614,25,3,3,3,3,-1398.0,39.04,8.31,-10.79,29.88,9.74,-6.05,37.375,9.625,598.875,0.5281982421875,0.5421142578125,0.291748046875,0.0629,-16.1875,-18.25,-19.9375,9.16,-1.42,moving,6
5.71,1673432.467329829,25,3,3,3,3,-1454.0,39.04,13.72,-11.36,29.84,14.87,-24.02,-65.3125,17.25,608.625,0.52294921875,0.53411865234375,0.29669189453125,0.0629,-16.1875,-18.25,-19.875,9.2,-1.15,moving,6
5.72,1673432.467329829,25,3,3,3,3,-1385.0,39.04,3.79,-10.64,29.8,4.46,-41.59,-125.125,-1.4375,626.5625,0.512451171875,0.52081298828125,0.30291748046875,0.0629,-16.1875,-18.25,-20.0,9.24,-0.66,moving,6
5.73,1673432.497330683,25,3,3,3,3,-2041.0,39.04,-15.83,-17.18,29.78,-15.74,-52.08,-89.125,-9.625,645.625,0.49676513671875,0.50762939453125,0.3131103515625,0.0657,-14.6875,-17.75,-20.125,9.26,-0.08,moving,6
5.74,1673432.497330683,25,3,3,3,3,-1858.0,39.04,-17.51,-15.37,29.78,-17.89,-48.05,43.875,11.875,656.375,0.4793701171875,0.50115966796875,0.328857421875,0.0657,-14.6875,-17.75,-20.0,9.25,0.37,moving,6
5.75,1673432.513171992,25,3,3,3,3,-1289.0,33.75,-13.65,-9.63,24.53,-14.38,-39.23,60.25,-24.5625,664.75,0.4627685546875,0.4984130859375,0.34063720703125,0.0657,-14.6875,-17.75,-20.3125,9.22,0.73,moving,6
5.76,1673432.513171992,25,3,3,3,3,-927.0,26.17,-5.73,-5.99,16.97,-6.51,-3.5,-22.125,-18.75,667.1875,0.46136474609375,0.49725341796875,0.339599609375,0.0657,-14.6875,-17.75,-20.5,9.2,0.78,moving,6
5.77,1673432.528376256,25,3,3,3,3,-846.0,20.86,1.73,-5.17,11.64,1.17,23.23,-18.0,-4.5,662.125,0.46990966796875,0.50067138671875,0.332275390625,0.0657,-14.6875,-17.75,-20.5,9.22,0.55,moving,6
5.78,1673432.528376256,25,3,3,3,3,-534.0,18.6,2.14,-2.03,9.37,1.86,28.43,-9.5,-8.4375,655.25,0.47979736328125,0.505615234375,0.3236083984375,0.064,-10.6875,-21.6875,-20.625,9.23,0.27,moving,6
5.79,1673432.542161128,25,3,3,3,3,-534.0,18.6,2.14,-2.03,9.37,1.86,28.43,-9.5,-8.4375,655.25,0.47979736328125,0.505615234375,0.3236083984375,0.064,-10.6875,-21.6875,-20.625,9.23,0.27,moving,6
5.79,1673432.542161128,25,3,3,3,3,-336.0,12.0,1.27,-0.03,2.78,1.26,26.78,2.0,-17.875,648.4375,0.48822021484375,0.51116943359375,0.31524658203125,0.064,-10.6875,-21.6875,-20.75,9.22,0.0,moving,6
5.8,1673432.55837528,25,3,3,3,3,-292.0,8.49,0.49,0.44,-0.71,0.67,18.79,-6.1875,-24.25,644.25,0.4937744140625,0.51507568359375,0.308349609375,0.064,-10.6875,-21.6875,-21.0,9.2,-0.17,moving,6
5.81,1673432.55837528,25,3,3,3,3,-158.0,4.78,0.03,1.81,-4.4,0.34,15.39,-30.625,-17.4375,641.8125,0.49908447265625,0.5167236328125,0.3017578125,0.064,-10.6875,-21.6875,-21.1875,9.19,-0.31,moving,6
5.82,1673432.586868932,25,3,3,3,3,-47.0,1.58,-0.5,2.94,-7.6,-0.03,17.53,-48.0625,-8.0,639.375,0.5059814453125,0.517333984375,0.29425048828125,0.064,-10.6875,-21.6875,-21.3125,9.18,-0.46,moving,6
5.83,1673432.586868932,25,3,3,3,3,90.0,-2.89,-0.88,4.33,-12.05,-0.25,19.44,-46.0625,-5.75,636.0625,0.51348876953125,0.51812744140625,0.286376953125,0.0629,-12.5625,-20.5625,-21.375,9.16,-0.63,moving,6
5.84,1673432.601853795,25,3,3,3,3,92.0,-4.02,-1.02,4.36,-13.17,-0.22,19.22,-35.9375,-5.5,632.3125,0.52056884765625,0.51947021484375,0.27899169921875,0.0629,-12.5625,-20.5625,-21.5,9.14,-0.8,moving,6
5.85,1673432.601853795,25,3,3,3,3,53.0,-4.75,-0.76,3.98,-13.88,0.18,17.69,-31.9375,-4.4375,628.75,0.527099609375,0.5206298828125,0.27227783203125,0.0629,-12.5625,-20.5625,-21.5625,9.12,-0.95,moving,6
5.86,1673432.617491328,25,3,3,3,3,4.0,-6.15,0.17,3.5,-15.26,1.23,12.91,-39.0625,-1.1875,626.75,0.53228759765625,0.5205078125,0.2667236328125,0.0629,-12.5625,-20.5625,-21.625,9.11,-1.06,moving,6
5.87,1673432.617491328,25,3,3,3,3,18.0,-6.69,-0.77,3.65,-15.79,0.35,9.46,-33.625,-0.625,625.5,0.53619384765625,0.52008056640625,0.26239013671875,0.0629,-12.5625,-20.5625,-21.6875,9.1,-1.13,moving,6
5.88,1673432.648197464,25,3,3,3,3,76.0,-6.42,-0.87,4.22,-15.51,0.33,8.92,-12.0625,4.875,623.25,0.5396728515625,0.5205078125,0.259521484375,0.0626,-14.6875,-22.5,-21.625,9.09,-1.21,moving,6
5.89,1673432.648197464,25,3,3,3,3,89.0,-5.79,-0.27,4.34,-14.88,1.02,7.59,2.9375,10.75,620.5625,0.5426025390625,0.521240234375,0.25811767578125,0.0626,-14.6875,-22.5,-21.5,9.08,-1.29,moving,6
5.9,1673432.662832026,25,3,3,3,3,53.0,-4.82,0.44,3.95,-13.9,1.81,6.43,4.625,12.9375,618.125,0.545166015625,0.52178955078125,0.25714111328125,0.0626,-14.6875,-22.5,-21.375,9.08,-1.36,moving,6
5.91,1673432.662832026,25,3,3,3,3,9.0,-0.16,2.1,3.5,-9.25,3.49,2.56,-3.375,12.5,617.1875,0.54669189453125,0.52142333984375,0.25689697265625,0.0626,-14.6875,-22.5,-21.25,9.08,-1.38,moving,6
5.92,1673432.676817744,25,3,3,3,3,-4.0,1.34,2.06,3.35,-7.75,3.41,-2.8,-10.1875,7.75,618.3125,0.54632568359375,0.5201416015625,0.257568359375,0.0626,-14.6875,-22.5,-21.1875,9.09,-1.35,moving,6
5.93,1673432.676817744,25,3,3,3,3,-78.0,1.77,1.49,2.6,-7.33,2.79,-5.2,-13.1875,8.0,620.375,0.5452880859375,0.518310546875,0.25885009765625,0.0611,-16.875,-22.5,-21.1875,9.11,-1.29,moving,6
5.94,1673432.707454137,25,3,3,3,3,-183.0,2.94,0.47,1.54,-6.18,1.71,-4.65,-13.4375,8.5625,622.1875,0.54443359375,0.51654052734375,0.25994873046875,0.0611,-16.875,-22.5,-21.125,9.12,-1.24,moving,6
5.95,1673432.707454137,25,3,3,3,3,-186.0,2.89,-0.26,1.5,-6.23,0.95,-1.42,-12.6875,9.0625,623.0,0.544677734375,0.5152587890625,0.26019287109375,0.0611,-16.875,-22.5,-21.0,9.12,-1.21,moving,6
5.96,1673432.722190587,25,3,3,3,3,-189.0,2.28,-0.76,1.46,-6.84,0.46,1.78,-9.4375,8.5625,622.6875,0.54583740234375,0.5146484375,0.25970458984375,0.0611,-16.875,-22.5,-20.9375,9.13,-1.23,moving,6
5.97,1673432.722190587,25,3,3,3,3,-152.0,1.47,-0.9,1.81,-7.65,0.34,2.54,-12.5625,8.5,622.25,0.54736328125,0.513916015625,0.25885009765625,0.0611,-16.875,-22.5,-20.875,9.13,-1.24,moving,6
5.99,1673432.736622513,25,3,3,3,3,-85.0,0.4,-1.56,2.48,-8.72,-0.29,3.11,-18.0,9.375,621.9375,0.5491943359375,0.51300048828125,0.257568359375,0.0611,-16.1875,-24.0625,-20.8125,9.13,-1.27,moving,6
6.0,1673432.736622513,25,3,3,3,3,-40.0,0.09,-1.8,2.91,-9.03,-0.5,3.91,-23.0625,10.375,621.5625,0.551513671875,0.5118408203125,0.25592041015625,0.0611,-16.1875,-24.0625,-20.75,9.13,-1.29,moving,6
6.0,1673432.770902094,25,3,3,3,3,-20.0,-0.1,-1.91,3.11,-9.23,-0.59,4.54,-24.3125,11.0,621.0,0.55401611328125,0.51068115234375,0.2540283203125,0.0611,-16.1875,-24.0625,-20.6875,9.13,-1.32,moving,6
6.01,1673432.770902094,25,3,3,3,3,-16.0,-0.17,-1.69,3.13,-9.3,-0.33,4.74,-19.25,10.4375,620.1875,0.55645751953125,0.50982666015625,0.2523193359375,0.0611,-16.1875,-24.0625,-20.625,9.13,-1.36,moving,6
6.02,1673432.78935408,25,3,3,3,3,-15.0,-0.37,-0.85,3.13,-9.5,0.55,4.49,-13.3125,9.375,619.125,0.55865478515625,0.50927734375,0.2508544921875,0.0611,-16.1875,-24.0625,-20.5625,9.13,-1.4,moving,6
6.03,1673432.78935408,25,3,3,3,3,-7.0,-0.19,-0.51,3.2,-9.32,0.92,4.07,-9.8125,8.125,618.125,0.56060791015625,0.5089111328125,0.24969482421875,0.0615,-18.0,-24.0625,-20.5,9.12,-1.43,moving,6
6.04,1673432.797186803,25,3,3,3,3,10.0,-0.16,-0.43,3.38,-9.29,1.03,3.81,-6.625,6.875,617.0625,0.56231689453125,0.5087890625,0.2486572265625,0.0615,-18.0,-24.0625,-20.4375,9.12,-1.47,moving,6
6.05,1673432.797186803,25,3,3,3,3,24.0,0.1,-0.46,3.51,-9.02,1.03,3.19,-2.6875,4.1875,616.125,0.5635986328125,0.50885009765625,0.247802734375,0.0615,-18.0,-24.0625,-20.375,9.12,-1.5,moving,6
6.06,1673432.812770218,25,3,3,3,3,24.0,0.1,-0.46,3.51,-9.02,1.03,3.19,-2.6875,4.1875,616.125,0.5635986328125,0.50885009765625,0.247802734375,0.0615,-18.0,-24.0625,-20.375,9.12,-1.5,moving,6
6.07,1673432.812770218,25,3,3,3,3,-26.0,1.4,-0.93,3.0,-7.71,0.59,2.37,1.5,-0.3125,615.25,0.5643310546875,0.50927734375,0.2471923828125,0.0615,-18.0,-24.0625,-20.375,9.11,-1.52,moving,6
6.08,1673432.827457311,25,3,3,3,3,-105.0,3.03,-0.86,2.21,-6.07,0.68,1.7,6.375,-5.125,614.5625,0.56451416015625,0.5101318359375,0.24676513671875,0.0615,-18.0,-24.0625,-20.4375,9.11,-1.54,moving,6
6.08,1673432.827457311,25,3,3,3,3,-220.0,5.66,-0.35,1.07,-3.44,1.2,1.15,10.6875,-9.5,613.875,0.56427001953125,0.5113525390625,0.2464599609375,0.0618,-17.5625,-25.1875,-20.5,9.1,-1.56,moving,6
6.09,1673432.858705968,25,3,3,3,3,-592.0,15.17,3.88,-2.63,6.07,5.46,0.43,7.3125,-7.9375,613.625,0.56390380859375,0.51220703125,0.24627685546875,0.0618,-17.5625,-25.1875,-20.5625,9.1,-1.57,moving,6
6.1,1673432.858705968,25,3,3,3,3,-1797.0,38.33,3.15,-14.69,29.23,4.74,-0.11,29.0,3.6875,612.25,0.5633544921875,0.51348876953125,0.2479248046875,0.0618,-17.5625,-25.1875,-20.5,9.1,-1.59,moving,6
6.11,1673432.872762365,25,3,3,3,3,-1910.0,39.04,7.87,-15.83,29.91,9.35,-12.37,11.875,4.1875,615.5,0.55926513671875,0.51226806640625,0.25213623046875,0.0618,-17.5625,-25.1875,-20.4375,9.12,-1.47,moving,6
6.12,1673432.872762365,25,3,3,3,3,-1624.0,38.95,11.76,-12.93,29.77,12.73,-46.75,-74.1875,-13.3125,633.5625,0.54473876953125,0.50244140625,0.26080322265625,0.0618,-17.5625,-25.1875,-20.6875,9.18,-0.96,moving,6
6.13,1673432.886915766,25,3,3,3,3,-1721.0,39.04,-24.71,-13.81,29.85,-24.36,-59.17,-36.875,-51.9375,654.0625,0.5230712890625,0.4942626953125,0.27227783203125,0.0626,-16.5625,-25.0625,-21.1875,9.19,-0.35,moving,6
6.14,1673432.886915766,25,3,3,3,3,-1221.0,39.02,-6.52,-8.82,29.82,-6.31,-22.08,147.0625,-2.3125,654.0,0.51165771484375,0.49920654296875,0.28472900390625,0.0626,-16.5625,-25.0625,-21.1875,9.19,-0.21,moving,6
6.15,1673432.919921463,25,3,3,3,3,-762.0,32.52,-5.89,-4.2,23.33,-5.84,-17.64,20.8125,-13.9375,658.4375,0.50439453125,0.49822998046875,0.2896728515625,0.0626,-16.5625,-25.0625,-21.3125,9.19,-0.05,moving,6
6.16,1673432.919921463,25,3,3,3,3,-534.0,27.26,-3.37,-1.92,18.07,-3.26,9.69,-66.5,-4.5,658.75,0.50921630859375,0.4962158203125,0.2838134765625,0.0626,-16.5625,-25.0625,-21.375,9.18,-0.1,moving,6
6.17,1673432.932635696,25,3,3,3,3,-986.0,16.06,0.32,-6.47,6.87,0.72,26.45,35.8125,24.0,649.0,0.51861572265625,0.501220703125,0.279541015625,0.0626,-16.5625,-25.0625,-21.125,9.19,-0.39,moving,6
6.18,1673432.932635696,25,3,3,3,3,-890.0,12.67,1.45,-5.54,3.48,2.05,16.62,60.75,9.8125,641.1875,0.52325439453125,0.50665283203125,0.27825927734375,0.0632,-11.5,-26.25,-21.0,9.19,-0.59,moving,6
6.19,1673432.946748367,25,3,3,3,3,-754.0,11.73,2.6,-4.17,2.55,3.28,4.8,62.375,-9.75,637.1875,0.52294921875,0.51123046875,0.27923583984375,0.0632,-11.5,-26.25,-21.0625,9.18,-0.68,moving,6
6.2,1673432.946748367,25,3,3,3,3,-643.0,10.33,2.1,-3.02,1.16,2.79,-1.17,31.5625,-22.4375,636.625,0.520751953125,0.5137939453125,0.27978515625,0.0632,-11.5,-26.25,-21.25,9.16,-0.69,moving,6
6.21,1673432.979911046,25,3,3,3,3,-387.0,4.09,-0.11,-0.42,-5.05,0.51,-4.95,-7.1875,-30.3125,639.1875,0.51788330078125,0.5140380859375,0.2791748046875,0.0632,-11.5,-26.25,-21.5625,9.15,-0.63,moving,6
6.22,1673432.979911046,25,3,3,3,3,-227.0,1.95,-0.81,1.22,-7.18,-0.21,-2.97,-12.3125,-28.375,641.3125,0.515869140625,0.51422119140625,0.27789306640625,0.0632,-11.5,-26.25,-21.875,9.13,-0.59,moving,6
6.24,1673432.992054479,25,3,3,3,3,-58.0,0.09,-1.23,2.95,-9.02,-0.62,2.46,-18.5625,-21.875,642.0,0.51617431640625,0.51458740234375,0.275146484375,0.0629,-12.875,-23.5,-22.125,9.12,-0.61,moving,6
6.25,1673432.992054479,25,3,3,3,3,153.0,-2.57,-1.31,5.1,-11.68,-0.66,5.69,-34.875,-14.875,642.375,0.51824951171875,0.51422119140625,0.2711181640625,0.0629,-12.875,-23.5,-22.3125,9.11,-0.64,moving,6
6.25,1673433.008093623,25,3,3,3,3,174.0,-2.91,-0.93,5.34,-12.0,-0.24,6.98,-36.75,-11.375,642.3125,0.52099609375,0.5137939453125,0.266845703125,0.0629,-12.875,-23.5,-22.4375,9.09,-0.69,moving,6
6.26,1673433.008093623,25,3,3,3,3,164.0,-3.08,-0.65,5.24,-12.17,0.09,7.3,-26.75,-6.375,641.5625,0.5238037109375,0.513671875,0.26318359375,0.0629,-12.875,-23.5,-22.5,9.08,-0.74,moving,6
6.27,1673433.044998164,25,3,3,3,3,131.0,-3.11,-0.6,4.92,-12.19,0.21,7.72,-11.875,0.1875,639.8125,0.52667236328125,0.51416015625,0.26043701171875,0.0629,-12.875,-23.5,-22.5625,9.08,-0.81,moving,6
6.28,1673433.044998164,25,3,3,3,3,73.0,-2.67,-0.27,4.33,-11.75,0.63,8.49,6.3125,7.3125,636.875,0.52972412109375,0.515380859375,0.25872802734375,0.0626,-14.0,-24.25,-22.4375,9.07,-0.9,moving,6
6.29,1673433.05169486,25,3,3,3,3,80.0,-2.63,0.01,4.38,-11.7,1.02,9.39,24.9375,9.75,632.6875,0.53277587890625,0.517578125,0.25775146484375,0.0626,-14.0,-24.25,-22.3125,9.07,-1.01,moving,6
6.3,1673433.05169486,25,3,3,3,3,133.0,-2.26,0.2,4.89,-11.33,1.34,9.94,37.0625,6.4375,627.875,0.53558349609375,0.52069091796875,0.25701904296875,0.0626,-14.0,-24.25,-22.25,9.06,-1.13,moving,6
6.32,1673433.067204503,25,3,3,3,3,150.0,-1.93,0.59,5.05,-10.98,1.85,9.4,41.5,2.8125,623.0625,0.53790283203125,0.52410888671875,0.25640869140625,0.0626,-14.0,-24.25,-22.125,9.05,-1.25,moving,6
6.33,1673433.067204503,25,3,3,3,3,54.0,-0.71,1.78,4.08,-9.76,3.13,6.47,48.0625,-1.8125,618.875,0.53887939453125,0.52764892578125,0.2567138671875,0.0626,-14.0,-24.25,-22.125,9.04,-1.34,moving,6
6.33,1673433.081677282,25,3,3,3,3,54.0,-0.71,1.78,4.08,-9.76,3.13,6.47,48.0625,-1.8125,618.875,0.53887939453125,0.52764892578125,0.2567138671875,0.0626,-14.0,-24.25,-22.125,9.04,-1.34,moving,6
6.34,1673433.081677282,25,3,3,3,3,25.0,-0.16,1.93,3.79,-9.2,3.34,2.08,55.25,-7.8125,615.875,0.5379638671875,0.53125,0.25823974609375,0.0622,-15.0625,-23.875,-22.125,9.03,-1.4,moving,6
6.34,1673433.097020625,25,3,3,3,3,1.0,0.3,1.57,3.56,-8.73,2.99,-2.28,50.9375,-9.9375,614.375,0.53558349609375,0.5340576171875,0.26080322265625,0.0622,-15.0625,-23.875,-22.125,9.03,-1.41,moving,6
6.35,1673433.097020625,25,3,3,3,3,-53.0,0.93,0.98,3.01,-8.1,2.37,-4.35,41.4375,-8.0,613.875,0.5328369140625,0.5360107421875,0.2635498046875,0.0622,-15.0625,-23.875,-22.125,9.03,-1.39,moving,6
6.36,1673433.127711665,25,3,3,3,3,-132.0,1.31,0.51,2.22,-7.72,1.89,-3.97,38.8125,-5.3125,613.3125,0.53033447265625,0.5377197265625,0.2662353515625,0.0622,-15.0625,-23.875,-22.125,9.03,-1.38,moving,6
6.37,1673433.127711665,25,3,3,3,3,-131.0,1.11,0.08,2.22,-7.92,1.46,-2.23,35.25,-3.25,612.375,0.52862548828125,0.53936767578125,0.268310546875,0.0622,-15.0625,-23.875,-22.125,9.03,-1.38,moving,6
6.39,1673433.142260534,25,3,3,3,3,-126.0,0.91,-0.3,2.28,-8.12,1.08,-0.14,33.0,-2.375,610.875,0.5277099609375,0.54119873046875,0.26971435546875,0.0632,-15.5,-20.5,-22.125,9.03,-1.39,moving,6
6.4,1673433.142260534,25,3,3,3,3,-123.0,0.75,-0.49,2.3,-8.27,0.93,1.14,33.5,-2.0625,609.0,0.52716064453125,0.543212890625,0.27081298828125,0.0632,-15.5,-20.5,-22.0625,9.03,-1.43,moving,6
6.41,1673433.157158117,25,3,3,3,3,-93.0,0.54,-0.46,2.59,-8.48,1.0,1.65,34.125,-1.375,606.875,0.52679443359375,0.5452880859375,0.27178955078125,0.0632,-15.5,-20.5,-22.0625,9.03,-1.46,moving,6
6.41,1673433.157158117,25,3,3,3,3,-73.0,0.41,-0.52,2.78,-8.61,0.98,1.77,34.1875,-1.0625,604.6875,0.5264892578125,0.54742431640625,0.27276611328125,0.0632,-15.5,-20.5,-22.0,9.02,-1.5,moving,6
6.42,1673433.186951899,25,3,3,3,3,-51.0,0.23,-0.66,2.99,-8.79,0.87,1.47,32.1875,-1.5,602.75,0.526123046875,0.54937744140625,0.27374267578125,0.0632,-15.5,-20.5,-21.9375,9.02,-1.54,moving,6
6.43,1673433.186951899,25,3,3,3,3,-18.0,-0.38,-0.93,3.33,-9.4,0.63,1.28,30.9375,-2.0625,600.875,0.52569580078125,0.55126953125,0.274658203125,0.064,-15.5,-20.0625,-21.9375,9.01,-1.57,moving,6
6.44,1673433.202087153,25,3,3,3,3,-12.0,-0.51,-1.06,3.38,-9.53,0.54,1.09,30.5625,-2.5,599.125,0.525146484375,0.5531005859375,0.27557373046875,0.064,-15.5,-20.0625,-21.875,9.01,-1.6,moving,6
6.45,1673433.202087153,25,3,3,3,3,-12.0,-0.5,-1.26,3.38,-9.51,0.36,0.82,28.875,-4.4375,597.5625,0.5245361328125,0.554931640625,0.2763671875,0.064,-15.5,-20.0625,-21.875,9.01,-1.62,moving,6
6.47,1673433.218071569,25,3,3,3,3,-23.0,-0.37,-1.23,3.28,-9.37,0.41,0.68,27.4375,-7.1875,596.1875,0.523681640625,0.5567626953125,0.27703857421875,0.064,-15.5,-20.0625,-21.9375,9.0,-1.65,moving,6
6.48,1673433.218071569,25,3,3,3,3,-122.0,2.1,-0.32,2.29,-6.89,1.35,0.66,26.3125,-11.0625,595.0,0.522705078125,0.5587158203125,0.2774658203125,0.064,-15.5,-20.0625,-22.0,8.99,-1.67,moving,6
6.49,1673433.248219071,25,3,3,3,3,-188.0,4.57,0.34,1.65,-4.4,2.03,0.55,23.3125,-13.8125,594.0,0.52166748046875,0.56060791015625,0.27764892578125,0.0635,-14.375,-18.5,-22.0625,8.98,-1.69,moving,6
6.5,1673433.248219071,25,3,3,3,3,-353.0,9.3,1.32,0.01,0.32,3.02,-0.12,15.4375,-16.4375,593.6875,0.52044677734375,0.5621337890625,0.27752685546875,0.0635,-14.375,-18.5,-22.1875,8.97,-1.7,moving,6
6.5,1673433.263553543,25,3,3,3,3,-576.0,14.78,3.38,-2.17,5.81,5.08,-0.85,-1.75,-16.5625,594.4375,0.51934814453125,0.56268310546875,0.27685546875,0.0635,-14.375,-18.5,-22.375,8.96,-1.69,moving,6
6.51,1673433.263553543,25,3,3,3,3,-1733.0,39.04,6.86,-13.72,30.07,8.51,-4.12,-14.75,-8.3125,596.5625,0.51800537109375,0.56170654296875,0.27703857421875,0.0635,-14.375,-18.5,-22.5,8.97,-1.64,moving,6
6.52,1673433.276972448,25,3,3,3,3,-1551.0,38.99,9.64,-11.88,29.99,11.06,-19.14,-45.125,-8.3125,604.5625,0.5125732421875,0.556884765625,0.2803955078125,0.0635,-14.375,-18.5,-22.625,8.99,-1.42,moving,6
6.53,1673433.276972448,25,3,3,3,3,-1084.0,38.41,8.03,-7.15,29.38,9.03,-39.35,-58.8125,-32.125,619.4375,0.4996337890625,0.54913330078125,0.2879638671875,0.065,-13.1875,-17.6875,-23.0625,9.02,-1.0,moving,6
6.55,1673433.308232336,25,3,3,3,3,-869.0,39.04,-8.17,-4.94,29.99,-7.71,-52.33,-44.875,-30.9375,636.8125,0.48175048828125,0.5396728515625,0.2999267578125,0.065,-13.1875,-17.6875,-23.375,9.05,-0.45,stop,6
6.56,1673433.308232336,25,3,3,3,3,-1105.0,35.37,-9.6,-7.33,26.3,-9.49,-38.95,51.75,14.6875,644.25,0.4677734375,0.53533935546875,0.31427001953125,0.065,-13.1875,-17.6875,-23.25,9.07,-0.1,stop,6
6.57,1673433.322694941,25,3,3,3,3,-781.0,23.92,-9.31,-4.08,14.85,-9.37,-20.77,60.5625,-1.5625,646.8125,0.4588623046875,0.53509521484375,0.32269287109375,0.065,-13.1875,-17.6875,-23.25,9.07,0.06,stop,6
6.58,1673433.322694941,25,3,3,3,3,-710.0,20.98,-5.27,-3.37,11.91,-5.37,-3.58,-4.0625,-4.0,648.0625,0.45751953125,0.534423828125,0.3233642578125,0.065,-13.1875,-17.6875,-23.3125,9.06,0.09,stop,6
6.58,1673433.338397822,25,3,3,3,3,-672.0,15.84,-1.8,-3.01,6.76,-1.76,12.12,23.375,14.3125,643.4375,0.46173095703125,0.5372314453125,0.321533203125,0.0647,-7.375,-20.5,-23.125,9.07,-0.03,stop,6
6.59,1673433.338397822,25,3,3,3,3,-672.0,15.84,-1.8,-3.01,6.76,-1.76,12.12,23.375,14.3125,643.4375,0.46173095703125,0.5372314453125,0.321533203125,0.0647,-7.375,-20.5,-23.125,9.07,-0.03,stop,6
6.6,1673433.352121984,25,3,3,3,3,-547.0,12.61,-1.38,-1.77,3.53,-1.23,9.05,33.0,2.8125,639.4375,0.4639892578125,0.54052734375,0.32037353515625,0.0647,-7.375,-20.5,-23.125,9.07,-0.14,stop,6
6.6,1673433.352121984,25,3,3,3,3,-511.0,10.61,-1.33,-1.39,1.54,-1.11,3.41,55.9375,-6.6875,636.0,0.4632568359375,0.54443359375,0.3212890625,0.0647,-7.375,-20.5,-23.1875,9.07,-0.21,stop,6
6.61,1673433.367458898,25,3,3,3,3,-500.0,8.11,-2.1,-1.26,-0.94,-1.84,1.36,51.1875,-15.3125,633.625,0.4615478515625,0.54803466796875,0.32208251953125,0.0647,-7.375,-20.5,-23.3125,9.06,-0.26,stop,6
6.63,1673433.367458898,25,3,3,3,3,-273.0,1.86,-2.34,1.03,-7.18,-2.06,1.27,12.8125,-20.625,633.25,0.46063232421875,0.5498046875,0.32110595703125,0.0647,-7.375,-20.5,-23.5,9.04,-0.28,stop,6
6.64,1673433.396841914,25,3,3,3,3,-115.0,-0.51,-2.01,2.64,-9.55,-1.71,3.42,-21.0625,-17.875,633.9375,0.46148681640625,0.54998779296875,0.3182373046875,0.065,-8.1875,-18.5,-23.6875,9.03,-0.3,stop,6
6.65,1673433.396841914,25,3,3,3,3,15.0,-2.34,-1.19,3.97,-11.36,-0.83,7.67,-32.0625,-12.0625,633.875,0.46441650390625,0.550048828125,0.31402587890625,0.065,-8.1875,-18.5,-23.8125,9.02,-0.35,stop,6
6.66,1673433.412175614,25,3,3,3,3,120.0,-3.54,-0.87,5.03,-12.56,-0.42,12.12,-30.625,-7.375,632.4375,0.46893310546875,0.55078125,0.3087158203125,0.065,-8.1875,-18.5,-23.9375,9.01,-0.45,stop,6
6.66,1673433.412175614,25,3,3,3,3,196.0,-5.11,0.0,5.8,-14.11,0.58,15.82,-32.1875,-4.25,629.9375,0.47491455078125,0.5518798828125,0.30242919921875,0.065,-8.1875,-18.5,-24.0,9.0,-0.59,stop,6
6.67,1673433.427112666,25,3,3,3,3,236.0,-5.38,-0.27,6.21,-14.37,0.48,18.87,-34.6875,0.0,626.625,0.48211669921875,0.5531005859375,0.2952880859375,0.065,-8.1875,-18.5,-24.0,8.98,-0.75,stop,6
6.68,1673433.427112666,25,3,3,3,3,288.0,-5.67,-0.9,6.72,-14.65,0.03,21.73,-27.875,4.875,622.0,0.49029541015625,0.55487060546875,0.28778076171875,0.0657,-9.25,-18.1875,-24.0,8.97,-0.94,stop,6
6.7,1673433.45813,25,3,3,3,3,271.0,-5.24,-1.07,6.54,-14.19,0.08,22.35,0.5,5.9375,615.6875,0.4979248046875,0.55804443359375,0.28131103515625,0.0657,-9.25,-18.1875,-23.9375,8.95,-1.16,stop,6
6.71,1673433.45813,25,3,3,3,3,-16.0,-1.68,1.23,3.65,-10.61,2.62,19.95,42.25,1.0625,607.9375,0.50347900390625,0.563232421875,0.277099609375,0.0657,-9.25,-18.1875,-23.875,8.92,-1.38,stop,6
6.72,1673433.472255977,25,3,3,3,3,-138.0,0.99,2.43,2.43,-7.9,3.99,12.88,59.9375,-5.0625,601.4375,0.50592041015625,0.56854248046875,0.2755126953125,0.0657,-9.25,-18.1875,-23.8125,8.89,-1.55,stop,6
6.73,1673433.472255977,25,3,3,3,3,-251.0,3.07,4.14,1.3,-5.8,5.78,4.29,68.25,-12.4375,597.0,0.5050048828125,0.57318115234375,0.2764892578125,0.0657,-9.25,-18.1875,-23.8125,8.88,-1.64,stop,6
6.74,1673433.487231766,25,3,3,3,3,-420.0,7.26,5.41,-0.38,-1.61,7.04,-6.0,68.3125,-16.4375,595.625,0.5006103515625,0.57647705078125,0.280517578125,0.065,-11.0625,-17.25,-23.875,8.88,-1.62,stop,6
6.75,1673433.487231766,25,3,3,3,3,-486.0,8.57,5.22,-1.03,-0.32,6.75,-13.8,58.75,-14.625,596.8125,0.4940185546875,0.5780029296875,0.28668212890625,0.065,-11.0625,-17.25,-23.875,8.89,-1.53,stop,6
6.75,1673433.516912512,25,3,3,3,3,-506.0,9.66,5.0,-1.24,0.75,6.41,-15.84,50.25,-6.5,598.75,0.48736572265625,0.57830810546875,0.29351806640625,0.065,-11.0625,-17.25,-23.875,8.91,-1.41,stop,6
6.76,1673433.516912512,25,3,3,3,3,-499.0,11.23,4.9,-1.18,2.29,6.22,-13.16,50.5,1.5625,599.6875,0.48193359375,0.57867431640625,0.29986572265625,0.065,-11.0625,-17.25,-23.8125,8.93,-1.31,stop,6
6.78,1673433.532402705,25,3,3,3,3,-379.0,11.94,3.27,0.0,2.98,4.52,-8.87,35.5625,5.75,600.0625,0.47845458984375,0.57879638671875,0.304443359375,0.065,-11.0625,-17.25,-23.6875,8.95,-1.25,stop,6
6.79,1673433.532402705,25,3,3,3,3,-220.0,9.21,1.95,1.58,0.24,3.13,-6.43,-11.0,4.4375,602.25,0.47686767578125,0.57696533203125,0.3062744140625,0.0671,-11.0625,-14.6875,-23.6875,8.96,-1.18,stop,6
6.8,1673433.546909745,25,3,3,3,3,-64.0,7.21,-0.06,3.15,-1.76,1.02,-6.51,-54.1875,1.1875,606.75,0.47625732421875,0.572998046875,0.30609130859375,0.0671,-11.0625,-14.6875,-23.75,8.97,-1.08,stop,6
6.81,1673433.546909745,25,3,3,3,3,-230.0,9.34,-2.45,1.51,0.36,-1.48,-7.16,-63.125,-7.375,612.125,0.47528076171875,0.56884765625,0.30535888671875,0.0671,-11.0625,-14.6875,-23.875,8.97,-0.96,stop,6
6.82,1673433.57656693,25,3,3,3,3,-601.0,14.34,-8.63,-2.16,5.36,-7.8,-10.36,-47.25,-8.875,617.5,0.47265625,0.56500244140625,0.30609130859375,0.0671,-11.0625,-14.6875,-24.0,8.98,-0.83,stop,6
6.83,1673433.57656693,25,3,3,3,3,-604.0,13.95,-6.75,-2.2,4.96,-6.05,-11.95,-17.375,0.0,621.5625,0.46917724609375,0.56207275390625,0.30908203125,0.0671,-11.0625,-14.6875,-24.0,8.99,-0.7,stop,6
6.83,1673433.59230391,25,3,3,3,3,-534.0,12.9,-4.52,-1.49,3.89,-3.92,-10.98,1.125,4.1875,624.25,0.4656982421875,0.56005859375,0.31268310546875,0.0668,-8.1875,-14.1875,-24.0,9.0,-0.59,stop,6
6.84,1673433.59230391,25,3,3,3,3,-499.0,12.08,-2.2,-1.15,3.07,-1.74,-13.96,5.4375,0.5,627.625,0.46087646484375,0.5579833984375,0.31719970703125,0.0668,-8.1875,-14.1875,-24.0,9.01,-0.46,stop,6
6.85,1673433.608512935,25,3,3,3,3,-499.0,12.08,-2.2,-1.15,3.07,-1.74,-13.96,5.4375,0.5,627.625,0.46087646484375,0.5579833984375,0.31719970703125,0.0668,-8.1875,-14.1875,-24.0,9.01,-0.46,stop,6
6.86,1673433.608512935,25,3,3,3,3,-520.0,12.41,0.83,-1.35,3.39,1.22,-9.19,17.375,-1.9375,629.1875,0.45721435546875,0.557373046875,0.320556640625,0.0668,-8.1875,-14.1875,-24.0,9.01,-0.38,stop,6
6.87,1673433.622263423,25,3,3,3,3,-539.0,12.67,1.29,-1.54,3.66,1.66,-2.68,8.5,-1.5625,629.5,0.45599365234375,0.55743408203125,0.3216552734375,0.0668,-8.1875,-14.1875,-24.0,9.01,-0.36,stop,6
6.88,1673433.622263423,25,3,3,3,3,-555.0,12.62,0.85,-1.71,3.61,1.25,3.44,3.75,-0.3125,628.4375,0.45703125,0.5582275390625,0.32073974609375,0.0668,-8.1875,-14.1875,-24.0,9.01,-0.4,stop,6
6.89,1673433.637393672,25,3,3,3,3,-453.0,12.36,0.01,-0.68,3.35,0.47,5.92,2.0,0.75,626.8125,0.458984375,0.559326171875,0.319091796875,0.0665,-6.6875,-15.75,-24.0,9.01,-0.46,stop,6
6.9,1673433.637393672,25,3,3,3,3,-434.0,11.86,0.07,-0.5,2.85,0.56,2.81,-4.75,0.5,626.3125,0.46002197265625,0.5595703125,0.31805419921875,0.0665,-6.6875,-15.75,-24.0,9.0,-0.48,stop,6
6.91,1673433.66765238,25,3,3,3,3,-429.0,11.43,-0.41,-0.44,2.42,0.05,-0.73,-8.5,-0.1875,626.9375,0.46002197265625,0.5589599609375,0.31793212890625,0.0665,-6.6875,-15.75,-24.0,9.0,-0.47,stop,6
6.91,1673433.66765238,25,3,3,3,3,-421.0,11.05,-0.51,-0.37,2.04,-0.08,-3.54,-12.25,-1.4375,628.5,0.4591064453125,0.5577392578125,0.31842041015625,0.0665,-6.6875,-15.75,-24.0,9.01,-0.42,stop,6
6.93,1673433.682655187,25,3,3,3,3,-369.0,10.31,-0.36,0.15,1.3,0.0,-4.91,-13.8125,-1.5,630.5,0.457763671875,0.55621337890625,0.31927490234375,0.0665,-6.6875,-15.75,-24.0625,9.01,-0.37,stop,6
6.94,1673433.682655187,25,3,3,3,3,-365.0,10.08,-0.27,0.19,1.07,0.05,-3.85,-15.3125,0.8125,632.25,0.4569091796875,0.5546875,0.31988525390625,0.0671,-7.5,-16.1875,-24.0625,9.01,-0.32,stop,6
6.95,1673433.714106929,25,3,3,3,3,-392.0,9.69,-0.26,-0.08,0.68,0.01,-2.82,-13.3125,3.5,633.5625,0.45648193359375,0.55328369140625,0.3204345703125,0.0671,-7.5,-16.1875,-24.0,9.01,-0.28,stop,6
6.96,1673433.714106929,25,3,3,3,3,-408.0,9.33,-0.33,-0.24,0.31,-0.07,-1.97,-9.0625,6.0,634.3125,0.45635986328125,0.55224609375,0.32098388671875,0.0671,-7.5,-16.1875,-23.9375,9.02,-0.25,stop,6
6.97,1673433.729903804,25,3,3,3,3,-492.0,8.91,-0.75,-1.1,-0.1,-0.51,-1.51,-8.3125,6.375,634.9375,0.4564208984375,0.55126953125,0.32147216796875,0.0671,-7.5,-16.1875,-23.875,9.02,-0.23,stop,6
6.98,1673433.729903804,25,3,3,3,3,-461.0,8.6,-0.7,-0.8,-0.43,-0.48,-1.35,-8.0,7.0,635.5,0.45648193359375,0.55029296875,0.3218994140625,0.0671,-7.5,-16.1875,-23.8125,9.03,-0.21,stop,6
6.99,1673433.742688187,25,3,3,3,3,-441.0,8.57,-0.51,-0.61,-0.45,-0.31,-1.47,-2.4375,6.8125,635.8125,0.45635986328125,0.54962158203125,0.3226318359375,0.0665,-6.6875,-17.0,-23.75,9.03,-0.2,stop,6
7.0,1673433.742688187,25,3,3,3,3,-421.0,8.44,-0.17,-0.41,-0.59,0.01,-1.14,3.3125,5.75,635.8125,0.4561767578125,0.54937744140625,0.32342529296875,0.0665,-6.6875,-17.0,-23.6875,9.03,-0.19,stop,6
7.01,1673433.772523067,25,3,3,3,3,-407.0,8.19,0.26,-0.28,-0.84,0.45,-0.68,7.6875,4.25,635.5,0.4559326171875,0.54949951171875,0.32415771484375,0.0665,-6.6875,-17.0,-23.625,9.04,-0.19,stop,6
7.02,1673433.772523067,25,3,3,3,3,-409.0,8.2,0.46,-0.3,-0.83,0.65,-0.26,12.125,1.875,634.875,0.45556640625,0.550048828125,0.3248291015625,0.0665,-6.6875,-17.0,-23.625,9.04,-0.19,stop,6
7.03,1673433.786863602,25,3,3,3,3,-411.0,8.19,0.47,-0.33,-0.85,0.68,-0.09,15.5625,-0.125,634.1875,0.455078125,0.55084228515625,0.32550048828125,0.0665,-6.6875,-17.0,-23.625,9.04,-0.2,stop,6
7.04,1673433.786863602,25,3,3,3,3,-412.0,8.2,0.55,-0.33,-0.83,0.76,-0.32,15.5625,-1.875,633.5625,0.45440673828125,0.55169677734375,0.32611083984375,0.0661,-7.0625,-17.25,-23.625,9.04,-0.21,stop,6
7.05,1673433.801583044,25,3,3,3,3,-394.0,8.11,0.44,-0.15,-0.92,0.66,-0.56,12.875,-2.75,633.125,0.4537353515625,0.5523681640625,0.32659912109375,0.0661,-7.0625,-17.25,-23.6875,9.04,-0.21,stop,6
7.06,1673433.801583044,25,3,3,3,3,-386.0,8.01,0.35,-0.06,-1.02,0.56,-0.66,9.75,-3.25,632.9375,0.45306396484375,0.55291748046875,0.3270263671875,0.0661,-7.0625,-17.25,-23.6875,9.03,-0.21,stop,6
7.07,1673433.834830806,25,3,3,3,3,-373.0,7.89,0.13,0.06,-1.14,0.34,-0.57,7.375,-3.3125,632.8125,0.45245361328125,0.5533447265625,0.32733154296875,0.0661,-7.0625,-17.25,-23.75,9.03,-0.21,stop,6
7.08,1673433.834830806,25,3,3,3,3,-350.0,7.59,-0.13,0.3,-1.43,0.08,-0.06,6.3125,-3.0625,632.625,0.4521484375,0.5538330078125,0.327392578125,0.0661,-7.0625,-17.25,-23.75,9.03,-0.21,stop,6
7.09,1673433.849193029,25,3,3,3,3,-340.0,7.52,-0.19,0.41,-1.5,0.03,0.54,6.0,-2.875,632.25,0.4520263671875,0.5543212890625,0.32733154296875,0.0668,-7.0625,-16.5625,-23.8125,9.03,-0.22,stop,6
7.1,1673433.849193029,25,3,3,3,3,-327.0,7.33,-0.2,0.53,-1.69,0.03,1.1,6.3125,-2.75,631.75,0.4520263671875,0.55499267578125,0.32708740234375,0.0668,-7.0625,-16.5625,-23.8125,9.03,-0.24,stop,6
7.11,1673433.862924393,25,3,3,3,3,-315.0,7.16,-0.16,0.66,-1.86,0.1,1.52,6.5,-2.3125,631.125,0.4522705078125,0.55572509765625,0.32672119140625,0.0668,-7.0625,-16.5625,-23.8125,9.02,-0.26,stop,6
7.12,1673433.862924393,25,3,3,3,3,-306.0,7.0,-0.03,0.75,-2.02,0.25,1.71,6.125,-2.1875,630.5,0.4525146484375,0.556396484375,0.32635498046875,0.0668,-7.0625,-16.5625,-23.875,9.02,-0.28,stop,6
7.13,1673433.892953771,25,3,3,3,3,-302.0,6.97,-0.02,0.79,-2.04,0.28,1.89,4.875,-1.9375,629.8125,0.45294189453125,0.55712890625,0.32586669921875,0.0668,-7.0625,-16.5625,-23.875,9.02,-0.3,stop,6
7.14,1673433.892953771,25,3,3,3,3,-307.0,7.01,-0.06,0.74,-2.0,0.26,1.97,3.875,-2.0,629.1875,0.453369140625,0.5577392578125,0.3253173828125,0.065,-7.5625,-15.75,-23.875,9.02,-0.32,stop,6
7.15,1673433.908784541,25,3,3,3,3,-314.0,7.06,-0.13,0.68,-1.95,0.21,2.09,3.8125,-2.0,628.5625,0.453857421875,0.55841064453125,0.32470703125,0.065,-7.5625,-15.75,-23.9375,9.02,-0.34,stop,6
7.16,1673433.908784541,25,3,3,3,3,-336.0,7.35,-0.15,0.46,-1.66,0.21,2.21,4.625,-1.9375,627.8125,0.454345703125,0.55908203125,0.3240966796875,0.065,-7.5625,-15.75,-23.9375,9.01,-0.37,stop,6
7.17,1673433.923072871,25,3,3,3,3,-360.0,7.45,-0.12,0.23,-1.56,0.27,2.27,6.5625,-2.0,627.0,0.454833984375,0.5599365234375,0.3236083984375,0.065,-7.5625,-15.75,-23.9375,9.01,-0.39,stop,6
7.18,1673433.923072871,25,3,3,3,3,-383.0,7.47,-0.17,0.0,-1.54,0.25,2.19,8.5,-2.625,626.0625,0.4552001953125,0.56085205078125,0.3231201171875,0.065,-7.5625,-15.75,-24.0,9.01,-0.42,stop,6
7.19,1673433.937894649,25,3,3,3,3,-396.0,7.41,-0.25,-0.11,-1.59,0.2,2.0,9.3125,-3.3125,625.25,0.45538330078125,0.56182861328125,0.32269287109375,0.0665,-8.6875,-16.5625,-24.0,9.0,-0.45,stop,6
7.2,1673433.937894649,25,3,3,3,3,-365.0,7.31,-0.67,0.19,-1.68,-0.2,1.71,9.0,-4.25,624.4375,0.45550537109375,0.56280517578125,0.322265625,0.0665,-8.6875,-16.5625,-24.0625,9.0,-0.47,stop,6
7.21,1673433.967751949,25,3,3,3,3,-357.0,7.43,-0.72,0.28,-1.56,-0.22,1.34,8.75,-4.9375,623.8125,0.4554443359375,0.563720703125,0.32196044921875,0.0665,-8.6875,-16.5625,-24.0625,9.0,-0.49,stop,6
7.22,1673433.967751949,25,3,3,3,3,-377.0,8.42,-0.3,0.08,-0.56,0.2,1.06,7.8125,-5.5625,623.3125,0.455322265625,0.56451416015625,0.3216552734375,0.0665,-8.6875,-16.5625,-24.125,8.99,-0.5,stop,6
7.22,1673433.974453405,25,3,3,3,3,-377.0,8.42,-0.3,0.08,-0.56,0.2,1.06,7.8125,-5.5625,623.3125,0.455322265625,0.56451416015625,0.3216552734375,0.0665,-8.6875,-16.5625,-24.125,8.99,-0.5,stop,6
7.23,1673433.974453405,25,3,3,3,3,-478.0,11.86,1.05,-0.91,2.86,1.57,0.95,6.3125,-5.6875,622.9375,0.45513916015625,0.56524658203125,0.3212890625,0.0665,-8.6875,-16.5625,-24.1875,8.99,-0.52,stop,6
7.24,1673433.997856075,25,3,3,3,3,-529.0,13.67,1.29,-1.41,4.68,1.83,0.99,4.8125,-5.0625,622.625,0.455078125,0.56591796875,0.3209228515625,0.0671,-8.0,-14.25,-24.25,8.98,-0.53,stop,6
7.25,1673433.997856075,25,3,3,3,3,-560.0,14.98,1.15,-1.71,5.99,1.7,1.08,1.4375,-2.9375,622.375,0.45526123046875,0.5662841796875,0.32049560546875,0.0671,-8.0,-14.25,-24.25,8.98,-0.54,stop,6
7.26,1673434.013893672,25,3,3,3,3,-597.0,15.73,0.48,-2.08,6.74,1.03,1.16,-2.875,-0.1875,622.25,0.4556884765625,0.5662841796875,0.32000732421875,0.0671,-8.0,-14.25,-24.25,8.98,-0.55,stop,6
7.27,1673434.013893672,25,3,3,3,3,-695.0,15.14,-2.48,-3.07,6.16,-1.92,0.74,-4.8125,1.0,622.25,0.45611572265625,0.566162109375,0.31964111328125,0.0671,-8.0,-14.25,-24.25,8.98,-0.56,stop,6
7.28,1673434.028892655,25,3,3,3,3,-542.0,12.29,-3.84,-1.54,3.3,-3.29,-0.4,-4.6875,2.1875,622.5625,0.45623779296875,0.56573486328125,0.3197021484375,0.0671,-8.0,-14.25,-24.25,8.98,-0.55,stop,6
7.29,1673434.028892655,25,3,3,3,3,-363.0,10.18,-3.92,0.24,1.19,-3.38,-1.26,-4.8125,4.4375,623.0,0.45611572265625,0.5650634765625,0.32012939453125,0.0665,-6.5,-15.375,-24.1875,8.99,-0.53,stop,6
7.3,1673434.058439164,25,3,3,3,3,-256.0,9.37,-3.46,1.3,0.37,-2.94,-1.67,-3.1875,4.9375,623.4375,0.4559326171875,0.56439208984375,0.32073974609375,0.0665,-6.5,-15.375,-24.1875,8.99,-0.51,stop,6
7.31,1673434.058439164,25,3,3,3,3,-198.0,8.61,-1.8,1.88,-0.38,-1.3,-2.47,1.3125,4.8125,623.875,0.45526123046875,0.5638427734375,0.32183837890625,0.0665,-6.5,-15.375,-24.125,8.99,-0.49,stop,6
7.32,1673434.089019567,25,3,3,3,3,-238.0,8.21,-1.06,1.47,-0.79,-0.59,-2.79,5.875,5.9375,624.125,0.4544677734375,0.56341552734375,0.3232421875,0.0665,-6.5,-15.375,-24.0625,9.0,-0.47,stop,6
7.33,1673434.089019567,25,3,3,3,3,-285.0,7.87,-0.56,0.98,-1.13,-0.1,-2.1,7.0625,8.1875,624.0625,0.4539794921875,0.5631103515625,0.3245849609375,0.0665,-6.5,-15.375,-24.0,9.01,-0.45,stop,6
7.34,1673434.096552689,25,3,3,3,3,-347.0,7.67,-0.35,0.35,-1.34,0.09,-1.09,9.75,9.4375,623.5625,0.45379638671875,0.56304931640625,0.32586669921875,0.0668,-6.5,-14.6875,-23.875,9.01,-0.45,stop,6
7.35,1673434.096552689,25,3,3,3,3,-441.0,7.53,-0.53,-0.6,-1.48,-0.07,0.07,14.25,10.6875,622.5625,0.45391845703125,0.56341552734375,0.32696533203125,0.0668,-6.5,-14.6875,-23.75,9.02,-0.46,stop,6
7.36,1673434.117656327,25,3,3,3,3,-454.0,7.7,-0.72,-0.75,-1.33,-0.24,0.83,17.75,10.6875,621.125,0.4542236328125,0.5640869140625,0.3280029296875,0.0668,-6.5,-14.6875,-23.625,9.03,-0.48,stop,6
7.37,1673434.117656327,25,3,3,3,3,-445.0,7.98,-0.97,-0.68,-1.05,-0.47,1.05,18.1875,9.0625,619.6875,0.4544677734375,0.56488037109375,0.328857421875,0.0668,-6.5,-14.6875,-23.5625,9.03,-0.5,stop,6
7.38,1673434.140650142,25,3,3,3,3,-416.0,8.61,-1.54,-0.4,-0.42,-1.01,0.95,17.1875,6.375,618.375,0.45465087890625,0.565673828125,0.32958984375,0.0668,-6.5,-14.6875,-23.5,9.04,-0.52,stop,6
7.39,1673434.140650142,25,3,3,3,3,-409.0,8.78,-1.66,-0.34,-0.25,-1.11,1.08,17.125,3.25,617.1875,0.45465087890625,0.566650390625,0.330078125,0.0668,-7.5625,-13.75,-23.4375,9.04,-0.54,stop,6
7.4,1673434.16277327,25,3,3,3,3,-398.0,8.89,-1.5,-0.23,-0.14,-0.93,2.01,16.6875,0.875,615.75,0.45489501953125,0.56787109375,0.3302001953125,0.0668,-7.5625,-13.75,-23.4375,9.04,-0.57,stop,6
7.41,1673434.16277327,25,3,3,3,3,-390.0,8.85,-1.27,-0.15,-0.18,-0.65,3.3,13.75,-0.5625,614.25,0.45550537109375,0.5692138671875,0.32965087890625,0.0668,-7.5625,-13.75,-23.4375,9.03,-0.61,stop,6
7.42,1673434.178264359,25,3,3,3,3,-391.0,8.84,-0.84,-0.15,-0.19,-0.18,4.02,10.25,-2.375,612.75,0.4564208984375,0.570556640625,0.3287353515625,0.0668,-7.5625,-13.75,-23.4375,9.03,-0.66,stop,6
7.43,1673434.178264359,25,3,3,3,3,-373.0,8.86,-0.8,0.02,-0.16,-0.09,3.86,6.5625,-4.8125,611.625,0.457275390625,0.57177734375,0.3275146484375,0.0668,-7.5625,-13.75,-23.5,9.02,-0.7,stop,6
7.44,1673434.192583329,25,3,3,3,3,-355.0,8.95,-0.86,0.21,-0.07,-0.13,3.14,1.0,-6.75,610.9375,0.4578857421875,0.57269287109375,0.32623291015625,0.0671,-7.5625,-13.0625,-23.5625,9.02,-0.73,stop,6
7.45,1673434.192583329,25,3,3,3,3,-348.0,9.06,-0.93,0.3,0.04,-0.17,2.33,-4.625,-7.5625,610.8125,0.45843505859375,0.57318115234375,0.32489013671875,0.0671,-7.5625,-13.0625,-23.625,9.01,-0.75,stop,6
7.46,1673434.222887081,25,3,3,3,3,-341.0,9.08,-1.18,0.38,0.08,-0.41,1.78,-9.0,-7.75,611.0,0.4588623046875,0.57330322265625,0.32354736328125,0.0671,-7.5625,-13.0625,-23.6875,9.0,-0.76,stop,6
7.47,1673434.222887081,25,3,3,3,3,-339.0,8.96,-1.18,0.41,-0.03,-0.4,1.51,-10.75,-7.25,611.375,0.45928955078125,0.57330322265625,0.322265625,0.0671,-7.5625,-13.0625,-23.8125,9.0,-0.77,stop,6
7.48,1673434.238093624,25,3,3,3,3,-340.0,8.94,-1.14,0.41,-0.05,-0.35,1.43,-10.3125,-6.375,611.75,0.459716796875,0.57330322265625,0.32110595703125,0.0671,-7.5625,-13.0625,-23.875,8.99,-0.78,stop,6
7.49,1673434.238093624,25,3,3,3,3,-337.0,9.0,-1.13,0.45,0.01,-0.34,1.51,-10.3125,-5.4375,612.0625,0.46026611328125,0.5732421875,0.31988525390625,0.0665,-8.25,-13.0625,-23.9375,8.99,-0.79,stop,6
7.5,1673434.252252844,25,3,3,3,3,-335.0,9.12,-1.02,0.48,0.13,-0.22,1.46,-11.5625,-4.1875,612.375,0.4608154296875,0.57305908203125,0.31878662109375,0.0665,-8.25,-13.0625,-24.0,8.98,-0.79,stop,6
7.51,1673434.252252844,25,3,3,3,3,-336.0,9.19,-0.99,0.01,0.05,0.05,1.24,-13.3125,-3.0625,595.5,0.47967529296875,0.56854248046875,0.32928466796875,0.0665,-8.25,-13.0625,-21.125,9.14,-1.04,stop,6
7.52,1673434.283416784,25,3,3,3,3,-328.0,9.2,-1.01,0.11,0.06,0.03,0.88,-15.9375,-1.5625,596.125,0.4803466796875,0.5679931640625,0.32830810546875,0.0665,-8.25,-13.0625,-21.1875,9.14,-1.04,stop,6
7.53,1673434.283416784,25,3,3,3,3,-318.0,9.2,-1.05,0.21,0.06,-0.01,0.46,-18.25,0.0,596.9375,0.48101806640625,0.567138671875,0.327392578125,0.0665,-8.25,-13.0625,-21.1875,9.14,-1.03,stop,6
7.54,1673434.297579219,25,3,3,3,3,-314.0,9.09,-1.04,0.24,-0.04,-0.01,0.07,-19.8125,1.875,597.875,0.481689453125,0.5660400390625,0.32666015625,0.0674,-8.0,-13.5,-21.1875,9.14,-1.02,stop,6
7.55,1673434.297579219,25,3,3,3,3,-331.0,8.96,-1.02,0.07,-0.18,0.0,-0.33,-19.5625,3.1875,598.8125,0.4822998046875,0.5648193359375,0.32611083984375,0.0674,-8.0,-13.5,-21.1875,9.14,-1.01,stop,6
7.56,1673434.313157588,25,3,3,3,3,-351.0,8.83,-0.98,-0.12,-0.31,0.01,-0.77,-17.5,4.0625,599.8125,0.4827880859375,0.56365966796875,0.3258056640625,0.0674,-8.0,-13.5,-21.1875,9.14,-0.99,stop,6
7.57,1673434.313157588,25,3,3,3,3,-381.0,8.57,-0.91,-0.43,-0.58,0.05,-1.25,-15.625,5.0,600.75,0.4830322265625,0.5623779296875,0.3258056640625,0.0674,-8.0,-13.5,-21.125,9.15,-0.97,stop,6
7.58,1673434.341866654,25,3,3,3,3,-389.0,8.45,-0.93,-0.51,-0.7,0.01,-1.71,-14.0,5.6875,601.75,0.48321533203125,0.5611572265625,0.3260498046875,0.0674,-8.0,-13.5,-21.0625,9.15,-0.94,stop,6
7.59,1673434.341866654,25,3,3,3,3,-386.0,8.38,-0.98,-0.49,-0.77,-0.07,-2.13,-13.0,6.4375,602.8125,0.48321533203125,0.559814453125,0.32647705078125,0.0671,-8.0,-14.6875,-21.0,9.16,-0.91,stop,6
7.6,1673434.356683874,25,3,3,3,3,-387.0,8.37,-0.96,-0.5,-0.79,-0.07,-2.47,-11.8125,6.5625,603.875,0.4830322265625,0.55853271484375,0.3270263671875,0.0671,-8.0,-14.6875,-21.0,9.16,-0.88,stop,6
7.61,1673434.356683874,25,3,3,3,3,-371.0,8.5,-0.91,-0.36,-0.66,-0.05,-2.73,-9.5625,6.25,604.875,0.48272705078125,0.5572509765625,0.32781982421875,0.0671,-8.0,-14.6875,-20.9375,9.17,-0.85,stop,6
7.62,1673434.372084631,25,3,3,3,3,-360.0,8.65,-0.88,-0.26,-0.52,-0.06,-2.83,-8.0,5.875,605.875,0.48236083984375,0.55609130859375,0.32861328125,0.0671,-8.0,-14.6875,-20.875,9.18,-0.82,stop,6
7.62,1673434.372084631,25,3,3,3,3,-360.0,8.65,-0.88,-0.26,-0.52,-0.06,-2.83,-8.0,5.875,605.875,0.48236083984375,0.55609130859375,0.32861328125,0.0671,-8.0,-14.6875,-20.875,9.18,-0.82,stop,6
7.63,1673434.386295446,25,3,3,3,3,-349.0,8.87,-0.86,-0.15,-0.31,-0.07,-2.72,-7.6875,5.6875,606.8125,0.48199462890625,0.55499267578125,0.32940673828125,0.0671,-8.0,-14.6875,-20.8125,9.18,-0.79,stop,6
7.64,1673434.386295446,25,3,3,3,3,-346.0,9.14,-0.83,-0.13,-0.05,-0.07,-2.44,-7.6875,5.1875,607.75,0.48162841796875,0.55389404296875,0.330078125,0.0657,-7.5625,-15.75,-20.75,9.19,-0.76,stop,6
7.65,1673434.402284297,25,3,3,3,3,-357.0,9.6,-1.0,-0.25,0.4,-0.26,-2.0,-8.375,4.75,608.5625,0.48150634765625,0.55291748046875,0.33056640625,0.0657,-7.5625,-15.75,-20.75,9.19,-0.73,stop,6
7.66,1673434.402284297,25,3,3,3,3,-363.0,9.75,-1.14,-0.31,0.55,-0.42,-1.53,-9.25,4.3125,609.25,0.4814453125,0.552001953125,0.33087158203125,0.0657,-7.5625,-15.75,-20.6875,9.2,-0.71,stop,6
7.67,1673434.434188676,25,3,3,3,3,-368.0,9.97,-1.28,-0.37,0.77,-0.58,-0.99,-8.75,3.9375,609.875,0.4815673828125,0.55120849609375,0.33099365234375,0.0657,-7.5625,-15.75,-20.6875,9.2,-0.7,stop,6
7.68,1673434.434188676,25,3,3,3,3,-369.0,10.11,-1.37,-0.38,0.91,-0.68,-0.37,-7.6875,3.8125,610.25,0.48187255859375,0.55059814453125,0.33099365234375,0.0657,-7.5625,-15.75,-20.625,9.2,-0.69,stop,6
7.69,1673434.446627274,25,3,3,3,3,-370.0,10.02,-1.53,-0.4,0.81,-0.83,0.27,-5.5,3.3125,610.3125,0.4822998046875,0.5501708984375,0.33087158203125,0.0668,-8.25,-15.375,-20.625,9.2,-0.69,stop,6
7.7,1673434.446627274,25,3,3,3,3,-370.0,9.89,-1.54,-0.4,0.68,-0.84,0.95,-3.0625,2.6875,610.125,0.4827880859375,0.55010986328125,0.33056640625,0.0668,-8.25,-15.375,-20.5625,9.2,-0.7,stop,6
7.71,1673434.462358598,25,3,3,3,3,-363.0,9.67,-1.48,-0.33,0.46,-0.77,1.54,-0.25,2.1875,609.625,0.4833984375,0.55029296875,0.3302001953125,0.0668,-8.25,-15.375,-20.5625,9.2,-0.71,stop,6
7.72,1673434.462358598,25,3,3,3,3,-341.0,9.24,-1.21,-0.12,0.03,-0.48,2.03,2.25,1.8125,608.9375,0.48406982421875,0.55072021484375,0.32977294921875,0.0668,-8.25,-15.375,-20.5625,9.2,-0.73,stop,6
7.73,1673434.493053422,25,3,3,3,3,-325.0,9.05,-1.02,0.03,-0.15,-0.26,2.44,4.6875,1.1875,608.0,0.48480224609375,0.55133056640625,0.32928466796875,0.0668,-8.25,-15.375,-20.5,9.2,-0.76,stop,6
7.74,1673434.493053422,25,3,3,3,3,-311.0,8.91,-0.83,0.17,-0.28,-0.04,2.69,5.5,1.125,606.9375,0.485595703125,0.55206298828125,0.32879638671875,0.0665,-8.25,-17.0,-20.5,9.2,-0.79,stop,6
7.75,1673434.507441931,25,3,3,3,3,-306.0,8.72,-0.58,0.22,-0.48,0.24,2.69,5.875,1.25,605.875,0.486328125,0.55279541015625,0.32830810546875,0.0665,-8.25,-17.0,-20.5,9.2,-0.82,stop,6
7.76,1673434.507441931,25,3,3,3,3,-323.0,8.69,-0.24,0.04,-0.51,0.61,2.43,5.375,1.5625,604.9375,0.487060546875,0.553466796875,0.327880859375,0.0665,-8.25,-17.0,-20.5,9.2,-0.85,stop,6
7.77,1673434.523177038,25,3,3,3,3,-332.0,8.75,-0.15,-0.05,-0.44,0.72,1.76,3.6875,1.3125,604.1875,0.487548828125,0.55389404296875,0.32757568359375,0.0665,-8.25,-17.0,-20.4375,9.2,-0.87,stop,6
7.78,1673434.523177038,25,3,3,3,3,-336.0,8.77,-0.21,-0.08,-0.42,0.67,0.88,2.4375,1.0625,603.8125,0.48785400390625,0.55413818359375,0.32745361328125,0.0665,-8.25,-17.0,-20.4375,9.2,-0.88,stop,6
7.79,1673434.554538326,25,3,3,3,3,-337.0,8.79,-0.36,-0.1,-0.4,0.52,0.19,2.3125,1.0625,603.625,0.4879150390625,0.55426025390625,0.3275146484375,0.0668,-8.25,-15.0,-20.4375,9.2,-0.88,stop,6
7.8,1673434.554538326,25,3,3,3,3,-342.0,8.77,-0.55,-0.15,-0.42,0.32,-0.2,2.6875,1.0,603.5,0.48779296875,0.5543212890625,0.3277587890625,0.0668,-8.25,-15.0,-20.4375,9.2,-0.88,stop,6
7.81,1673434.566985307,25,3,3,3,3,-344.0,8.75,-0.6,-0.17,-0.44,0.28,-0.42,3.0625,0.75,603.4375,0.48760986328125,0.55438232421875,0.32806396484375,0.0668,-8.25,-15.0,-20.4375,9.2,-0.88,stop,6
7.82,1673434.566985307,25,3,3,3,3,-343.0,8.7,-0.6,-0.16,-0.49,0.27,-0.57,3.5625,0.1875,603.6875,0.487060546875,0.554443359375,0.32830810546875,0.0668,-8.25,-15.0,-20.4375,9.2,-0.87,stop,6
7.83,1673434.581859737,25,3,3,3,3,-344.0,8.7,-0.58,-0.16,-0.49,0.27,-0.74,3.75,-0.8125,603.9375,0.4864501953125,0.5545654296875,0.32855224609375,0.0668,-8.25,-15.0,-20.5,9.2,-0.86,stop,6
7.84,1673434.581859737,25,3,3,3,3,-368.0,8.7,-0.6,-0.39,-0.49,0.24,-0.97,3.0,-1.5625,604.375,0.4857177734375,0.5546875,0.3287353515625,0.0657,-8.6875,-15.75,-20.5,9.19,-0.85,stop,6
7.85,1673434.613524206,25,3,3,3,3,-383.0,8.66,-0.67,-0.54,-0.53,0.17,-1.18,2.625,-2.6875,604.625,0.48516845703125,0.5546875,0.32904052734375,0.0657,-8.6875,-15.75,-20.5625,9.19,-0.84,stop,6
7.86,1673434.613524206,25,3,3,3,3,-395.0,8.71,-0.79,-0.65,-0.48,0.03,-1.38,3.3125,-2.8125,604.9375,0.48443603515625,0.55474853515625,0.3294677734375,0.0657,-8.6875,-15.75,-20.5625,9.19,-0.83,stop,6
7.87,1673434.626868729,25,3,3,3,3,-398.0,9.04,-0.89,-0.68,-0.15,-0.07,-1.55,4.8125,-2.875,605.1875,0.483642578125,0.55487060546875,0.33001708984375,0.0657,-8.6875,-15.75,-20.625,9.19,-0.82,stop,6
7.88,1673434.626868729,25,3,3,3,3,-386.0,9.25,-0.95,-0.56,0.05,-0.14,-1.56,6.4375,-2.5,605.375,0.48284912109375,0.5550537109375,0.33062744140625,0.0657,-8.6875,-15.75,-20.625,9.19,-0.8,stop,6
7.89,1673434.641478186,25,3,3,3,3,-375.0,9.49,-0.97,-0.44,0.29,-0.17,-1.28,7.6875,-2.375,605.4375,0.48211669921875,0.5552978515625,0.3311767578125,0.0665,-8.25,-14.6875,-20.625,9.19,-0.79,stop,6
7.89,1673434.641478186,25,3,3,3,3,-375.0,9.49,-0.97,-0.44,0.29,-0.17,-1.28,7.6875,-2.375,605.4375,0.48211669921875,0.5552978515625,0.3311767578125,0.0665,-8.25,-14.6875,-20.625,9.19,-0.79,stop,6
7.9,1673434.657603593,25,3,3,3,3,-362.0,9.68,-1.02,-0.31,0.49,-0.23,-0.84,8.5625,-2.3125,605.25,0.4814453125,0.5556640625,0.3316650390625,0.0665,-8.25,-14.6875,-20.6875,9.19,-0.79,stop,6
7.91,1673434.657603593,25,3,3,3,3,-332.0,9.85,-1.04,-0.01,0.65,-0.24,-0.31,8.625,-2.0625,605.0,0.48101806640625,0.55615234375,0.33203125,0.0665,-8.25,-14.6875,-20.6875,9.19,-0.79,stop,6
7.92,1673434.671908118,25,3,3,3,3,-322.0,9.78,-1.03,0.08,0.58,-0.22,0.19,7.6875,-1.75,604.625,0.48077392578125,0.55670166015625,0.33221435546875,0.0665,-8.25,-14.6875,-20.6875,9.19,-0.8,stop,6
7.93,1673434.671908118,25,3,3,3,3,-320.0,9.7,-1.05,0.11,0.51,-0.24,0.69,7.3125,-0.8125,604.0625,0.480712890625,0.5572509765625,0.33221435546875,0.0665,-8.25,-14.6875,-20.6875,9.19,-0.81,stop,6
7.94,1673434.701958736,25,3,3,3,3,-326.0,9.63,-1.1,0.04,0.43,-0.27,1.17,8.1875,0.3125,603.375,0.4808349609375,0.557861328125,0.33221435546875,0.0665,-8.0,-14.6875,-20.6875,9.19,-0.83,stop,6
7.95,1673434.701958736,25,3,3,3,3,-339.0,9.34,-0.97,-0.08,0.15,-0.11,1.67,9.75,1.3125,602.375,0.481201171875,0.55859375,0.33221435546875,0.0665,-8.0,-14.6875,-20.6875,9.19,-0.85,stop,6
7.96,1673434.717041581,25,3,3,3,3,-345.0,9.18,-0.82,-0.15,-0.01,0.05,2.09,11.125,2.0625,601.1875,0.48162841796875,0.55950927734375,0.33209228515625,0.0665,-8.0,-14.6875,-20.625,9.19,-0.88,stop,6
7.97,1673434.717041581,25,3,3,3,3,-350.0,9.01,-0.7,-0.2,-0.17,0.21,2.33,11.5,2.5625,599.9375,0.482177734375,0.5604248046875,0.33203125,0.0665,-8.0,-14.6875,-20.5625,9.18,-0.91,stop,6
7.98,1673434.731928951,25,3,3,3,3,-349.0,8.84,-0.6,-0.19,-0.33,0.34,2.4,11.5625,2.5625,598.625,0.48272705078125,0.56134033203125,0.3319091796875,0.0665,-8.0,-14.6875,-20.5625,9.18,-0.94,stop,6
7.99,1673434.731928951,25,3,3,3,3,-350.0,8.7,-0.46,-0.21,-0.48,0.51,2.34,11.0,2.3125,597.375,0.4832763671875,0.56219482421875,0.33172607421875,0.0661,-8.25,-13.5,-20.5,9.18,-0.97,stop,6
8.0,1673434.7613599,25,3,3,3,3,-352.0,8.65,-0.4,-0.23,-0.52,0.59,2.16,9.375,1.9375,596.25,0.4837646484375,0.56298828125,0.33160400390625,0.0661,-8.25,-13.5,-20.5,9.18,-1.0,stop,6
8.01,1673434.7613599,25,3,3,3,3,-349.0,8.72,-0.38,-0.21,-0.46,0.63,1.9,6.625,1.3125,595.375,0.4842529296875,0.56365966796875,0.33135986328125,0.0661,-8.25,-13.5,-20.5,9.18,-1.02,stop,6
8.02,1673434.77674845,25,3,3,3,3,-336.0,8.94,-0.46,-0.08,-0.24,0.57,1.52,3.75,0.875,594.75,0.484619140625,0.5640869140625,0.3310546875,0.0661,-8.25,-13.5,-20.4375,9.18,-1.04,stop,6
8.03,1673434.77674845,25,3,3,3,3,-334.0,8.96,-0.59,-0.06,-0.21,0.46,1.12,1.375,0.125,594.375,0.4849853515625,0.5643310546875,0.33074951171875,0.0661,-8.25,-13.5,-20.4375,9.18,-1.05,stop,6
8.04,1673434.792325232,25,3,3,3,3,-340.0,8.96,-0.69,-0.12,-0.21,0.36,0.82,-0.6875,0.0,594.1875,0.4852294921875,0.564453125,0.33050537109375,0.0674,-9.0,-13.75,-20.4375,9.18,-1.06,stop,6
8.05,1673434.792325232,25,3,3,3,3,-340.0,8.94,-0.75,-0.12,-0.23,0.29,0.6,-2.25,-0.1875,594.375,0.48529052734375,0.56439208984375,0.3302001953125,0.0674,-9.0,-13.75,-20.5,9.18,-1.05,stop,6
8.06,1673434.822735388,25,3,3,3,3,-337.0,8.95,-0.9,-0.09,-0.22,0.15,0.42,-3.5625,-0.3125,594.4375,0.48553466796875,0.56427001953125,0.32989501953125,0.0674,-9.0,-13.75,-20.5,9.17,-1.06,stop,6
8.07,1673434.822735388,25,3,3,3,3,-341.0,8.97,-0.93,-0.13,-0.2,0.12,0.22,-5.3125,-0.375,594.6875,0.4857177734375,0.56402587890625,0.32958984375,0.0674,-9.0,-13.75,-20.5,9.17,-1.06,stop,6
8.08,1673434.838278153,25,3,3,3,3,-349.0,8.96,-0.97,-0.2,-0.21,0.08,0.04,-6.4375,-0.5,595.0,0.48590087890625,0.563720703125,0.329345703125,0.0674,-9.0,-13.75,-20.5,9.17,-1.05,stop,6
8.09,1673434.838278153,25,3,3,3,3,-359.0,8.98,-0.97,-0.3,-0.19,0.07,-0.06,-7.4375,-0.4375,595.375,0.48614501953125,0.5633544921875,0.32904052734375,0.0661,-8.0,-14.25,-20.5,9.17,-1.05,stop,6
8.1,1673434.851989294,25,3,3,3,3,-379.0,9.1,-0.98,-0.5,-0.07,0.06,-0.16,-7.6875,-0.4375,595.8125,0.48626708984375,0.56292724609375,0.3287353515625,0.0661,-8.0,-14.25,-20.5,9.17,-1.04,stop,6
8.11,1673434.851989294,25,3,3,3,3,-383.0,9.16,-0.96,-0.54,-0.01,0.07,-0.16,-7.1875,-0.25,596.25,0.4864501953125,0.56256103515625,0.3284912109375,0.0661,-8.0,-14.25,-20.5625,9.17,-1.04,stop,6
8.12,1673434.882492957,25,3,3,3,3,-382.0,9.15,-0.99,-0.53,-0.02,0.04,-0.13,-6.1875,-0.125,596.5625,0.486572265625,0.56219482421875,0.3282470703125,0.0661,-8.0,-14.25,-20.5625,9.17,-1.03,stop,6
8.13,1673434.882492957,25,3,3,3,3,-379.0,9.11,-1.0,-0.5,-0.06,0.02,-0.11,-5.0,0.0,596.875,0.48663330078125,0.56195068359375,0.32806396484375,0.0661,-8.0,-14.25,-20.5625,9.17,-1.03,stop,6
8.14,1673434.896746619,25,3,3,3,3,-386.0,9.06,-1.09,-0.56,-0.1,-0.06,-0.12,-3.5,-0.3125,597.0625,0.4866943359375,0.561767578125,0.32794189453125,0.0665,-9.0,-13.75,-20.5625,9.17,-1.02,stop,6
8.15,1673434.896746619,25,3,3,3,3,-394.0,9.04,-1.09,-0.64,-0.13,-0.06,-0.12,-3.5,-0.3125,597.3125,0.48675537109375,0.5615234375,0.32781982421875,0.0665,-9.0,-13.75,-20.5625,9.17,-1.02,stop,6
8.16,1673434.912642777,25,3,3,3,3,-395.0,8.98,-1.09,-0.64,-0.18,-0.07,-0.06,-2.0,-0.375,597.625,0.48651123046875,0.561767578125,0.32733154296875,0.0665,-9.0,-13.75,-20.625,9.17,-1.02,stop,6
8.17,1673434.912642777,25,3,3,3,3,-391.0,8.97,-1.07,-0.59,-0.19,-0.04,0.11,-0.5,-0.5,597.8125,0.48626708984375,0.56207275390625,0.32684326171875,0.0665,-9.0,-13.75,-20.6875,9.17,-1.02,stop,6
8.18,1673434.94503682,25,3,3,3,3,-375.0,9.02,-1.0,-0.43,-0.14,0.02,0.3,0.1875,-0.5,597.875,0.48614501953125,0.56231689453125,0.32647705078125,0.0665,-9.0,-13.75,-20.75,9.16,-1.03,stop,6
8.19,1673434.94503682,25,3,3,3,3,-373.0,9.0,-0.94,-0.4,-0.15,0.08,0.56,1.5,-1.25,597.8125,0.48602294921875,0.56268310546875,0.3260498046875,0.0665,-8.25,-14.25,-20.8125,9.16,-1.03,stop,6
8.2,1673434.956890865,25,3,3,3,3,-369.0,8.99,-0.91,-0.35,-0.16,0.12,0.56,1.5,-1.25,597.75,0.48590087890625,0.56304931640625,0.32574462890625,0.0665,-8.25,-14.25,-20.875,9.16,-1.04,stop,6
8.21,1673434.956890865,25,3,3,3,3,-365.0,8.95,-0.9,-0.3,-0.2,0.14,0.61,2.4375,-1.4375,597.6875,0.48583984375,0.56341552734375,0.325439453125,0.0665,-8.25,-14.25,-20.875,9.15,-1.04,stop,6
8.22,1673434.97554622,25,3,3,3,3,-368.0,8.92,-0.9,-0.33,-0.22,0.14,0.63,2.6875,-1.5,597.5625,0.4857177734375,0.56378173828125,0.32513427734375,0.0665,-8.25,-14.25,-20.9375,9.15,-1.05,stop,6
8.23,1673434.97554622,25,3,3,3,3,-371.0,8.9,-0.95,-0.35,-0.24,0.1,0.66,2.8125,-1.5625,597.375,0.485595703125,0.564208984375,0.3248291015625,0.0665,-8.25,-14.25,-21.0,9.15,-1.06,stop,6
8.24,1673435.002017493,25,3,3,3,3,-373.0,8.9,-0.98,-0.36,-0.24,0.08,0.55,2.8125,-1.6875,597.3125,0.4854736328125,0.5645751953125,0.3245849609375,0.0668,-8.0,-14.25,-21.0,9.14,-1.06,stop,6
8.25,1673435.002017493,25,3,3,3,3,-377.0,8.91,-1.06,-0.39,-0.22,0.0,0.55,2.8125,-1.6875,597.1875,0.4853515625,0.56500244140625,0.32427978515625,0.0668,-8.0,-14.25,-21.0625,9.14,-1.07,stop,6
8.26,1673435.016545813,25,3,3,3,3,-380.0,9.0,-1.09,-0.41,-0.13,0.0,0.53,3.5,-1.875,597.0,0.48516845703125,0.56549072265625,0.323974609375,0.0668,-8.0,-14.25,-21.125,9.14,-1.08,stop,6
8.27,1673435.016545813,25,3,3,3,3,-376.0,9.04,-1.09,-0.37,-0.09,0.0,0.48,4.0,-2.125,596.875,0.48492431640625,0.56597900390625,0.32373046875,0.0668,-8.0,-14.25,-21.1875,9.13,-1.08,stop,6
8.28,1673435.031488033,25,3,3,3,3,-379.0,9.06,-1.11,-0.39,-0.06,-0.01,0.47,4.5625,-2.375,596.6875,0.4847412109375,0.56646728515625,0.323486328125,0.0668,-8.0,-14.25,-21.1875,9.13,-1.09,stop,6
8.29,1673435.031488033,25,3,3,3,3,-391.0,9.1,-1.17,-0.51,-0.02,-0.07,0.56,4.625,-2.4375,596.4375,0.4844970703125,0.56707763671875,0.32318115234375,0.0668,-8.0,-13.75,-21.25,9.12,-1.1,stop,6
8.3,1673435.061730953,25,3,3,3,3,-396.0,9.05,-1.21,-0.54,-0.06,-0.1,0.57,5.375,-2.3125,596.1875,0.4842529296875,0.56768798828125,0.3228759765625,0.0668,-8.0,-13.75,-21.3125,9.12,-1.11,stop,6
8.31,1673435.061730953,25,3,3,3,3,-393.0,8.99,-1.27,-0.5,-0.12,-0.15,0.57,7.1875,-2.0,595.875,0.48394775390625,0.5684814453125,0.32257080078125,0.0668,-8.0,-13.75,-21.375,9.11,-1.12,stop,6
8.32,1673435.076540727,25,3,3,3,3,-396.0,9.0,-1.24,-0.52,-0.1,-0.1,0.62,8.4375,-1.375,595.4375,0.483642578125,0.56927490234375,0.32232666015625,0.0668,-8.0,-13.75,-21.4375,9.11,-1.13,stop,6
8.33,1673435.076540727,25,3,3,3,3,-390.0,9.0,-1.12,-0.46,-0.1,0.02,0.62,8.375,-1.0,595.0,0.48333740234375,0.570068359375,0.32220458984375,0.0668,-8.0,-13.75,-21.5,9.11,-1.14,stop,6
8.34,1673435.09251204,25,3,3,3,3,-385.0,8.95,-1.09,-0.4,-0.15,0.06,0.61,8.0,-0.8125,594.5625,0.48309326171875,0.57073974609375,0.32208251953125,0.0668,-8.0,-13.5,-21.5,9.1,-1.15,stop,6
8.35,1673435.09251204,25,3,3,3,3,-381.0,8.96,-1.06,-0.36,-0.13,0.1,0.48,7.4375,-0.5625,594.1875,0.48284912109375,0.5712890625,0.32208251953125,0.0668,-8.0,-13.5,-21.5625,9.1,-1.16,stop,6
8.36,1673435.121970943,25,3,3,3,3,-377.0,9.16,-1.0,-0.31,0.06,0.17,0.34,6.75,-0.25,593.875,0.482666015625,0.57177734375,0.3221435546875,0.0668,-8.0,-13.5,-21.5625,9.1,-1.17,stop,6
8.37,1673435.121970943,25,3,3,3,3,-380.0,9.06,-1.02,-0.35,-0.03,0.15,0.15,7.0,-0.0625,593.625,0.48236083984375,0.57220458984375,0.322265625,0.0668,-8.0,-13.5,-21.5625,9.1,-1.17,stop,6
8.38,1673435.136494625,25,3,3,3,3,-387.0,8.9,-1.16,-0.41,-0.19,0.02,-0.02,8.0,0.0,593.3125,0.48199462890625,0.57269287109375,0.322509765625,0.0668,-8.0,-13.5,-21.5625,9.09,-1.18,stop,6
8.39,1673435.136494625,25,3,3,3,3,-398.0,8.72,-1.2,-0.52,-0.37,-0.02,-0.23,10.5625,0.375,593.0,0.48138427734375,0.57330322265625,0.32275390625,0.0668,-8.6875,-13.5,-21.625,9.09,-1.18,stop,6
8.4,1673435.154597042,25,3,3,3,3,-385.0,8.81,-1.11,-0.38,-0.27,0.06,-0.46,12.6875,0.6875,592.625,0.48077392578125,0.573974609375,0.3232421875,0.0668,-8.6875,-13.5,-21.625,9.09,-1.18,stop,6
8.41,1673435.154597042,25,3,3,3,3,-361.0,9.02,-1.0,-0.15,-0.06,0.18,-0.71,13.375,1.0,592.1875,0.4801025390625,0.57452392578125,0.323974609375,0.0668,-8.6875,-13.5,-21.625,9.09,-1.18,stop,6
8.42,1673435.167015784,25,3,3,3,3,-361.0,9.02,-1.0,-0.15,-0.06,0.18,-0.71,13.375,1.0,592.1875,0.4801025390625,0.57452392578125,0.323974609375,0.0668,-8.6875,-13.5,-21.625,9.09,-1.18,stop,6
8.42,1673435.167015784,25,3,3,3,3,-342.0,9.29,-0.87,0.03,0.19,0.3,-0.82,12.25,1.625,591.8125,0.4794921875,0.574951171875,0.3248291015625,0.0668,-8.6875,-13.5,-21.625,9.09,-1.18,stop,6
8.43,1673435.181678219,25,3,3,3,3,-323.0,9.45,-0.81,0.21,0.35,0.37,-0.83,10.25,2.625,591.4375,0.47906494140625,0.5751953125,0.32562255859375,0.0668,-8.6875,-13.5,-21.5625,9.1,-1.18,stop,6
8.44,1673435.181678219,25,3,3,3,3,-312.0,9.35,-0.89,0.32,0.24,0.28,-0.69,8.6875,3.4375,591.0625,0.478759765625,0.57537841796875,0.326416015625,0.0665,-8.25,-12.25,-21.5,9.1,-1.18,stop,6
8.45,1673435.212856279,25,3,3,3,3,-327.0,9.13,-0.99,0.16,0.02,0.18,-0.58,8.0625,4.3125,590.6875,0.478515625,0.57550048828125,0.3271484375,0.0665,-8.25,-12.25,-21.5,9.1,-1.18,stop,6
8.46,1673435.212856279,25,3,3,3,3,-340.0,8.9,-1.08,0.02,-0.2,0.09,-0.62,8.4375,4.6875,590.3125,0.47833251953125,0.57562255859375,0.327880859375,0.0665,-8.25,-12.25,-21.4375,9.11,-1.17,stop,6
8.47,1673435.227680538,25,3,3,3,3,-350.0,8.73,-1.13,-0.07,-0.37,0.03,-0.75,8.5,4.8125,589.9375,0.47808837890625,0.57574462890625,0.3287353515625,0.0665,-8.25,-12.25,-21.375,9.11,-1.17,stop,6
8.48,1673435.227680538,25,3,3,3,3,-350.0,8.67,-1.09,-0.08,-0.44,0.08,-0.9,8.0,4.6875,589.625,0.477783203125,0.5758056640625,0.32958984375,0.0665,-8.25,-12.25,-21.3125,9.11,-1.17,stop,6
8.49,1673435.242075069,25,3,3,3,3,-347.0,8.74,-1.03,-0.07,-0.37,0.13,-0.94,6.6875,4.375,589.4375,0.4775390625,0.57574462890625,0.33038330078125,0.0665,-8.25,-11.875,-21.25,9.12,-1.16,stop,6
8.5,1673435.242075069,25,3,3,3,3,-350.0,8.82,-0.98,-0.1,-0.3,0.17,-0.87,6.0625,3.9375,589.25,0.47723388671875,0.57574462890625,0.33111572265625,0.0665,-8.25,-11.875,-21.1875,9.12,-1.16,stop,6
8.51,1673435.27208748,25,3,3,3,3,-361.0,8.93,-0.96,-0.22,-0.19,0.19,-0.74,5.75,3.5625,589.0,0.47705078125,0.57574462890625,0.33172607421875,0.0665,-8.25,-11.875,-21.1875,9.12,-1.15,stop,6
8.52,1673435.27208748,25,3,3,3,3,-364.0,9.02,-0.96,-0.26,-0.1,0.19,-0.54,5.8125,3.1875,588.8125,0.47686767578125,0.5758056640625,0.33233642578125,0.0665,-8.25,-11.875,-21.125,9.13,-1.15,stop,6
8.53,1673435.287839636,25,3,3,3,3,-362.0,9.12,-1.02,-0.23,0.0,0.12,-0.37,5.375,3.0625,588.625,0.47662353515625,0.575927734375,0.332763671875,0.0665,-8.25,-11.875,-21.125,9.13,-1.15,stop,6
8.54,1673435.287839636,25,3,3,3,3,-355.0,9.16,-1.04,-0.17,0.02,0.11,-0.26,4.9375,2.875,588.375,0.4765625,0.57598876953125,0.33319091796875,0.0674,-9.0,-11.875,-21.0625,9.13,-1.15,moving,6
8.55,1673435.317492346,25,3,3,3,3,-353.0,9.19,-1.08,-0.16,0.06,0.07,-0.22,4.375,2.9375,588.125,0.47650146484375,0.5760498046875,0.33355712890625,0.0674,-9.0,-11.875,-21.0625,9.13,-1.15,moving,6
8.56,1673435.317492346,25,3,3,3,3,-352.0,9.23,-1.09,-0.15,0.09,0.06,-0.33,3.875,3.0625,587.875,0.4764404296875,0.5760498046875,0.333984375,0.0674,-9.0,-11.875,-21.0,9.13,-1.15,moving,6
8.57,1673435.333386308,25,3,3,3,3,-349.0,9.25,-1.0,-0.13,0.11,0.14,-0.55,3.9375,3.0625,587.75,0.47625732421875,0.5760498046875,0.33447265625,0.0674,-9.0,-11.875,-21.0,9.14,-1.15,moving,6
8.58,1673435.333386308,25,3,3,3,3,-342.0,9.21,-0.95,-0.07,0.07,0.18,-0.72,4.0,3.0625,587.6875,0.47601318359375,0.57598876953125,0.33502197265625,0.0674,-9.0,-11.875,-20.9375,9.14,-1.14,moving,6
8.59,1673435.347553707,25,3,3,3,3,-339.0,9.17,-0.91,-0.04,0.02,0.22,-0.81,4.125,2.9375,587.6875,0.47576904296875,0.57586669921875,0.33563232421875,0.0665,-9.0,-12.25,-20.9375,9.14,-1.13,moving,6
8.6,1673435.347553707,25,3,3,3,3,-337.0,9.14,-0.91,-0.02,0.0,0.21,-0.83,4.4375,2.875,587.625,0.4754638671875,0.5758056640625,0.336181640625,0.0665,-9.0,-12.25,-20.875,9.14,-1.13,moving,6
8.61,1673435.362593868,25,3,3,3,3,-333.0,9.18,-0.9,0.0,0.03,0.21,-0.88,4.5625,2.75,587.625,0.47515869140625,0.57574462890625,0.33685302734375,0.0665,-9.0,-12.25,-20.875,9.15,-1.12,moving,6
8.62,1673435.362593868,25,3,3,3,3,-333.0,9.19,-0.92,0.0,0.04,0.19,-0.93,3.75,2.5,587.625,0.474853515625,0.57562255859375,0.33740234375,0.0665,-9.0,-12.25,-20.8125,9.15,-1.11,moving,6
8.63,1673435.391996171,25,3,3,3,3,-336.0,9.14,-1.02,-0.03,-0.01,0.07,-0.97,3.5625,2.125,587.6875,0.47454833984375,0.5755615234375,0.3380126953125,0.0665,-9.0,-12.25,-20.8125,9.15,-1.1,moving,6
8.64,1673435.391996171,25,3,3,3,3,-337.0,9.14,-1.01,-0.04,-0.01,0.08,-0.98,3.5625,2.0,587.6875,0.47418212890625,0.575439453125,0.33856201171875,0.0674,-8.25,-11.5,-20.75,9.15,-1.09,moving,6
8.65,1673435.407902991,25,3,3,3,3,-338.0,9.12,-0.95,-0.06,-0.03,0.13,-0.92,3.875,1.8125,587.6875,0.473876953125,0.57537841796875,0.339111328125,0.0674,-8.25,-11.5,-20.75,9.16,-1.09,moving,6
8.66,1673435.407902991,25,3,3,3,3,-336.0,9.14,-0.85,-0.04,-0.01,0.23,-0.91,3.875,1.5,587.75,0.4735107421875,0.5753173828125,0.339599609375,0.0674,-8.25,-11.5,-20.75,9.16,-1.08,moving,6
8.67,1673435.422560502,25,3,3,3,3,-334.0,9.13,-0.74,-0.02,-0.03,0.32,-0.91,3.5625,0.9375,587.875,0.47308349609375,0.57525634765625,0.340087890625,0.0674,-8.25,-11.5,-20.75,9.16,-1.07,moving,6
8.68,1673435.422560502,25,3,3,3,3,-329.0,9.05,-0.67,0.03,-0.11,0.38,-0.91,3.5,0.4375,588.0,0.47265625,0.5751953125,0.340576171875,0.0674,-8.25,-11.5,-20.75,9.16,-1.06,moving,6
8.69,1673435.453643429,25,3,3,3,3,-321.0,8.93,-0.63,0.1,-0.23,0.42,-0.96,3.25,0.25,588.125,0.47222900390625,0.5751953125,0.34100341796875,0.0668,-8.6875,-11.5,-20.75,9.16,-1.05,moving,6
8.7,1673435.453643429,25,3,3,3,3,-310.0,8.68,-0.43,0.21,-0.48,0.61,-1.07,3.0,0.0,588.25,0.4718017578125,0.57513427734375,0.34149169921875,0.0668,-8.6875,-11.5,-20.75,9.16,-1.04,moving,6
8.71,1673435.467527665,25,3,3,3,3,-297.0,8.35,-0.44,0.34,-0.81,0.58,-1.28,2.75,-0.25,588.4375,0.4713134765625,0.5750732421875,0.34197998046875,0.0668,-8.6875,-11.5,-20.75,9.16,-1.03,moving,6
8.72,1673435.467527665,25,3,3,3,3,-297.0,8.35,-0.44,0.34,-0.81,0.58,-1.28,2.75,-0.25,588.4375,0.4713134765625,0.5750732421875,0.34197998046875,0.0668,-8.6875,-11.5,-20.75,9.16,-1.03,moving,6
8.72,1673435.482825883,25,3,3,3,3,-276.0,7.82,-0.55,0.55,-1.35,0.46,-1.55,2.625,-0.5,588.75,0.470703125,0.57489013671875,0.34259033203125,0.0668,-8.6875,-11.5,-20.6875,9.17,-1.02,moving,6
8.73,1673435.482825883,25,3,3,3,3,-252.0,7.14,-0.74,0.79,-2.02,0.26,-1.93,2.625,-0.625,589.125,0.469970703125,0.57470703125,0.34326171875,0.0668,-8.6875,-11.5,-20.75,9.17,-1.0,moving,6
8.74,1673435.496764238,25,3,3,3,3,-206.0,5.82,-0.75,1.25,-3.34,0.22,-2.33,2.75,-0.5,589.625,0.46917724609375,0.57440185546875,0.3441162109375,0.0671,-8.6875,-11.1875,-20.75,9.17,-0.98,moving,6
8.75,1673435.496764238,25,3,3,3,3,-182.0,5.21,-0.67,1.49,-3.96,0.28,-2.7,2.8125,-0.1875,590.1875,0.46820068359375,0.57403564453125,0.3450927734375,0.0671,-8.6875,-11.1875,-20.6875,9.17,-0.95,moving,6
8.76,1673435.51254561,25,3,3,3,3,-160.0,4.65,-0.4,1.71,-4.52,0.52,-2.92,3.1875,-0.3125,590.75,0.46722412109375,0.57366943359375,0.34613037109375,0.0671,-8.6875,-11.1875,-20.6875,9.18,-0.92,moving,6
8.77,1673435.51254561,25,3,3,3,3,-148.0,4.22,-0.13,1.83,-4.95,0.76,-2.76,3.125,-0.1875,591.3125,0.46624755859375,0.57330322265625,0.34710693359375,0.0671,-8.6875,-11.1875,-20.6875,9.18,-0.9,moving,6
8.78,1673435.54262874,25,3,3,3,3,-124.0,3.72,0.15,2.07,-5.45,1.03,-2.25,2.8125,0.0,591.8125,0.4654541015625,0.572998046875,0.347900390625,0.0671,-8.6875,-11.1875,-20.6875,9.18,-0.88,moving,6
8.79,1673435.54262874,25,3,3,3,3,-111.0,3.78,0.25,2.2,-5.39,1.12,-1.69,3.5,0.625,592.0,0.46484375,0.57281494140625,0.3486328125,0.0665,-8.25,-10.75,-20.6875,9.18,-0.86,moving,6
8.8,1673435.558980017,25,3,3,3,3,-111.0,4.37,0.47,2.2,-4.81,1.32,-1.0,3.5625,1.625,592.0625,0.4644775390625,0.57275390625,0.34918212890625,0.0665,-8.25,-10.75,-20.6875,9.18,-0.85,moving,6
8.81,1673435.558980017,25,3,3,3,3,-135.0,5.63,0.72,1.95,-3.55,1.58,-0.32,1.375,2.9375,592.0,0.4644775390625,0.5726318359375,0.3494873046875,0.0665,-8.25,-10.75,-20.625,9.19,-0.85,moving,6
8.82,1673435.571802975,25,3,3,3,3,-239.0,9.33,0.86,0.91,0.14,1.72,0.12,-3.3125,3.0,592.0625,0.4647216796875,0.5723876953125,0.34942626953125,0.0665,-8.25,-10.75,-20.625,9.19,-0.85,moving,6
8.83,1673435.571802975,25,3,3,3,3,-357.0,12.4,0.8,-0.27,3.2,1.65,0.21,-6.75,2.8125,592.25,0.46514892578125,0.57196044921875,0.3492431640625,0.0665,-8.25,-10.75,-20.625,9.19,-0.85,moving,6
8.84,1673435.617664099,25,3,3,3,3,-527.0,16.17,0.84,-1.98,6.97,1.69,-0.54,-4.625,3.125,592.5625,0.46527099609375,0.57147216796875,0.349365234375,0.0674,-9.375,-10.375,-20.5625,9.19,-0.84,moving,6
8.85,1673435.617664099,25,3,3,3,3,-799.0,21.4,-0.88,-4.7,12.2,-0.05,-1.89,9.125,5.3125,592.375,0.46466064453125,0.57135009765625,0.35064697265625,0.0674,-9.375,-10.375,-20.5,9.2,-0.83,moving,6
8.86,1673435.623370032,25,3,3,3,3,-858.0,21.82,-2.23,-5.3,12.61,-1.42,-3.64,27.25,4.4375,591.8125,0.462890625,0.57183837890625,0.35308837890625,0.0674,-9.375,-10.375,-20.4375,9.2,-0.8,moving,6
8.87,1673435.623370032,25,3,3,3,3,-867.0,21.72,-3.29,-5.4,12.5,-2.51,-4.55,19.9375,1.6875,591.9375,0.4609375,0.5718994140625,0.35540771484375,0.0674,-9.375,-10.375,-20.4375,9.21,-0.77,moving,6
8.88,1673435.632588497,25,3,3,3,3,-689.0,21.13,-4.1,-3.61,11.91,-3.37,-4.27,-1.625,0.125,593.125,0.4595947265625,0.57098388671875,0.356689453125,0.0674,-9.375,-10.375,-20.4375,9.21,-0.73,moving,6
8.89,1673435.632588497,25,3,3,3,3,-549.0,20.37,-2.06,-2.22,11.15,-1.36,-2.66,2.5,1.5,593.625,0.458740234375,0.570556640625,0.357666015625,0.0671,-8.6875,-11.1875,-20.375,9.21,-0.7,moving,6
8.9,1673435.663411333,25,3,3,3,3,-569.0,19.6,-0.42,-2.43,10.38,0.28,0.0,0.5,1.3125,593.625,0.45880126953125,0.57049560546875,0.35772705078125,0.0671,-8.6875,-11.1875,-20.375,9.21,-0.7,moving,6
8.91,1673435.663411333,25,3,3,3,3,-554.0,20.21,0.64,-2.27,10.99,1.39,4.37,-8.0,2.375,592.8125,0.4605712890625,0.57080078125,0.356201171875,0.0671,-8.6875,-11.1875,-20.375,9.21,-0.74,moving,6
8.92,1673435.677174231,25,3,3,3,3,-507.0,20.46,1.23,-1.81,11.24,2.03,6.55,-15.5625,5.3125,591.75,0.46337890625,0.57110595703125,0.35382080078125,0.0671,-8.6875,-11.1875,-20.3125,9.21,-0.8,moving,6
8.93,1673435.677174231,25,3,3,3,3,-455.0,20.9,1.25,-1.31,11.69,2.09,5.2,-17.75,11.0,591.0,0.46612548828125,0.57073974609375,0.35198974609375,0.0671,-8.6875,-11.1875,-20.25,9.21,-0.84,moving,6
8.94,1673435.691916948,25,3,3,3,3,-439.0,19.78,0.7,-1.17,10.56,1.55,1.8,-16.8125,17.75,590.8125,0.46807861328125,0.56951904296875,0.3516845703125,0.0668,-8.25,-10.75,-20.0625,9.22,-0.85,moving,6
8.95,1673435.691916948,25,3,3,3,3,-428.0,17.21,-0.45,-1.1,7.97,0.37,-1.76,-12.75,22.375,591.25,0.468994140625,0.56756591796875,0.35284423828125,0.0668,-8.25,-10.75,-19.875,9.23,-0.82,moving,6
8.96,1673435.722579139,25,3,3,3,3,-448.0,14.24,-1.4,-1.33,4.98,-0.61,-3.53,-1.3125,23.75,591.5,0.4691162109375,0.56585693359375,0.3551025390625,0.0668,-8.25,-10.75,-19.625,9.25,-0.78,moving,6
8.97,1673435.722579139,25,3,3,3,3,-534.0,9.29,-1.49,-2.23,0.02,-0.74,-3.72,6.625,21.9375,591.4375,0.46881103515625,0.5645751953125,0.35760498046875,0.0668,-8.25,-10.75,-19.375,9.27,-0.75,moving,6
8.98,1673435.740157915,25,3,3,3,3,-516.0,6.74,-1.26,-2.08,-2.53,-0.54,-3.79,8.4375,18.5,591.4375,0.46826171875,0.5634765625,0.360107421875,0.0668,-8.25,-10.75,-19.1875,9.28,-0.72,moving,6
8.99,1673435.740157915,25,3,3,3,3,-469.0,4.59,-0.94,-1.64,-4.69,-0.26,-3.81,7.125,17.3125,591.5,0.46771240234375,0.5623779296875,0.3624267578125,0.0665,-10.5,-12.6875,-19.0,9.29,-0.68,moving,6
9.0,1673435.753348914,25,3,3,3,3,-469.0,4.59,-0.94,-1.64,-4.69,-0.26,-3.81,7.125,17.3125,591.5,0.46771240234375,0.5623779296875,0.3624267578125,0.0665,-10.5,-12.6875,-19.0,9.29,-0.68,moving,6
9.0,1673435.753348914,25,3,3,3,3,-224.0,1.42,-0.77,0.77,-7.88,-0.12,-3.34,0.5,17.0,591.8125,0.46746826171875,0.56097412109375,0.36431884765625,0.0665,-10.5,-12.6875,-18.8125,9.3,-0.65,moving,6
9.01,1673435.767518266,25,3,3,3,3,-137.0,0.32,-0.76,1.61,-8.99,-0.13,-2.02,-3.3125,16.875,592.0,0.4677734375,0.55975341796875,0.36566162109375,0.0665,-10.5,-12.6875,-18.6875,9.31,-0.62,moving,6
9.02,1673435.767518266,25,3,3,3,3,-62.0,-0.77,-0.72,2.33,-10.1,-0.09,-0.55,0.4375,16.0625,591.625,0.4683837890625,0.5589599609375,0.36663818359375,0.0665,-10.5,-12.6875,-18.5,9.32,-0.62,moving,6
9.03,1673435.782503984,25,3,3,3,3,-21.0,-1.55,-0.38,2.72,-10.88,0.25,0.59,7.125,16.8125,590.5625,0.4691162109375,0.5587158203125,0.36761474609375,0.0665,-10.5,-12.6875,-18.3125,9.33,-0.63,moving,6
9.04,1673435.782503984,25,3,3,3,3,9.0,-2.64,0.47,2.99,-11.99,1.13,1.87,12.1875,19.5,588.8125,0.47027587890625,0.55889892578125,0.3685302734375,0.0665,-11.1875,-11.5,-18.125,9.34,-0.65,moving,6
9.05,1673435.812260169,25,3,3,3,3,46.0,-3.4,0.72,3.33,-12.75,1.42,2.74,15.4375,19.8125,586.6875,0.47161865234375,0.5594482421875,0.36932373046875,0.0665,-11.1875,-11.5,-17.9375,9.35,-0.69,moving,6
9.06,1673435.812260169,25,3,3,3,3,69.0,-3.77,1.05,3.53,-13.12,1.79,3.38,17.6875,15.3125,584.4375,0.47283935546875,0.56036376953125,0.3697509765625,0.0665,-11.1875,-11.5,-17.75,9.35,-0.73,moving,6
9.07,1673435.826872392,25,3,3,3,3,31.0,-3.45,1.03,3.14,-12.81,1.81,3.13,26.3125,11.9375,581.875,0.4735107421875,0.56182861328125,0.3704833984375,0.0665,-11.1875,-11.5,-17.625,9.35,-0.78,moving,6
9.08,1673435.826872392,25,3,3,3,3,6.0,-1.22,1.44,2.87,-10.58,2.25,0.63,40.3125,4.25,579.5625,0.47259521484375,0.563720703125,0.3721923828125,0.0665,-11.1875,-11.5,-17.5,9.36,-0.8,moving,6
9.09,1673435.842808671,25,3,3,3,3,1.0,0.18,1.7,2.82,-9.17,2.51,-1.76,49.5,-1.0,577.5625,0.47039794921875,0.56585693359375,0.37469482421875,0.0661,-14.5,-10.75,-17.5,9.36,-0.81,moving,6
9.1,1673435.842808671,25,3,3,3,3,8.0,1.53,1.6,2.88,-7.82,2.38,-4.7,45.625,-2.8125,576.5625,0.46728515625,0.5672607421875,0.37786865234375,0.0661,-14.5,-10.75,-17.5,9.36,-0.78,moving,6
9.11,1673435.872354936,25,3,3,3,3,-3.0,2.32,1.06,2.76,-7.04,1.79,-6.99,39.75,-0.9375,576.4375,0.4637451171875,0.56781005859375,0.381591796875,0.0661,-14.5,-10.75,-17.4375,9.37,-0.73,moving,6
9.12,1673435.872354936,25,3,3,3,3,-128.0,2.19,0.54,1.51,-7.17,1.22,-6.62,29.25,-3.125,576.8125,0.4605712890625,0.5679931640625,0.38470458984375,0.0661,-14.5,-10.75,-17.4375,9.37,-0.68,moving,6
9.13,1673435.887158159,25,3,3,3,3,-181.0,2.19,0.3,0.99,-7.18,0.95,-3.41,17.625,-5.3125,576.9375,0.45867919921875,0.56829833984375,0.38623046875,0.0661,-14.5,-10.75,-17.5,9.37,-0.65,moving,6
9.14,1673435.887158159,25,3,3,3,3,-222.0,2.52,-0.07,0.58,-6.84,0.6,1.54,10.8125,-1.9375,576.125,0.45867919921875,0.56927490234375,0.38604736328125,0.0661,-15.1875,-8.375,-17.5,9.37,-0.67,moving,6
9.15,1673435.90365824,25,3,3,3,3,-143.0,2.32,-0.87,1.37,-7.04,-0.14,5.01,13.4375,1.0625,574.125,0.45977783203125,0.5709228515625,0.3851318359375,0.0661,-15.1875,-8.375,-17.5,9.36,-0.73,moving,6
9.16,1673435.90365824,25,3,3,3,3,-117.0,1.97,-0.91,1.62,-7.38,-0.1,6.29,17.875,1.0,571.5625,0.461181640625,0.57305908203125,0.3839111328125,0.0661,-15.1875,-8.375,-17.5,9.36,-0.8,moving,6
9.17,1673435.932182329,25,3,3,3,3,-87.0,1.52,-1.06,1.92,-7.82,-0.18,6.4,14.5625,0.25,569.1875,0.46258544921875,0.57513427734375,0.38250732421875,0.0661,-15.1875,-8.375,-17.4375,9.35,-0.87,moving,6
9.18,1673435.932182329,25,3,3,3,3,-65.0,1.4,-1.23,2.14,-7.94,-0.29,5.73,9.125,-1.1875,567.25,0.46392822265625,0.5767822265625,0.38104248046875,0.0661,-15.1875,-8.375,-17.4375,9.35,-0.94,moving,6
9.19,1673435.947444943,25,3,3,3,3,-70.0,1.89,-1.15,2.09,-7.45,-0.16,5.02,8.125,-3.375,565.6875,0.46502685546875,0.578369140625,0.37957763671875,0.0665,-14.0625,-8.0,-17.5,9.34,-0.99,moving,6
9.2,1673435.947444943,25,3,3,3,3,-80.0,2.81,-0.85,2.01,-6.52,0.19,5.11,8.0625,-7.125,564.1875,0.4659423828125,0.580078125,0.37799072265625,0.0665,-14.0625,-8.0,-17.5625,9.33,-1.05,moving,6
9.21,1673435.96367415,25,3,3,3,3,-115.0,4.55,0.03,1.67,-4.76,1.15,6.51,5.4375,-12.6875,562.625,0.467041015625,0.58221435546875,0.37554931640625,0.0665,-14.0625,-8.0,-17.6875,9.32,-1.11,moving,6
9.22,1673435.96367415,25,3,3,3,3,-205.0,7.42,1.41,0.81,-1.87,2.61,8.55,-4.1875,-18.3125,561.25,0.46881103515625,0.58447265625,0.37176513671875,0.0665,-14.0625,-8.0,-17.875,9.3,-1.2,moving,6
9.23,1673435.992306596,25,3,3,3,3,-647.0,20.22,5.21,-3.57,10.94,6.5,9.51,-18.75,-23.25,560.5,0.47100830078125,0.58648681640625,0.3668212890625,0.0665,-14.0625,-8.0,-18.125,9.27,-1.29,moving,6
9.24,1673435.992306596,25,3,3,3,3,-1120.0,32.57,7.34,-8.25,23.31,8.68,6.15,-35.8125,-20.125,561.4375,0.47296142578125,0.5867919921875,0.3624267578125,0.0671,-14.5,-6.875,-18.375,9.25,-1.33,moving,6
9.25,1673436.010136023,25,3,3,3,3,-1513.0,38.48,8.89,-12.1,29.24,10.15,-2.52,-87.5,-41.6875,568.0625,0.4727783203125,0.58380126953125,0.35760498046875,0.0671,-14.5,-6.875,-18.9375,9.23,-1.26,moving,6
9.26,1673436.010136023,25,3,3,3,3,-1513.0,38.48,8.89,-12.1,29.24,10.15,-2.52,-87.5,-41.6875,568.0625,0.4727783203125,0.58380126953125,0.35760498046875,0.0671,-14.5,-6.875,-18.9375,9.23,-1.26,moving,6
9.26,1673436.021876421,25,3,3,3,3,-1181.0,38.52,6.5,-8.67,29.28,7.52,-18.08,-115.375,-49.875,580.4375,0.46832275390625,0.57666015625,0.356201171875,0.0671,-14.5,-6.875,-19.5625,9.23,-1.01,moving,6
9.27,1673436.021876421,25,3,3,3,3,-1166.0,39.04,-13.18,-8.5,29.78,-12.52,-32.41,-53.5625,-2.3125,591.625,0.45977783203125,0.56768798828125,0.364013671875,0.0671,-14.5,-6.875,-19.6875,9.26,-0.66,moving,6
9.28,1673436.037835568,25,3,3,3,3,-1040.0,35.75,-6.1,-7.26,26.46,-5.74,-29.88,-1.0,9.5625,599.0,0.45074462890625,0.56121826171875,0.3736572265625,0.0671,-14.5,-6.875,-19.5625,9.28,-0.35,moving,6
9.29,1673436.037835568,25,3,3,3,3,-730.0,26.53,-5.73,-4.15,17.24,-5.65,-25.24,-28.3125,-8.0,607.0,0.44317626953125,0.55487060546875,0.37982177734375,0.0671,-12.0,-8.5,-19.625,9.28,-0.08,moving,6
9.3,1673436.052178138,25,3,3,3,3,-565.0,21.57,-4.0,-2.5,12.28,-4.03,-11.3,0.8125,1.375,609.75,0.4395751953125,0.552490234375,0.38336181640625,0.0671,-12.0,-8.5,-19.625,9.28,0.03,moving,6
9.31,1673436.052178138,25,3,3,3,3,-564.0,19.5,-2.37,-2.5,10.21,-2.4,-1.28,21.0625,6.0625,608.8125,0.438720703125,0.5531005859375,0.3848876953125,0.0671,-12.0,-8.5,-19.5625,9.29,0.03,moving,6
9.32,1673436.082700314,25,3,3,3,3,-480.0,17.42,-2.26,-1.67,8.13,-2.28,-0.27,19.9375,5.3125,607.75,0.43817138671875,0.5538330078125,0.38604736328125,0.0671,-12.0,-8.5,-19.5,9.29,0.02,moving,6
9.33,1673436.082700314,25,3,3,3,3,-481.0,15.34,-1.43,-1.69,6.04,-1.44,-0.98,40.8125,4.0625,605.8125,0.43670654296875,0.55560302734375,0.38812255859375,0.0671,-12.0,-8.5,-19.5,9.29,0.01,moving,6
9.34,1673436.096972571,25,3,3,3,3,-377.0,8.18,-1.12,-0.65,-1.11,-1.17,-4.82,33.4375,0.75,605.3125,0.43402099609375,0.55621337890625,0.390869140625,0.0668,-9.375,-11.5,-19.5,9.29,0.04,moving,6
9.35,1673436.096972571,25,3,3,3,3,-309.0,5.09,-1.16,0.02,-4.2,-1.26,-6.01,10.625,-0.1875,606.25,0.43170166015625,0.55548095703125,0.39312744140625,0.0668,-9.375,-11.5,-19.5,9.29,0.09,moving,6
9.36,1673436.113202593,25,3,3,3,3,-237.0,2.45,-0.87,0.74,-6.83,-1.0,-2.03,-6.0,1.9375,607.0,0.43133544921875,0.5546875,0.39361572265625,0.0668,-9.375,-11.5,-19.4375,9.29,0.12,moving,6
9.37,1673436.113202593,25,3,3,3,3,-186.0,0.58,-0.41,1.24,-8.71,-0.51,3.58,-23.1875,2.8125,607.1875,0.43341064453125,0.55413818359375,0.39178466796875,0.0668,-9.375,-11.5,-19.4375,9.29,0.1,moving,6
9.38,1673436.142418738,25,3,3,3,3,-23.0,-2.86,0.25,2.87,-12.16,0.22,9.36,-33.25,1.625,606.5,0.4376220703125,0.5543212890625,0.3878173828125,0.0668,-9.375,-11.5,-19.4375,9.3,0.02,moving,6
9.39,1673436.142418738,25,3,3,3,3,39.0,-3.78,0.56,3.5,-13.08,0.66,14.1,-33.9375,3.8125,604.625,0.4434814453125,0.55535888671875,0.3824462890625,0.0671,-10.75,-10.375,-19.375,9.3,-0.1,moving,6
9.4,1673436.157619544,25,3,3,3,3,106.0,-4.35,0.82,4.16,-13.65,1.06,15.78,-37.375,5.125,602.375,0.4500732421875,0.5565185546875,0.37646484375,0.0671,-10.75,-10.375,-19.3125,9.3,-0.24,moving,6
9.41,1673436.157619544,25,3,3,3,3,153.0,-5.03,0.6,4.62,-14.33,1.0,17.52,-27.8125,4.375,599.1875,0.456787109375,0.5584716796875,0.3702392578125,0.0671,-10.75,-10.375,-19.3125,9.29,-0.4,moving,6
9.42,1673436.174004676,25,3,3,3,3,197.0,-4.44,-0.16,5.06,-13.73,0.41,18.18,-1.6875,3.4375,594.5,0.4627685546875,0.5618896484375,0.36480712890625,0.0671,-10.75,-10.375,-19.25,9.28,-0.58,moving,6
9.43,1673436.174004676,25,3,3,3,3,147.0,-2.93,0.9,4.55,-12.21,1.66,15.46,32.1875,0.75,588.875,0.46661376953125,0.5665283203125,0.36138916015625,0.0671,-10.75,-10.375,-19.25,9.27,-0.75,moving,6
9.44,1673436.203465858,25,3,3,3,3,34.0,-0.57,1.59,3.42,-9.84,2.5,11.62,64.9375,-5.3125,582.6875,0.46795654296875,0.572265625,0.36016845703125,0.0668,-12.6875,-11.875,-19.25,9.26,-0.91,moving,6
9.45,1673436.203465858,25,3,3,3,3,-81.0,1.27,2.87,2.28,-7.97,3.87,3.47,85.0,-14.8125,577.9375,0.465576171875,0.5777587890625,0.36181640625,0.0668,-12.6875,-11.875,-19.3125,9.25,-0.99,moving,6
9.46,1673436.218006426,25,3,3,3,3,-130.0,1.69,3.77,1.79,-7.55,4.78,-3.41,93.1875,-15.25,574.5,0.4608154296875,0.582275390625,0.36590576171875,0.0668,-12.6875,-11.875,-19.3125,9.24,-1.0,moving,6
9.47,1673436.218006426,25,3,3,3,3,-128.0,1.94,3.07,1.82,-7.29,4.07,-5.13,81.8125,-12.1875,571.9375,0.45599365234375,0.585693359375,0.3702392578125,0.0668,-12.6875,-11.875,-19.375,9.24,-0.99,moving,6
9.48,1673436.249563432,25,3,3,3,3,-137.0,1.83,2.49,1.73,-7.41,3.5,-2.07,63.625,-7.9375,569.4375,0.452880859375,0.58868408203125,0.373046875,0.0668,-12.6875,-11.875,-19.375,9.24,-1.01,moving,6
9.49,1673436.249563432,25,3,3,3,3,-126.0,1.53,1.13,1.84,-7.7,2.2,4.14,41.1875,-3.6875,566.375,0.45257568359375,0.5916748046875,0.3731689453125,0.0665,-13.375,-8.5,-19.375,9.23,-1.07,moving,6
9.5,1673436.277998817,25,3,3,3,3,-92.0,1.19,0.66,2.18,-8.02,1.84,9.25,19.3125,-1.25,563.0625,0.45465087890625,0.594482421875,0.370849609375,0.0665,-13.375,-8.5,-19.375,9.22,-1.17,moving,6
9.51,1673436.277998817,25,3,3,3,3,-51.0,0.66,0.18,2.59,-8.55,1.47,10.9,4.0625,-0.9375,560.125,0.45770263671875,0.596923828125,0.367431640625,0.0665,-13.375,-8.5,-19.375,9.21,-1.29,moving,6
9.52,1673436.283496497,25,3,3,3,3,-51.0,0.66,0.18,2.59,-8.55,1.47,10.9,4.0625,-0.9375,560.125,0.45770263671875,0.596923828125,0.367431640625,0.0665,-13.375,-8.5,-19.375,9.21,-1.29,moving,6
9.52,1673436.283496497,25,3,3,3,3,-13.0,0.16,-0.45,2.97,-9.02,0.93,10.11,-3.0,-1.1875,557.75,0.460693359375,0.59881591796875,0.36395263671875,0.0665,-13.375,-8.5,-19.375,9.19,-1.38,moving,6
9.53,1673436.29223132,25,3,3,3,3,10.0,-0.31,-1.58,3.22,-9.49,-0.11,8.3,-0.0625,-2.625,555.6875,0.4630126953125,0.6005859375,0.36114501953125,0.0665,-13.375,-8.5,-19.4375,9.18,-1.47,moving,6
9.54,1673436.29223132,25,3,3,3,3,-27.0,-0.24,-1.27,2.84,-9.41,0.25,5.96,4.8125,-4.6875,554.0625,0.46435546875,0.6021728515625,0.35919189453125,0.0674,-13.0,-6.0625,-19.4375,9.16,-1.53,moving,6
9.55,1673436.307970659,25,3,3,3,3,-59.0,0.16,-1.69,2.52,-8.98,-0.1,5.16,8.25,-6.4375,552.5,0.46527099609375,0.60382080078125,0.35748291015625,0.0674,-13.0,-6.0625,-19.5,9.15,-1.58,moving,6
9.56,1673436.307970659,25,3,3,3,3,-87.0,0.53,-1.69,2.26,-8.6,-0.05,3.86,10.8125,-8.8125,551.1875,0.465576171875,0.60540771484375,0.35626220703125,0.0674,-13.0,-6.0625,-19.5625,9.14,-1.63,moving,6
9.57,1673436.337800941,25,3,3,3,3,-224.0,3.05,-1.4,0.9,-6.08,0.26,2.53,12.9375,-10.3125,550.1875,0.46539306640625,0.60693359375,0.35546875,0.0674,-13.0,-6.0625,-19.6875,9.13,-1.66,moving,6
9.58,1673436.337800941,25,3,3,3,3,-333.0,5.95,-0.52,-0.16,-3.16,1.15,0.95,12.0625,-14.125,549.75,0.46453857421875,0.6082763671875,0.35498046875,0.0674,-13.0,-6.0625,-19.8125,9.12,-1.68,moving,6
9.59,1673436.352562781,25,3,3,3,3,-497.0,9.96,1.06,-1.77,0.84,2.74,-1.5,8.0625,-19.5,550.375,0.4627685546875,0.609130859375,0.3548583984375,0.0674,-12.0,-3.375,-19.9375,9.11,-1.67,moving,6
9.6,1673436.352562781,25,3,3,3,3,-749.0,16.82,3.48,-4.27,7.7,5.1,-6.23,27.125,-21.1875,551.1875,0.458984375,0.61004638671875,0.3570556640625,0.0674,-12.0,-3.375,-20.125,9.11,-1.62,moving,6
9.61,1673436.366966875,25,3,3,3,3,-1759.0,39.04,7.65,-14.31,29.9,9.01,-25.2,-29.9375,-30.375,560.1875,0.4508056640625,0.6048583984375,0.36279296875,0.0674,-12.0,-3.375,-20.5,9.14,-1.35,moving,6
9.62,1673436.366966875,25,3,3,3,3,-1766.0,38.97,1.8,-14.29,29.79,2.58,-49.94,-120.0,-42.125,580.375,0.43731689453125,0.59063720703125,0.37237548828125,0.0674,-12.0,-3.375,-21.0625,9.17,-0.78,moving,6
9.63,1673436.397612627,25,3,3,3,3,-861.0,39.04,-19.68,-5.23,29.84,-19.41,-46.76,-77.3125,1.375,595.6875,0.42523193359375,0.57708740234375,0.3843994140625,0.0674,-12.0,-3.375,-21.0625,9.2,-0.27,moving,6
9.64,1673436.397612627,25,3,3,3,3,-1401.0,32.59,-10.75,-10.65,23.38,-10.72,-26.22,41.6875,9.9375,599.375,0.41595458984375,0.5732421875,0.3946533203125,0.0682,-10.1875,-3.375,-21.0,9.21,-0.03,moving,6
9.65,1673436.412236325,25,3,3,3,3,-1161.0,24.81,-4.35,-8.24,15.6,-4.34,-3.5,10.5,-4.25,599.8125,0.41424560546875,0.57318115234375,0.39593505859375,0.0682,-10.1875,-3.375,-21.0,9.21,0.0,moving,6
9.66,1673436.412236325,25,3,3,3,3,-1030.0,26.5,-0.96,-6.96,17.29,-0.74,20.45,15.875,14.125,593.75,0.4208984375,0.577880859375,0.39080810546875,0.0682,-10.1875,-3.375,-20.875,9.21,-0.21,moving,6
9.67,1673436.427908525,25,3,3,3,3,-873.0,25.9,1.91,-5.41,16.68,2.33,18.61,23.0,13.5,587.6875,0.4266357421875,0.58245849609375,0.38641357421875,0.0682,-10.1875,-3.375,-20.75,9.21,-0.41,moving,6
9.68,1673436.427908525,25,3,3,3,3,-425.0,18.56,2.13,-0.95,9.34,2.58,3.49,-3.8125,10.6875,586.6875,0.42840576171875,0.58258056640625,0.38568115234375,0.0682,-10.1875,-3.375,-20.625,9.22,-0.45,moving,6
9.69,1673436.442366899,25,3,3,3,3,-446.0,15.12,0.85,-1.17,5.89,1.25,-6.03,9.1875,7.625,587.4375,0.42657470703125,0.58148193359375,0.38836669921875,0.0674,-7.5625,-7.25,-20.5625,9.22,-0.39,moving,6
9.7,1673436.442366899,25,3,3,3,3,-431.0,10.54,-1.27,-1.02,1.31,-0.96,-9.26,18.1875,4.0625,588.5625,0.42327880859375,0.580322265625,0.39215087890625,0.0674,-7.5625,-7.25,-20.5,9.23,-0.31,moving,6
9.71,1673436.474448686,25,3,3,3,3,-390.0,7.07,-2.72,-0.62,-2.16,-2.48,-7.15,6.875,2.0625,589.8125,0.42083740234375,0.57904052734375,0.394775390625,0.0674,-7.5625,-7.25,-20.5,9.23,-0.24,moving,6
9.72,1673436.474448686,25,3,3,3,3,-238.0,1.17,-2.18,0.89,-8.06,-1.97,-1.98,-13.3125,3.125,590.875,0.42083740234375,0.57781982421875,0.39508056640625,0.0674,-7.5625,-7.25,-20.4375,9.23,-0.21,moving,6
9.73,1673436.487578854,25,3,3,3,3,-137.0,-0.94,-1.74,1.91,-10.18,-1.53,1.06,-41.3125,-1.3125,592.8125,0.42254638671875,0.57598876953125,0.39312744140625,0.0674,-7.5625,-7.25,-20.5,9.23,-0.2,moving,6
9.74,1673436.487578854,25,3,3,3,3,-38.0,-2.45,-1.0,2.91,-11.68,-0.8,3.27,-60.3125,-9.8125,595.5,0.42510986328125,0.57403564453125,0.38934326171875,0.0674,-10.1875,-6.875,-20.625,9.23,-0.2,moving,6
9.75,1673436.518158281,25,3,3,3,3,46.0,-3.34,-0.37,3.79,-12.56,-0.13,6.8,-62.6875,-14.4375,597.5625,0.42864990234375,0.57281494140625,0.3841552734375,0.0674,-10.1875,-6.875,-20.75,9.22,-0.23,moving,6
9.76,1673436.518158281,25,3,3,3,3,131.0,-4.08,0.8,4.66,-13.29,1.09,9.95,-63.375,-14.875,598.9375,0.43316650390625,0.57220458984375,0.3779296875,0.0674,-10.1875,-6.875,-20.9375,9.21,-0.29,moving,6
9.77,1673436.523932736,25,3,3,3,3,158.0,-4.54,1.09,4.96,-13.74,1.48,12.37,-54.4375,-11.125,599.125,0.43829345703125,0.5723876953125,0.37139892578125,0.0674,-10.1875,-6.875,-21.0625,9.19,-0.38,moving,6
9.78,1673436.523932736,25,3,3,3,3,158.0,-4.54,1.09,4.96,-13.74,1.48,12.37,-54.4375,-11.125,599.125,0.43829345703125,0.5723876953125,0.37139892578125,0.0674,-10.1875,-6.875,-21.0625,9.19,-0.38,moving,6
9.78,1673436.548819414,25,3,3,3,3,199.0,-4.07,1.18,5.37,-13.26,1.7,14.29,-28.0,-3.5,597.125,0.443603515625,0.573974609375,0.36566162109375,0.0674,-10.1875,-6.875,-21.125,9.19,-0.51,moving,6
9.79,1673436.548819414,25,3,3,3,3,48.0,-2.97,0.55,3.86,-12.16,1.21,13.58,6.5625,3.625,593.3125,0.44781494140625,0.57684326171875,0.36181640625,0.0671,-12.0,-8.0,-21.0625,9.18,-0.65,moving,6
9.8,1673436.562629147,25,3,3,3,3,-70.0,-1.39,0.99,2.66,-10.57,1.77,10.62,28.0625,1.5625,589.1875,0.45037841796875,0.580322265625,0.35968017578125,0.0671,-12.0,-8.0,-21.0625,9.17,-0.77,moving,6
9.81,1673436.562629147,25,3,3,3,3,-103.0,0.22,1.49,2.34,-8.94,2.38,8.2,47.0625,-4.375,584.8125,0.45123291015625,0.58447265625,0.35870361328125,0.0671,-12.0,-8.0,-21.0625,9.16,-0.88,moving,6
9.82,1673436.592914059,25,3,3,3,3,-130.0,1.09,2.1,2.06,-8.06,3.07,4.37,57.9375,-6.125,580.875,0.450439453125,0.58843994140625,0.3592529296875,0.0671,-12.0,-8.0,-21.0625,9.15,-0.96,moving,6
9.83,1673436.592914059,25,3,3,3,3,-167.0,1.57,2.61,1.69,-7.58,3.61,0.41,63.25,-5.1875,577.625,0.44830322265625,0.59185791015625,0.361328125,0.0671,-12.0,-8.0,-21.0625,9.15,-1.0,moving,6
9.84,1673436.59859627,25,3,3,3,3,-198.0,1.48,2.49,1.38,-7.67,3.52,-0.32,55.0,-1.5625,574.875,0.44635009765625,0.59454345703125,0.36346435546875,0.0671,-12.25,-9.1875,-21.0,9.15,-1.03,moving,6
9.85,1673436.59859627,25,3,3,3,3,-175.0,1.38,1.82,1.6,-7.76,2.89,2.19,34.8125,2.375,572.4375,0.446044921875,0.5965576171875,0.3642578125,0.0671,-12.25,-9.1875,-20.9375,9.15,-1.07,moving,6
9.86,1673436.62215645,25,3,3,3,3,-111.0,1.04,1.21,2.23,-8.1,2.34,4.91,20.1875,4.1875,570.0,0.44708251953125,0.598388671875,0.3636474609375,0.0671,-12.25,-9.1875,-20.875,9.14,-1.13,moving,6
9.87,1673436.62215645,25,3,3,3,3,-52.0,0.15,-0.21,2.8,-8.98,0.99,6.58,15.0,2.9375,567.4375,0.44873046875,0.60028076171875,0.3621826171875,0.0671,-12.25,-9.1875,-20.8125,9.14,-1.21,moving,6
9.88,1673436.636413286,25,3,3,3,3,-54.0,0.13,-0.84,2.79,-8.99,0.43,6.76,9.6875,0.25,565.25,0.450439453125,0.60211181640625,0.3603515625,0.0671,-12.25,-9.1875,-20.8125,9.13,-1.28,moving,6
9.89,1673436.636413286,25,3,3,3,3,-66.0,0.15,-1.38,2.66,-8.96,-0.03,5.83,7.125,-1.0,563.5,0.451904296875,0.6036376953125,0.358642578125,0.0665,-12.25,-6.0625,-20.8125,9.12,-1.34,moving,6
9.9,1673436.668182777,25,3,3,3,3,-94.0,0.05,-1.25,2.38,-9.06,0.13,4.55,5.3125,-1.5625,562.125,0.4530029296875,0.60479736328125,0.3572998046875,0.0665,-12.25,-6.0625,-20.8125,9.11,-1.39,moving,6
9.91,1673436.668182777,25,3,3,3,3,-103.0,0.21,-1.57,2.31,-8.89,-0.13,4.2,8.8125,-3.3125,560.6875,0.45379638671875,0.606201171875,0.3560791015625,0.0665,-12.25,-6.0625,-20.875,9.1,-1.43,moving,6
9.92,1673436.682980303,25,3,3,3,3,-106.0,0.4,-1.73,2.27,-8.69,-0.24,3.7,16.3125,-5.125,559.0625,0.4541015625,0.60791015625,0.355224609375,0.0665,-12.25,-6.0625,-20.875,9.09,-1.48,moving,6
9.93,1673436.682980303,25,3,3,3,3,-126.0,0.78,-1.78,2.08,-8.3,-0.25,2.61,24.9375,-6.8125,557.25,0.4537353515625,0.60986328125,0.35504150390625,0.0665,-12.25,-6.0625,-20.9375,9.08,-1.52,moving,6
9.94,1673436.698650306,25,3,3,3,3,-133.0,1.36,-1.65,2.01,-7.71,-0.09,1.26,32.1875,-7.9375,555.4375,0.45263671875,0.6119384765625,0.35552978515625,0.0682,-12.6875,-4.5625,-20.9375,9.08,-1.55,moving,6
9.95,1673436.698650306,25,3,3,3,3,-164.0,3.74,-0.81,1.71,-5.33,0.76,0.44,33.5,-8.9375,553.8125,0.45123291015625,0.614013671875,0.35626220703125,0.0682,-12.6875,-4.5625,-21.0,9.07,-1.58,moving,6
9.96,1673436.728447588,25,3,3,3,3,-234.0,6.66,-0.06,1.02,-2.4,1.53,0.01,26.8125,-10.4375,552.6875,0.4498291015625,0.61566162109375,0.3568115234375,0.0682,-12.6875,-4.5625,-21.0,9.07,-1.59,moving,6
9.97,1673436.728447588,25,3,3,3,3,-363.0,11.21,1.16,-0.25,2.15,2.74,-1.5,13.25,-5.8125,552.5,0.4486083984375,0.61627197265625,0.3575439453125,0.0682,-12.6875,-4.5625,-21.0625,9.06,-1.58,moving,6
9.98,1673436.742282915,25,3,3,3,3,-1023.0,33.39,2.04,-6.89,24.3,3.58,-5.79,12.0,16.25,552.8125,0.4473876953125,0.61505126953125,0.3607177734375,0.0682,-12.6875,-4.5625,-20.875,9.08,-1.53,moving,6
9.99,1673436.742282915,25,3,3,3,3,-1429.0,39.04,1.93,-11.0,29.89,3.23,-22.61,-33.1875,41.25,558.9375,0.4439697265625,0.60736083984375,0.368896484375,0.0686,-10.75,-1.5,-20.5,9.14,-1.29,moving,6
10.0,1673436.757073117,25,3,3,3,3,-1650.0,39.02,-6.26,-13.24,29.8,-5.52,-51.75,-63.8125,27.875,574.0625,0.431884765625,0.59259033203125,0.38470458984375,0.0686,-10.75,-1.5,-20.3125,9.22,-0.73,moving,6
10.01,1673436.757073117,25,3,3,3,3,-1281.0,39.04,-26.47,-9.57,29.78,-26.33,-59.87,5.125,11.3125,587.5625,0.41375732421875,0.57952880859375,0.40460205078125,0.0686,-10.75,-1.5,-20.1875,9.25,-0.13,moving,6
10.02,1673436.774695513,25,3,3,3,3,-1653.0,28.66,-8.73,-13.27,19.41,-8.82,-26.86,72.0,-10.5,590.3125,0.4022216796875,0.57757568359375,0.41510009765625,0.0686,-10.75,-1.5,-20.3125,9.24,0.09,moving,6
10.03,1673436.774695513,25,3,3,3,3,-1653.0,28.66,-8.73,-13.27,19.41,-8.82,-26.86,72.0,-10.5,590.3125,0.4022216796875,0.57757568359375,0.41510009765625,0.0686,-10.75,-1.5,-20.3125,9.24,0.09,moving,6
10.03,1673436.787601885,25,3,3,3,3,-1009.0,25.16,-2.02,-6.82,15.92,-1.97,14.94,-4.125,-3.3125,587.3125,0.4068603515625,0.580810546875,0.4100341796875,0.0686,-10.75,-1.5,-20.375,9.24,-0.05,moving,6
10.04,1673436.787601885,25,3,3,3,3,-720.0,29.94,2.34,-3.97,20.69,2.77,35.34,18.5625,17.875,577.5625,0.4180908203125,0.58892822265625,0.4002685546875,0.0671,-10.5,-3.375,-20.1875,9.24,-0.42,moving,6
10.05,1673436.803078285,25,3,3,3,3,-611.0,28.37,4.85,-2.92,19.12,5.59,29.67,29.9375,25.4375,568.0625,0.42742919921875,0.59588623046875,0.39306640625,0.0671,-10.5,-3.375,-19.875,9.24,-0.74,moving,6
10.06,1673436.803078285,25,3,3,3,3,-254.0,18.17,2.07,0.62,8.93,2.91,10.49,-1.0625,12.9375,565.1875,0.4312744140625,0.59759521484375,0.39019775390625,0.0671,-10.5,-3.375,-19.75,9.24,-0.84,moving,6
10.07,1673436.833482622,25,3,3,3,3,-311.0,14.38,1.2,0.05,5.13,1.97,-7.52,-3.1875,2.125,567.0625,0.42919921875,0.59576416015625,0.39263916015625,0.0671,-10.5,-3.375,-19.75,9.24,-0.76,moving,6
10.08,1673436.833482622,25,3,3,3,3,-451.0,10.65,-0.72,-1.33,1.39,-0.1,-14.68,-3.5625,-6.0,571.0,0.424560546875,0.5926513671875,0.39691162109375,0.0671,-10.5,-3.375,-19.8125,9.25,-0.61,moving,6
10.09,1673436.847876462,25,3,3,3,3,-475.0,7.82,-4.19,-1.55,-1.42,-3.68,-9.71,-19.1875,-7.8125,574.5625,0.421875,0.58990478515625,0.39898681640625,0.0671,-11.5625,-2.5625,-19.9375,9.25,-0.5,moving,6
10.1,1673436.847876462,25,3,3,3,3,-285.0,2.49,-4.54,0.35,-6.76,-4.07,-2.09,-37.3125,-5.625,577.25,0.4222412109375,0.58782958984375,0.39794921875,0.0671,-11.5625,-2.5625,-20.0,9.25,-0.46,moving,6
10.11,1673436.862629147,25,3,3,3,3,-182.0,1.01,-3.63,1.39,-8.23,-3.15,4.22,-46.25,-4.25,578.8125,0.42486572265625,0.586669921875,0.3946533203125,0.0671,-11.5625,-2.5625,-20.0625,9.25,-0.48,moving,6
10.12,1673436.862629147,25,3,3,3,3,-89.0,-0.61,-2.64,2.33,-9.86,-2.09,8.55,-50.25,-6.25,579.6875,0.428955078125,0.58624267578125,0.3897705078125,0.0671,-11.5625,-2.5625,-20.1875,9.24,-0.54,moving,6
10.13,1673436.892279579,25,3,3,3,3,66.0,-3.01,-1.33,3.91,-12.24,-0.69,12.57,-48.6875,-6.625,579.4375,0.43408203125,0.58673095703125,0.383544921875,0.0671,-11.5625,-2.5625,-20.25,9.23,-0.64,moving,6
10.14,1673436.892279579,25,3,3,3,3,103.0,-3.46,-1.06,4.29,-12.67,-0.27,16.96,-36.4375,-3.4375,577.3125,0.44036865234375,0.588623046875,0.37652587890625,0.0679,-12.6875,-4.1875,-20.3125,9.21,-0.79,moving,6
10.15,1673436.906379798,25,3,3,3,3,69.0,-4.12,-0.76,3.94,-13.32,0.21,20.19,-19.875,2.625,573.25,0.44732666015625,0.5916748046875,0.369384765625,0.0679,-12.6875,-4.1875,-20.3125,9.19,-0.98,moving,6
10.16,1673436.906379798,25,3,3,3,3,12.0,-4.39,-0.19,3.37,-13.57,0.99,20.81,0.1875,5.0625,567.875,0.45391845703125,0.59564208984375,0.36285400390625,0.0679,-12.6875,-4.1875,-20.25,9.17,-1.19,moving,6
10.17,1673436.937864011,25,3,3,3,3,-140.0,-3.54,1.51,1.83,-12.69,2.9,17.97,26.1875,3.4375,561.75,0.4586181640625,0.60028076171875,0.35821533203125,0.0679,-12.6875,-4.1875,-20.1875,9.15,-1.38,moving,6
10.18,1673436.937864011,25,3,3,3,3,-171.0,-1.55,2.42,1.52,-10.68,3.95,11.37,52.8125,-6.1875,556.1875,0.46002197265625,0.60528564453125,0.35626220703125,0.0679,-12.6875,-4.1875,-20.1875,9.13,-1.53,moving,6
10.19,1673436.952779782,25,3,3,3,3,-171.0,-0.12,2.82,1.52,-9.24,4.43,4.24,64.4375,-11.75,552.0,0.45867919921875,0.60968017578125,0.35687255859375,0.0673,-13.75,-5.0,-20.1875,9.11,-1.6,moving,6
10.2,1673436.952779782,25,3,3,3,3,-157.0,0.51,2.95,1.66,-8.59,4.58,-0.54,57.625,-10.75,549.375,0.45611572265625,0.61273193359375,0.35882568359375,0.0673,-13.75,-5.0,-20.1875,9.11,-1.63,moving,6
10.21,1673436.967227617,25,3,3,3,3,-121.0,1.59,2.14,2.02,-7.51,3.79,-1.55,42.625,-9.9375,547.75,0.45379638671875,0.61480712890625,0.36053466796875,0.0673,-13.75,-5.0,-20.25,9.1,-1.64,moving,6
10.22,1673436.967227617,25,3,3,3,3,-46.0,1.65,1.66,2.77,-7.45,3.32,0.33,27.6875,-7.1875,546.375,0.45257568359375,0.616455078125,0.36114501953125,0.0673,-13.75,-5.0,-20.25,9.1,-1.66,moving,6
10.23,1673436.998689002,25,3,3,3,3,-26.0,1.29,1.2,2.98,-7.8,2.9,2.27,16.5625,-4.875,545.0625,0.45245361328125,0.61785888671875,0.36083984375,0.0673,-13.75,-5.0,-20.25,9.09,-1.69,moving,6
10.24,1673436.998689002,25,3,3,3,3,-33.0,1.14,0.65,2.92,-7.93,2.39,3.73,8.125,-3.5,543.75,0.45306396484375,0.619140625,0.35968017578125,0.0669,-14.5,-3.0,-20.3125,9.08,-1.73,moving,6
10.25,1673437.012734453,25,3,3,3,3,-35.0,1.07,-0.76,2.9,-7.99,1.01,4.12,1.125,-2.4375,542.75,0.4541015625,0.6201171875,0.35821533203125,0.0669,-14.5,-3.0,-20.3125,9.07,-1.77,moving,6
10.26,1673437.012734453,25,3,3,3,3,-30.0,0.9,-1.18,2.95,-8.16,0.63,3.69,1.3125,-1.875,541.8125,0.45501708984375,0.6209716796875,0.35693359375,0.0669,-14.5,-3.0,-20.3125,9.06,-1.81,moving,6
10.27,1673437.028323605,25,3,3,3,3,-28.0,0.72,-1.32,2.97,-8.33,0.53,3.77,7.625,-1.0625,540.5,0.455810546875,0.62213134765625,0.35589599609375,0.0669,-14.5,-3.0,-20.3125,9.06,-1.85,moving,6
10.28,1673437.028323605,25,3,3,3,3,-12.0,0.43,-1.21,3.12,-8.61,0.68,4.08,15.9375,-0.4375,538.5625,0.4564208984375,0.6236572265625,0.3551025390625,0.0669,-14.5,-3.0,-20.3125,9.05,-1.9,moving,6
10.29,1673437.052532224,25,3,3,3,3,-3.0,0.32,-0.96,3.2,-8.72,0.99,4.09,24.8125,0.375,536.125,0.45684814453125,0.6256103515625,0.35467529296875,0.0669,-13.75,-1.0625,-20.25,9.04,-1.96,moving,6
10.3,1673437.052532224,25,3,3,3,3,-3.0,0.32,-0.96,3.2,-8.72,0.99,4.09,24.8125,0.375,536.125,0.45684814453125,0.6256103515625,0.35467529296875,0.0669,-13.75,-1.0625,-20.25,9.04,-1.96,moving,6
10.3,1673437.060462643,25,3,3,3,3,-3.0,0.12,-0.79,3.19,-8.91,1.22,3.74,30.625,1.25,533.4375,0.45703125,0.627685546875,0.35467529296875,0.0669,-13.75,-1.0625,-20.1875,9.03,-2.01,moving,6
10.31,1673437.060462643,25,3,3,3,3,-1.0,-0.07,-0.76,3.2,-9.1,1.29,2.99,32.3125,1.625,530.8125,0.45697021484375,0.629638671875,0.35498046875,0.0669,-13.75,-1.0625,-20.125,9.02,-2.06,moving,6
10.32,1673437.08805737,25,3,3,3,3,1.0,0.12,-0.6,3.22,-8.9,1.49,2.34,31.125,2.0625,528.375,0.45672607421875,0.6314697265625,0.35552978515625,0.0669,-13.75,-1.0625,-20.0,9.02,-2.1,moving,6
10.33,1673437.08805737,25,3,3,3,3,-40.0,1.2,-0.38,2.78,-7.81,1.75,2.55,26.5625,3.6875,526.125,0.45684814453125,0.63299560546875,0.3558349609375,0.0669,-13.75,-1.0625,-19.9375,9.02,-2.14,moving,6
10.34,1673437.103633623,25,3,3,3,3,-128.0,3.35,-0.15,1.88,-5.66,2.03,3.23,18.125,7.6875,524.0625,0.45758056640625,0.6341552734375,0.35577392578125,0.0676,-13.375,0.0625,-19.8125,9.01,-2.18,moving,6
10.35,1673437.103633623,25,3,3,3,3,-254.0,6.66,0.3,0.6,-2.35,2.53,3.66,3.0625,14.375,522.5,0.45928955078125,0.6343994140625,0.35528564453125,0.0676,-13.375,0.0625,-19.625,9.01,-2.22,moving,6
10.36,1673437.117483477,25,3,3,3,3,-666.0,18.67,2.74,-3.54,9.64,4.99,3.39,-15.9375,23.0625,521.8125,0.4620361328125,0.6334228515625,0.35443115234375,0.0676,-13.375,0.0625,-19.4375,9.02,-2.24,moving,6
10.37,1673437.117483477,25,3,3,3,3,-1238.0,34.41,2.83,-9.32,25.36,5.05,-1.15,-32.0,42.125,522.5625,0.4649658203125,0.630126953125,0.35540771484375,0.0676,-13.375,0.0625,-19.125,9.04,-2.22,moving,6
10.38,1673437.147263262,25,3,3,3,3,-1692.0,39.04,2.68,-13.89,29.92,4.65,-21.2,-85.8125,45.3125,531.4375,0.46417236328125,0.62030029296875,0.3612060546875,0.0676,-13.375,0.0625,-18.875,9.11,-1.96,moving,6
10.39,1673437.147263262,25,3,3,3,3,-1513.0,38.84,-1.66,-12.12,29.62,-0.23,-51.32,-37.25,17.25,546.0625,0.4515380859375,0.6075439453125,0.377685546875,0.0676,-13.0,1.1875,-18.75,9.22,-1.43,moving,6
10.4,1673437.162638384,25,3,3,3,3,-1342.0,39.04,-14.12,-10.39,29.74,-13.39,-70.39,27.75,-16.8125,562.4375,0.428955078125,0.59454345703125,0.4010009765625,0.0676,-13.0,1.1875,-18.9375,9.29,-0.73,moving,6
10.41,1673437.162638384,25,3,3,3,3,-1126.0,37.81,-16.22,-8.22,28.49,-15.98,-50.48,24.375,-6.0625,573.25,0.4124755859375,0.584716796875,0.41778564453125,0.0676,-13.0,1.1875,-18.9375,9.32,-0.23,moving,6
10.42,1673437.178800046,25,3,3,3,3,-654.0,28.79,-10.7,-3.48,19.47,-10.62,-16.51,17.875,-7.6875,576.4375,0.4063720703125,0.58209228515625,0.42333984375,0.0676,-13.0,1.1875,-19.0625,9.31,-0.07,moving,6
10.43,1673437.178800046,25,3,3,3,3,-251.0,21.91,-4.48,0.5,12.58,-4.25,14.49,6.4375,21.25,572.0,0.41162109375,0.5849609375,0.41998291015625,0.0676,-13.0,1.1875,-18.8125,9.32,-0.22,moving,6
10.44,1673437.208167152,25,3,3,3,3,-421.0,18.83,-1.76,-1.25,9.5,-1.28,24.03,18.625,31.1875,564.25,0.4197998046875,0.5902099609375,0.4144287109375,0.0674,-12.25,-1.75,-18.5,9.33,-0.48,moving,6
10.45,1673437.208167152,25,3,3,3,3,-513.0,16.91,-0.55,-2.2,7.57,0.12,18.5,16.9375,21.375,558.1875,0.42584228515625,0.59442138671875,0.41009521484375,0.0674,-12.25,-1.75,-18.3125,9.33,-0.67,moving,6
10.46,1673437.222133054,25,3,3,3,3,-433.0,13.16,0.44,-1.41,3.82,1.16,3.79,4.9375,6.25,556.8125,0.4271240234375,0.59527587890625,0.4093017578125,0.0674,-12.25,-1.75,-18.1875,9.33,-0.72,moving,6
10.47,1673437.222133054,25,3,3,3,3,-262.0,6.7,0.65,0.29,-2.63,1.33,-4.85,6.9375,1.9375,557.5,0.425537109375,0.594482421875,0.4112548828125,0.0674,-12.25,-1.75,-18.1875,9.33,-0.67,moving,6
10.48,1673437.238707964,25,3,3,3,3,-273.0,4.2,-0.04,0.16,-5.13,0.59,-4.02,21.0,7.25,557.125,0.4239501953125,0.59429931640625,0.41363525390625,0.0674,-12.25,-1.75,-18.125,9.34,-0.64,moving,6
10.49,1673437.238707964,25,3,3,3,3,-223.0,2.31,-1.7,0.64,-7.03,-1.05,-0.41,19.625,14.5,555.625,0.423828125,0.5946044921875,0.4151611328125,0.0682,-14.0625,-1.5,-17.9375,9.35,-0.65,moving,6
10.5,1673437.267635129,25,3,3,3,3,-194.0,0.85,-1.8,0.89,-8.5,-1.09,4.45,15.6875,18.5,553.0625,0.425537109375,0.595703125,0.4151611328125,0.0682,-14.0625,-1.5,-17.75,9.35,-0.7,moving,6
10.51,1673437.267635129,25,3,3,3,3,-106.0,-1.41,-1.24,1.74,-10.77,-0.45,7.69,8.75,17.3125,550.125,0.42840576171875,0.59722900390625,0.413818359375,0.0682,-14.0625,-1.5,-17.5625,9.36,-0.78,moving,6
10.52,1673437.282948117,25,3,3,3,3,-30.0,-2.71,-0.58,2.48,-12.07,0.27,7.33,5.625,12.5,547.5625,0.43096923828125,0.59869384765625,0.41217041015625,0.0682,-14.0625,-1.5,-17.4375,9.36,-0.86,moving,6
10.53,1673437.282948117,25,3,3,3,3,39.0,-3.53,-0.2,3.17,-12.89,0.72,6.32,3.1875,9.3125,545.5625,0.43316650390625,0.59991455078125,0.41064453125,0.0682,-14.0625,-1.5,-17.3125,9.35,-0.93,moving,6
10.54,1673437.298584755,25,3,3,3,3,75.0,-3.83,0.04,3.51,-13.19,1.03,5.81,4.25,8.5625,543.5625,0.4351806640625,0.60107421875,0.4093017578125,0.0661,-15.5625,0.0625,-17.25,9.35,-0.99,stop,6
10.55,1673437.298584755,25,3,3,3,3,35.0,-3.11,0.63,3.1,-12.46,1.68,4.77,11.9375,7.25,541.5,0.43646240234375,0.6024169921875,0.40850830078125,0.0661,-15.5625,0.0625,-17.1875,9.35,-1.04,stop,6
10.56,1673437.330825355,25,3,3,3,3,-25.0,-1.95,0.64,2.48,-11.3,1.73,2.33,25.0,1.5,539.5625,0.43634033203125,0.60406494140625,0.40875244140625,0.0661,-15.5625,0.0625,-17.125,9.35,-1.08,stop,6
10.57,1673437.330825355,25,3,3,3,3,-56.0,-1.09,1.13,2.17,-10.44,2.23,-0.08,35.0625,-2.875,537.75,0.4349365234375,0.6058349609375,0.409912109375,0.0661,-15.5625,0.0625,-17.125,9.35,-1.1,stop,6
