timestamp,android_nano_timestamp,temperature,calib_mag,calib_accel,calib_gyro,calib_sys,acc_x,acc_y,acc_z,lacc_x,lacc_y,lacc_z,gyro_x,gyro_y,gyro_z,quat_w,quat_x,quat_y,quat_z,mag_x,mag_y,mag_z,gravity_x,gravity_y,gravity_z,label,person
5.6,1154479.100068899,27,3,3,3,2,-7.35,-14.68,-3.51,-2.45,-6.3,-2.1,3.6875,-54.75,-7.625,0.56475830078125,-0.369873046875,0.6595458984375,-0.33050537109375,-29.375,43.0625,10.5,-4.9,-8.37,-1.4,moving,5
5.61,1154479.109363048,27,3,3,3,2,-7.27,-14.12,-2.96,-2.35,-5.74,-1.6,1.625,-49.4375,-3.6875,0.56756591796875,-0.3714599609375,0.65692138671875,-0.32916259765625,-29.375,43.5,10.5,-4.91,-8.37,-1.36,moving,5
5.62,1154479.109363048,27,3,3,3,2,-7.71,-13.9,-2.78,-2.8,-5.53,-1.41,-19.1875,-26.6875,-5.9375,0.56829833984375,-0.37353515625,0.65594482421875,-0.3275146484375,-29.375,43.5,10.5,-4.91,-8.37,-1.36,moving,5
5.63,1154479.124008637,27,3,3,3,2,-8.39,-13.13,-2.04,-3.49,-4.76,-0.62,-40.0625,-9.875,-7.875,0.56732177734375,-0.376220703125,0.65631103515625,-0.3253173828125,-29.375,43.5,10.5,-4.9,-8.37,-1.41,moving,5
5.64,1154479.124008637,27,3,3,3,2,-7.92,-13.18,-2.27,-3.02,-4.82,-0.79,-48.875,-3.8125,-5.125,0.56573486328125,-0.37908935546875,0.6573486328125,-0.3226318359375,-29.375,43.5,10.5,-4.89,-8.36,-1.48,moving,5
5.65,1154479.139520722,27,3,3,3,2,-7.35,-13.34,-2.87,-2.45,-4.99,-1.29,-56.875,2.3125,0.875,0.56378173828125,-0.38177490234375,0.65911865234375,-0.31939697265625,-29.375,43.5,10.5,-4.89,-8.35,-1.57,moving,5
5.66,1154479.139520722,27,3,3,3,2,-6.84,-13.44,-3.11,-1.93,-5.11,-1.45,-56.625,6.4375,8.0,0.56170654296875,-0.3839111328125,0.6612548828125,-0.31597900390625,-29.0625,43.0625,13.25,-4.9,-8.32,-1.65,moving,5
5.67,1154479.170751109,27,3,3,3,2,-5.71,-12.7,-2.76,-0.79,-4.4,-1.03,-44.125,5.3125,14.75,0.560302734375,-0.38507080078125,0.6632080078125,-0.31292724609375,-29.0625,43.0625,13.25,-4.92,-8.3,-1.72,moving,5
5.68,1154479.170751109,27,3,3,3,2,-5.09,-12.05,-2.45,-0.14,-3.77,-0.67,-31.0625,4.0625,18.75,0.55950927734375,-0.38543701171875,0.66485595703125,-0.31036376953125,-29.0625,43.0625,13.25,-4.95,-8.27,-1.77,moving,5
5.69,1154479.184948131,27,3,3,3,2,-4.65,-11.3,-2.08,0.32,-3.05,-0.27,-21.9375,5.25,19.9375,0.55902099609375,-0.38519287109375,0.6663818359375,-0.30828857421875,-29.0625,43.0625,13.25,-4.97,-8.25,-1.81,moving,5
5.7,1154479.184948131,27,3,3,3,2,-4.38,-10.41,-1.72,0.61,-2.18,0.11,-14.75,8.3125,19.5625,0.55853271484375,-0.38458251953125,0.6678466796875,-0.3067626953125,-29.0625,43.0625,13.25,-5.0,-8.23,-1.84,moving,5
5.71,1154479.200453909,27,3,3,3,2,-4.52,-8.25,-1.42,0.5,-0.04,0.44,-9.625,13.1875,18.875,0.5579833984375,-0.38360595703125,0.66937255859375,-0.30572509765625,-29.75,41.5625,15.6875,-5.02,-8.21,-1.86,moving,5
5.72,1154479.200453909,27,3,3,3,2,-4.71,-7.13,-1.57,0.33,1.05,0.31,-6.0,18.9375,18.75,0.55712890625,-0.38232421875,0.67108154296875,-0.30511474609375,-29.75,41.5625,15.6875,-5.04,-8.19,-1.89,moving,5
5.73,1154479.229983531,27,3,3,3,2,-4.66,-6.09,-1.72,0.39,2.08,0.18,-0.5,23.125,20.4375,0.55633544921875,-0.3804931640625,0.67291259765625,-0.30487060546875,-29.75,41.5625,15.6875,-5.06,-8.17,-1.91,moving,5
5.74,1154479.229983531,27,3,3,3,2,-4.44,-5.2,-1.45,0.64,2.94,0.46,6.0625,17.1875,23.625,0.55615234375,-0.37835693359375,0.67431640625,-0.3046875,-29.75,41.5625,15.6875,-5.09,-8.15,-1.91,moving,5
5.75,1154479.246545706,27,3,3,3,2,-3.99,-3.79,-0.49,1.13,4.34,1.41,13.0625,7.1875,28.375,0.556884765625,-0.3758544921875,0.67529296875,-0.3043212890625,-29.75,41.5625,15.6875,-5.13,-8.13,-1.9,moving,5
5.76,1154479.246545706,27,3,3,3,2,-3.59,-3.41,-0.01,1.58,4.7,1.86,23.1875,3.4375,33.5,0.55828857421875,-0.3726806640625,0.6759033203125,-0.30419921875,-28.375,42.375,14.5,-5.17,-8.11,-1.87,moving,5
5.77,1154479.280265839,27,3,3,3,2,-3.16,-2.94,0.24,2.06,5.14,2.07,34.75,8.75,38.375,0.5599365234375,-0.3685302734375,0.6766357421875,-0.3046875,-28.375,42.375,14.5,-5.22,-8.09,-1.83,moving,5
5.78,1154479.280265839,27,3,3,3,2,-2.1,-1.11,0.63,3.17,6.94,2.42,42.125,17.25,41.1875,0.56134033203125,-0.36358642578125,0.67767333984375,-0.30572509765625,-28.375,42.375,14.5,-5.28,-8.06,-1.79,moving,5
5.79,1154479.289516083,27,3,3,3,2,-1.33,0.02,0.68,3.99,8.06,2.44,43.125,25.0625,40.125,0.56231689453125,-0.3583984375,0.67901611328125,-0.30706787109375,-28.375,42.375,14.5,-5.32,-8.04,-1.75,moving,5
5.8,1154479.289516083,27,3,3,3,2,-0.56,1.0,0.5,4.81,9.02,2.24,39.125,34.6875,36.875,0.56243896484375,-0.3533935546875,0.6807861328125,-0.3087158203125,-28.375,42.375,14.5,-5.37,-8.02,-1.73,moving,5
5.81,1154479.309572765,27,3,3,3,2,0.2,1.8,0.29,5.6,9.8,2.02,30.75,45.8125,33.75,0.56158447265625,-0.3486328125,0.6832275390625,-0.310302734375,-28.375,44.1875,12.875,-5.4,-7.99,-1.73,moving,5
5.81,1154479.309572765,27,3,3,3,2,0.2,1.8,0.29,5.6,9.8,2.02,30.75,45.8125,33.75,0.56158447265625,-0.3486328125,0.6832275390625,-0.310302734375,-28.375,44.1875,12.875,-5.4,-7.99,-1.73,moving,5
5.82,1154479.321972504,27,3,3,3,2,1.28,1.9,0.07,6.71,9.87,1.82,22.25,52.3125,28.125,0.55987548828125,-0.34442138671875,0.68603515625,-0.31182861328125,-28.375,44.1875,12.875,-5.42,-7.97,-1.75,moving,5
5.83,1154479.321972504,27,3,3,3,2,1.37,1.67,-0.1,6.81,9.63,1.66,22.125,56.125,22.125,0.55780029296875,-0.34051513671875,0.6888427734375,-0.31378173828125,-28.375,44.1875,12.875,-5.44,-7.96,-1.77,moving,5
5.84,1154479.339071096,27,3,3,3,2,0.51,1.12,0.01,5.96,9.07,1.8,25.25,56.9375,20.5,0.5556640625,-0.33648681640625,0.6915283203125,-0.31597900390625,-28.375,44.1875,12.875,-5.45,-7.95,-1.79,moving,5
5.85,1154479.339071096,27,3,3,3,2,-0.42,-0.15,0.08,5.04,7.78,1.89,25.4375,55.25,24.0,0.5537109375,-0.332275390625,0.6942138671875,-0.3179931640625,-28.375,44.1875,12.875,-5.46,-7.93,-1.81,moving,5
5.86,1154479.364550914,27,3,3,3,2,-2.54,-3.11,-0.41,2.94,4.8,1.41,23.8125,55.75,30.25,0.5518798828125,-0.3277587890625,0.69708251953125,-0.319580078125,-26.875,43.75,9.75,-5.49,-7.91,-1.83,moving,5
5.87,1154479.364550914,27,3,3,3,2,-4.09,-5.71,-1.26,1.42,2.17,0.58,19.4375,51.375,33.8125,0.55023193359375,-0.32330322265625,0.699951171875,-0.32061767578125,-26.875,43.75,9.75,-5.52,-7.89,-1.85,moving,5
5.88,1154479.379473847,27,3,3,3,2,-6.19,-9.04,-1.8,-0.63,-1.18,0.06,13.9375,35.75,37.625,0.54949951171875,-0.3193359375,0.70233154296875,-0.3206787109375,-26.875,43.75,9.75,-5.56,-7.85,-1.86,moving,5
5.89,1154479.379473847,27,3,3,3,2,-10.58,-14.01,-2.42,-4.96,-6.2,-0.57,17.375,4.125,46.1875,0.551025390625,-0.3155517578125,0.70330810546875,-0.31964111328125,-26.875,43.75,9.75,-5.62,-7.81,-1.84,moving,5
5.9,1154479.394258189,27,3,3,3,2,-20.47,-28.84,-7.06,-14.77,-21.06,-5.29,44.3125,-23.8125,47.0,0.55499267578125,-0.31121826171875,0.70220947265625,-0.3194580078125,-26.875,43.75,9.75,-5.69,-7.78,-1.76,moving,5
5.91,1154479.394258189,27,3,3,3,2,-23.62,-28.36,-4.98,-17.77,-20.61,-3.56,164.9375,-120.125,85.0,0.569091796875,-0.30126953125,0.6939697265625,-0.32208251953125,-26.5625,45.0,6.25,-5.84,-7.74,-1.41,moving,5
5.92,1154479.409660126,27,3,3,3,2,-21.57,-23.27,-5.65,-15.59,-15.58,-4.57,164.9375,-120.125,85.0,0.58294677734375,-0.291259765625,0.68548583984375,-0.32464599609375,-26.5625,45.0,6.25,-5.98,-7.69,-1.07,moving,5
5.93,1154479.409660126,27,3,3,3,2,-15.99,-14.43,-6.12,-9.92,-6.76,-5.31,125.75,-83.4375,51.9375,0.59259033203125,-0.28411865234375,0.678955078125,-0.327392578125,-26.5625,45.0,6.25,-6.06,-7.66,-0.81,moving,5
5.94,1154479.441841523,27,3,3,3,2,-11.71,-11.75,-1.92,-5.64,-4.09,-1.17,35.9375,-11.4375,-0.625,0.5941162109375,-0.28265380859375,0.67730712890625,-0.32928466796875,-26.5625,45.0,6.25,-6.06,-7.66,-0.75,moving,5
5.95,1154479.441841523,27,3,3,3,2,-12.09,-11.9,0.81,-6.04,-4.22,1.61,-4.6875,38.375,-13.625,0.59130859375,-0.2825927734375,0.6790771484375,-0.33062744140625,-26.5625,45.0,6.25,-6.04,-7.68,-0.8,moving,5
5.96,1154479.454986298,27,3,3,3,2,-11.73,-11.92,-0.84,-5.73,-4.23,0.2,-104.5,104.1875,-20.5625,0.58197021484375,-0.2861328125,0.6868896484375,-0.32806396484375,-25.5,47.5,2.375,-5.99,-7.68,-1.05,moving,5
5.97,1154479.454986298,27,3,3,3,2,-11.37,-11.77,-2.49,-5.42,-4.09,-1.19,-104.5,104.1875,-20.5625,0.57244873046875,-0.2896728515625,0.69464111328125,-0.32537841796875,-25.5,47.5,2.375,-5.95,-7.68,-1.3,moving,5
5.98,1154479.488621308,27,3,3,3,2,-11.25,-11.06,-2.67,-5.35,-3.39,-1.14,-108.0,72.25,-19.5,0.56475830078125,-0.294189453125,0.70074462890625,-0.32159423828125,-25.5,47.5,2.375,-5.9,-7.67,-1.52,moving,5
5.99,1154479.488621308,27,3,3,3,2,-10.63,-10.37,-2.66,-4.75,-2.7,-1.02,-73.0625,20.625,-14.1875,0.56121826171875,-0.29803466796875,0.70343017578125,-0.318359375,-25.5,47.5,2.375,-5.88,-7.67,-1.64,moving,5
6.0,1154479.505506114,27,3,3,3,2,-9.78,-9.79,-2.69,-3.91,-2.11,-1.03,-29.5625,-21.8125,-9.4375,0.5615234375,-0.30072021484375,0.70294189453125,-0.31646728515625,-25.5,47.5,2.375,-5.87,-7.67,-1.65,moving,5
6.01,1154479.505506114,27,3,3,3,2,-6.83,-9.14,-3.28,-0.93,-1.46,-1.74,31.1875,-71.3125,2.5,0.5667724609375,-0.30096435546875,0.69866943359375,-0.31634521484375,-25.5,46.0,3.1875,-5.89,-7.68,-1.54,moving,5
6.02,1154479.521877656,27,3,3,3,2,-5.29,-8.45,-2.45,0.63,-0.76,-1.02,31.1875,-71.3125,2.5,0.572021484375,-0.30120849609375,0.6943359375,-0.31622314453125,-25.5,46.0,3.1875,-5.92,-7.68,-1.42,moving,5
6.03,1154479.521877656,27,3,3,3,2,-4.66,-7.44,-1.84,1.26,0.25,-0.54,39.125,-75.625,-10.25,0.57733154296875,-0.30194091796875,0.689208984375,-0.317138671875,-25.5,46.0,3.1875,-5.92,-7.7,-1.29,moving,5
6.04,1154479.531652965,27,3,3,3,2,-4.63,-6.28,-1.41,1.28,1.44,-0.24,39.125,-75.625,-10.25,0.58258056640625,-0.30267333984375,0.68402099609375,-0.3179931640625,-25.5,46.0,3.1875,-5.92,-7.72,-1.16,moving,5
6.05,1154479.531652965,27,3,3,3,2,-4.59,-4.63,-0.71,1.32,3.11,0.39,5.9375,-48.4375,-18.875,0.58514404296875,-0.30487060546875,0.68084716796875,-0.3179931640625,-25.5,46.0,3.1875,-5.91,-7.74,-1.1,moving,5
6.06,1154479.559950043,27,3,3,3,2,-4.54,-4.21,-0.4,1.32,3.55,0.77,-46.625,8.0,-31.3125,0.58251953125,-0.308837890625,0.6817626953125,-0.3170166015625,-25.375,46.5,5.875,-5.86,-7.76,-1.17,moving,5
6.07,1154479.559950043,27,3,3,3,2,-4.22,-3.46,-0.16,1.58,4.32,1.12,-61.5625,23.75,-35.4375,0.5784912109375,-0.31341552734375,0.68365478515625,-0.3157958984375,-25.375,46.5,5.875,-5.81,-7.79,-1.28,moving,5
6.08,1154479.579101004,27,3,3,3,2,-4.22,-3.46,-0.16,1.58,4.32,1.12,-61.5625,23.75,-35.4375,0.5784912109375,-0.31341552734375,0.68365478515625,-0.3157958984375,-25.375,46.5,5.875,-5.81,-7.79,-1.28,moving,5
6.08,1154479.579101004,27,3,3,3,2,-3.96,-2.58,-0.17,1.78,5.22,1.24,-70.4375,30.875,-37.9375,0.5736083984375,-0.318359375,0.6861572265625,-0.3143310546875,-25.375,46.5,5.875,-5.75,-7.81,-1.41,moving,5
6.09,1154479.58888087,27,3,3,3,2,-3.45,-1.24,-0.46,2.24,6.58,1.07,-72.25,25.625,-36.4375,0.569091796875,-0.323486328125,0.6883544921875,-0.3125,-25.375,46.5,5.875,-5.7,-7.82,-1.53,moving,5
6.1,1154479.58888087,27,3,3,3,2,-2.9,-0.78,-0.2,2.75,7.05,1.44,-70.875,16.25,-32.6875,0.565185546875,-0.3284912109375,0.690185546875,-0.310302734375,-25.375,46.5,5.875,-5.65,-7.84,-1.65,moving,5
6.11,1154479.609042613,27,3,3,3,2,-2.14,-0.55,-0.08,3.46,7.29,1.67,-65.5,10.0,-28.5625,0.56195068359375,-0.3331298828125,0.69158935546875,-0.30804443359375,-25.375,46.5,7.5,-5.6,-7.85,-1.75,moving,5
6.12,1154479.609042613,27,3,3,3,2,-0.02,-1.08,0.53,5.54,6.77,2.36,-52.375,5.6875,-25.9375,0.55938720703125,-0.33709716796875,0.69256591796875,-0.30633544921875,-25.375,46.5,7.5,-5.57,-7.85,-1.82,moving,5
6.13,1154479.620562145,27,3,3,3,2,0.92,-1.43,0.74,6.45,6.43,2.63,-35.8125,6.6875,-26.5625,0.55718994140625,-0.34027099609375,0.69305419921875,-0.30560302734375,-25.375,46.5,7.5,-5.53,-7.87,-1.88,moving,5
6.14,1154479.620562145,27,3,3,3,2,1.98,-1.25,0.76,7.47,6.63,2.68,-26.0625,6.5625,-27.3125,0.5552978515625,-0.343017578125,0.6932373046875,-0.3055419921875,-25.375,46.5,7.5,-5.49,-7.89,-1.92,moving,5
6.15,1154479.655756236,27,3,3,3,2,2.69,-0.64,0.85,8.14,7.26,2.82,-26.9375,0.5,-26.875,0.55377197265625,-0.345947265625,0.69317626953125,-0.30523681640625,-25.375,46.5,7.5,-5.45,-7.9,-1.96,moving,5
6.16,1154479.655756236,27,3,3,3,2,3.68,-0.19,0.85,9.1,7.72,2.86,-34.4375,-8.5625,-32.0625,0.55242919921875,-0.3497314453125,0.69268798828125,-0.304443359375,-27.5,43.875,12.5,-5.41,-7.92,-2.0,moving,5
6.17,1154479.665027192,27,3,3,3,2,3.79,-0.62,0.82,9.16,7.32,2.86,-45.1875,-19.125,-38.5,0.5511474609375,-0.354736328125,0.6917724609375,-0.302978515625,-27.5,43.875,12.5,-5.37,-7.94,-2.04,moving,5
6.18,1154479.665027192,27,3,3,3,2,3.86,-1.46,0.66,9.19,6.49,2.75,-57.3125,-38.0625,-40.9375,0.55059814453125,-0.3609619140625,0.690185546875,-0.30029296875,-27.5,43.875,12.5,-5.32,-7.96,-2.09,moving,5
6.19,1154479.679343435,27,3,3,3,2,3.3,-2.67,0.71,8.6,5.3,2.84,-67.0,-53.0,-37.1875,0.55072021484375,-0.3677978515625,0.688232421875,-0.29632568359375,-27.5,43.875,12.5,-5.29,-7.97,-2.13,moving,5
6.2,1154479.679343435,27,3,3,3,2,-0.61,-7.23,0.44,4.65,0.74,2.62,-67.5625,-55.0,-32.25,0.55096435546875,-0.3743896484375,0.68621826171875,-0.29205322265625,-27.5,43.875,12.5,-5.27,-7.97,-2.17,moving,5
6.21,1154479.71461492,27,3,3,3,2,-4.29,-11.06,-0.9,0.97,-3.08,1.29,-45.25,-49.625,-15.5625,0.55206298828125,-0.3787841796875,0.68450927734375,-0.28851318359375,-27.875,43.5625,12.1875,-5.26,-7.97,-2.19,moving,5
6.22,1154479.71461492,27,3,3,3,2,-10.21,-17.73,-6.22,-4.88,-9.77,-4.13,15.375,-91.125,17.3125,0.55841064453125,-0.3792724609375,0.68023681640625,-0.28558349609375,-27.875,43.5625,12.1875,-5.32,-7.96,-2.09,moving,5
6.23,1154479.726052094,27,3,3,3,2,-20.02,-30.02,-18.02,-14.58,-22.06,-16.26,112.75,-185.0625,40.125,0.57403564453125,-0.3759765625,0.66961669921875,-0.28411865234375,-27.875,43.5625,12.1875,-5.44,-7.96,-1.76,moving,5
6.24,1154479.726052094,27,3,3,3,2,-17.69,-21.46,3.11,-12.2,-13.48,4.65,78.625,-121.6875,6.9375,0.5838623046875,-0.37457275390625,0.6617431640625,-0.28436279296875,-27.875,43.5625,12.1875,-5.48,-7.98,-1.53,moving,5
6.25,1154479.746289155,27,3,3,3,2,-11.5,-14.58,-3.67,-6.04,-6.59,-2.07,-37.1875,10.375,-22.8125,0.58148193359375,-0.3775634765625,0.6624755859375,-0.28375244140625,-27.875,43.5625,12.1875,-5.45,-7.99,-1.59,moving,5
6.26,1154479.746289155,27,3,3,3,2,-7.08,-13.37,-8.38,-1.65,-5.38,-6.72,-30.4375,22.5,-7.8125,0.5789794921875,-0.3790283203125,0.6640625,-0.2830810546875,-29.0,41.0625,16.375,-5.43,-7.99,-1.66,moving,5
6.27,1154479.776142792,27,3,3,3,2,-7.68,-13.21,3.29,-2.23,-5.22,4.93,5.8125,-11.5,5.25,0.5799560546875,-0.378662109375,0.66351318359375,-0.2828369140625,-29.0,41.0625,16.375,-5.44,-7.98,-1.64,moving,5
6.28,1154479.776142792,27,3,3,3,2,-7.24,-13.01,-0.37,-1.81,-5.04,1.34,-38.4375,30.25,-0.5,0.576904296875,-0.3798828125,0.666015625,-0.2816162109375,-29.0,41.0625,16.375,-5.43,-7.97,-1.72,moving,5
6.29,1154479.786314342,27,3,3,3,2,-6.66,-13.24,-4.15,-1.25,-5.28,-2.32,-45.8125,46.25,-5.875,0.57257080078125,-0.38140869140625,0.66925048828125,-0.28076171875,-29.0,41.0625,16.375,-5.41,-7.96,-1.83,moving,5
6.3,1154479.786314342,27,3,3,3,2,-5.55,-13.78,-3.95,-0.14,-5.81,-2.11,1.75,11.125,-0.625,0.57196044921875,-0.381103515625,0.66973876953125,-0.28125,-29.0,41.0625,16.375,-5.41,-7.96,-1.83,moving,5
6.31,1154479.814914073,27,3,3,3,2,-4.74,-12.27,-1.82,0.67,-4.29,-0.04,38.0625,-7.125,3.6875,0.57373046875,-0.379150390625,0.6685791015625,-0.2830810546875,-28.5625,43.5625,19.1875,-5.41,-7.97,-1.77,moving,5
6.32,1154479.814914073,27,3,3,3,2,-4.73,-11.0,-1.38,0.69,-3.01,0.3,56.125,-13.1875,4.5,0.576416015625,-0.37640380859375,0.6666259765625,-0.28570556640625,-28.5625,43.5625,19.1875,-5.42,-7.99,-1.68,moving,5
6.33,1154479.829803762,27,3,3,3,2,-4.9,-10.0,-1.53,0.54,-1.99,0.03,73.375,-16.3125,9.0625,0.58001708984375,-0.37261962890625,0.66424560546875,-0.28900146484375,-28.5625,43.5625,19.1875,-5.44,-8.0,-1.57,moving,5
6.34,1154479.829803762,27,3,3,3,2,-4.9,-10.0,-1.53,0.54,-1.99,0.03,73.375,-16.3125,9.0625,0.58001708984375,-0.37261962890625,0.66424560546875,-0.28900146484375,-28.5625,43.5625,19.1875,-5.44,-8.0,-1.57,moving,5
6.34,1154479.840105154,27,3,3,3,2,-5.12,-9.01,-1.45,0.35,-1.0,-0.03,84.375,-27.6875,17.0625,0.58477783203125,-0.3680419921875,0.6612548828125,-0.2921142578125,-28.5625,43.5625,19.1875,-5.47,-8.0,-1.42,moving,5
6.35,1154479.840105154,27,3,3,3,2,-4.88,-7.71,-0.91,0.62,0.28,0.37,78.625,-33.3125,21.4375,0.5897216796875,-0.3636474609375,0.658203125,-0.29449462890625,-28.5625,43.5625,19.1875,-5.51,-8.0,-1.28,moving,5
6.36,1154479.859995901,27,3,3,3,2,-4.03,-7.24,-1.3,1.51,0.75,-0.13,60.3125,-28.1875,22.5,0.59381103515625,-0.3599853515625,0.65594482421875,-0.2958984375,-28.6875,43.1875,17.5625,-5.55,-7.99,-1.17,moving,5
6.37,1154479.859995901,27,3,3,3,2,-2.95,-6.54,-1.56,2.62,1.44,-0.47,47.9375,-20.625,21.8125,0.5970458984375,-0.35675048828125,0.654296875,-0.296875,-28.6875,43.1875,17.5625,-5.58,-7.98,-1.08,moving,5
6.38,1154479.891328746,27,3,3,3,2,-2.13,-5.44,-1.39,3.48,2.52,-0.38,46.25,-11.4375,21.1875,0.59967041015625,-0.35345458984375,0.65313720703125,-0.298095703125,-28.6875,43.1875,17.5625,-5.61,-7.97,-1.01,moving,5
6.39,1154479.891328746,27,3,3,3,2,-1.51,-2.46,-0.12,4.12,5.49,0.82,44.125,0.4375,19.875,0.6015625,-0.35003662109375,0.652587890625,-0.299560546875,-28.6875,43.1875,17.5625,-5.64,-7.96,-0.94,moving,5
6.4,1154479.902098155,27,3,3,3,2,-1.15,-0.96,0.5,4.51,6.98,1.41,34.8125,13.3125,16.9375,0.602294921875,-0.346923828125,0.65289306640625,-0.30108642578125,-28.6875,43.1875,17.5625,-5.66,-7.95,-0.91,moving,5
6.41,1154479.902098155,27,3,3,3,2,-0.62,0.35,0.94,5.05,8.29,1.85,21.9375,25.8125,13.5625,0.601806640625,-0.34429931640625,0.654052734375,-0.30242919921875,-26.5625,44.6875,13.25,-5.67,-7.94,-0.9,moving,5
6.42,1154479.920753795,27,3,3,3,2,-0.2,1.38,1.0,5.48,9.32,1.93,11.375,34.5,7.25,0.60040283203125,-0.3424072265625,0.65576171875,-0.30377197265625,-26.5625,44.6875,13.25,-5.68,-7.93,-0.92,moving,5
6.43,1154479.920753795,27,3,3,3,2,-0.02,2.81,1.67,5.64,10.75,2.65,0.0,50.875,-3.25,0.597412109375,-0.34124755859375,0.6583251953125,-0.30548095703125,-26.5625,44.6875,13.25,-5.66,-7.94,-0.97,moving,5
6.44,1154479.939055431,27,3,3,3,2,0.05,4.07,1.89,5.68,12.03,2.96,-16.25,63.625,-19.0,0.59271240234375,-0.34149169921875,0.6614990234375,-0.30743408203125,-26.5625,44.6875,13.25,-5.63,-7.95,-1.06,moving,5
6.45,1154479.939055431,27,3,3,3,2,0.47,4.78,1.97,6.01,12.79,3.17,-41.9375,77.9375,-54.125,0.58551025390625,-0.34466552734375,0.66497802734375,-0.31011962890625,-26.5625,44.6875,13.25,-5.54,-8.0,-1.19,moving,5
6.46,1154479.965918793,27,3,3,3,2,2.08,5.84,1.53,7.46,13.92,2.89,-66.125,77.0625,-103.3125,0.576171875,-0.3519287109375,0.66754150390625,-0.3138427734375,-26.5,44.25,12.0625,-5.37,-8.08,-1.36,moving,5
6.47,1154479.965918793,27,3,3,3,2,6.18,7.18,-0.23,11.39,15.33,1.32,-94.125,71.9375,-100.875,0.5662841796875,-0.36053466796875,0.67059326171875,-0.31561279296875,-26.5,44.25,12.0625,-5.21,-8.15,-1.56,moving,5
6.48,1154479.980063203,27,3,3,3,2,0.3,4.23,1.26,5.45,12.39,3.02,-97.3125,67.9375,-32.3125,0.558349609375,-0.3653564453125,0.675537109375,-0.31365966796875,-26.5,44.25,12.0625,-5.15,-8.15,-1.76,moving,5
6.49,1154479.980063203,27,3,3,3,2,-0.45,0.69,-0.43,4.65,8.84,1.49,-84.0625,56.5625,-16.375,0.5518798828125,-0.368896484375,0.6800537109375,-0.31134033203125,-26.5,44.25,12.0625,-5.1,-8.14,-1.93,moving,5
6.5,1154479.995013479,27,3,3,3,2,-2.82,-2.84,-1.17,2.29,5.26,0.88,-63.9375,33.0,14.1875,0.5482177734375,-0.37017822265625,0.683837890625,-0.30792236328125,-26.5,44.25,12.0625,-5.11,-8.11,-2.05,moving,5
6.51,1154479.995013479,27,3,3,3,2,-3.37,-6.77,-3.47,1.84,1.27,-1.41,-9.3125,-3.0,67.9375,0.5499267578125,-0.36669921875,0.68609619140625,-0.30401611328125,-28.25,42.875,12.5,-5.21,-8.04,-2.06,moving,5
6.52,1154480.025569632,27,3,3,3,2,-18.38,-28.27,0.74,-12.95,-20.31,2.57,97.5,-104.625,128.25,0.5626220703125,-0.3570556640625,0.6824951171875,-0.30029296875,-28.25,42.875,12.5,-5.42,-7.95,-1.82,moving,5
6.53,1154480.025569632,27,3,3,3,2,-16.21,-25.79,-5.5,-10.6,-17.89,-4.04,180.9375,-128.3125,109.25,0.57861328125,-0.344970703125,0.6746826171875,-0.3016357421875,-28.25,42.875,12.5,-5.61,-7.9,-1.45,moving,5
6.54,1154480.039764415,27,3,3,3,2,-29.07,-36.02,-6.76,-23.26,-28.14,-6.03,336.5,-265.1875,98.625,0.60650634765625,-0.32891845703125,0.6549072265625,-0.30828857421875,-28.25,42.875,12.5,-5.8,-7.87,-0.72,moving,5
6.55,1154480.039764415,27,3,3,3,2,-24.08,-15.3,-7.77,-18.16,-7.48,-7.69,272.75,-268.4375,76.1875,0.63134765625,-0.317138671875,0.63519287109375,-0.31195068359375,-28.25,42.875,12.5,-5.92,-7.81,-0.07,moving,5
6.56,1154480.059092825,27,3,3,3,2,-21.11,-8.88,-4.56,-15.19,-1.07,-4.54,16.9375,-31.4375,0.0,0.633544921875,-0.31707763671875,0.63299560546875,-0.31201171875,-27.5625,41.6875,14.875,-5.92,-7.81,-0.02,moving,5
6.57,1154480.059092825,27,3,3,3,2,-14.44,-11.13,-7.48,-8.55,-3.29,-7.26,-61.25,110.5625,-26.875,0.625,-0.31890869140625,0.6400146484375,-0.31317138671875,-27.5625,41.6875,14.875,-5.88,-7.84,-0.22,moving,5
6.58,1154480.086617402,27,3,3,3,2,-14.12,-12.14,5.07,-8.27,-4.28,5.47,-60.8125,95.0625,-23.0,0.6173095703125,-0.32086181640625,0.64617919921875,-0.31365966796875,-27.5625,41.6875,14.875,-5.85,-7.86,-0.4,moving,5
6.59,1154480.086617402,27,3,3,3,2,-14.37,-12.01,3.39,-8.57,-4.14,4.09,-109.1875,141.6875,-22.875,0.6055908203125,-0.32415771484375,0.65606689453125,-0.3126220703125,-27.5625,41.6875,14.875,-5.8,-7.87,-0.69,moving,5
6.59,1154480.097178071,27,3,3,3,2,-14.37,-12.01,3.39,-8.57,-4.14,4.09,-109.1875,141.6875,-22.875,0.6055908203125,-0.32415771484375,0.65606689453125,-0.3126220703125,-27.5625,41.6875,14.875,-5.8,-7.87,-0.69,moving,5
6.6,1154480.097178071,27,3,3,3,2,-15.48,-12.32,-0.84,-9.72,-4.45,0.15,-112.4375,139.375,-19.9375,0.59381103515625,-0.32733154296875,0.6658935546875,-0.3111572265625,-27.5625,41.6875,14.875,-5.75,-7.87,-0.99,moving,5
6.61,1154480.120541189,27,3,3,3,2,-15.46,-12.22,-1.48,-9.72,-4.35,-0.35,-56.0,63.375,-4.0625,0.58843994140625,-0.3287353515625,0.67059326171875,-0.30987548828125,-25.75,46.0625,9.75,-5.74,-7.86,-1.13,moving,5
6.62,1154480.120541189,27,3,3,3,2,-13.47,-12.31,-1.76,-7.71,-4.46,-0.65,9.1875,-5.625,14.6875,0.58941650390625,-0.32757568359375,0.67047119140625,-0.3094482421875,-25.75,46.0625,9.75,-5.76,-7.85,-1.11,moving,5
6.63,1154480.12970574,27,3,3,3,2,-11.06,-12.16,-2.12,-5.25,-4.32,-1.12,37.375,-58.8125,22.4375,0.59454345703125,-0.32586669921875,0.66705322265625,-0.30877685546875,-25.75,46.0625,9.75,-5.8,-7.84,-1.0,moving,5
6.64,1154480.12970574,27,3,3,3,2,-8.82,-11.59,-2.77,-2.99,-3.75,-1.92,45.625,-94.625,12.75,0.6016845703125,-0.32525634765625,0.6612548828125,-0.30804443359375,-25.75,46.0625,9.75,-5.83,-7.83,-0.84,moving,5
6.65,1154480.144538422,27,3,3,3,2,-5.4,-9.22,-3.71,0.44,-1.38,-3.06,64.0625,-104.125,0.5625,0.6094970703125,-0.32464599609375,0.654052734375,-0.3087158203125,-25.75,46.0625,9.75,-5.85,-7.84,-0.65,moving,5
6.66,1154480.144538422,27,3,3,3,2,-5.54,-7.44,-2.36,0.3,0.41,-1.87,55.625,-77.6875,-8.5,0.61529541015625,-0.32421875,0.648193359375,-0.31011962890625,-26.5625,45.0,10.1875,-5.84,-7.85,-0.49,moving,5
6.67,1154480.180116873,27,3,3,3,2,-5.63,-6.6,-1.01,0.19,1.27,-0.53,0.0,-13.25,-17.875,0.61553955078125,-0.3255615234375,0.64697265625,-0.3106689453125,-26.5625,45.0,10.1875,-5.82,-7.87,-0.48,moving,5
6.68,1154480.180116873,27,3,3,3,2,-5.47,-6.21,-0.69,0.31,1.67,-0.11,-38.75,45.0625,-24.5,0.6112060546875,-0.32781982421875,0.6497802734375,-0.31103515625,-26.5625,45.0,10.1875,-5.78,-7.89,-0.58,moving,5
6.69,1154480.191241019,27,3,3,3,2,-4.91,-4.65,0.53,0.82,3.26,1.26,-54.5625,72.375,-30.375,0.604736328125,-0.3304443359375,0.65423583984375,-0.3116455078125,-26.5625,45.0,10.1875,-5.74,-7.91,-0.72,moving,5
6.7,1154480.191241019,27,3,3,3,2,-4.17,-3.35,0.21,1.5,4.59,1.12,-63.3125,86.125,-37.0,0.59698486328125,-0.33349609375,0.659423828125,-0.3123779296875,-26.5625,45.0,10.1875,-5.67,-7.94,-0.9,moving,5
6.71,1154480.204507132,27,3,3,3,2,-3.26,-2.18,-0.23,2.34,5.79,0.84,-66.5,82.8125,-43.875,0.58905029296875,-0.33721923828125,0.66424560546875,-0.313232421875,-25.75,45.25,9.375,-5.6,-7.97,-1.07,moving,5
6.72,1154480.204507132,27,3,3,3,2,-2.2,-1.1,-0.3,3.31,6.9,0.91,-57.5625,69.4375,-48.25,0.58197021484375,-0.34100341796875,0.66796875,-0.31439208984375,-25.75,45.25,9.375,-5.52,-8.01,-1.22,moving,5
6.73,1154480.234782807,27,3,3,3,2,-0.95,-0.03,-0.1,4.49,8.0,1.22,-41.0625,50.3125,-47.1875,0.5765380859375,-0.344482421875,0.67022705078125,-0.31585693359375,-25.75,45.25,9.375,-5.44,-8.04,-1.33,moving,5
6.74,1154480.234782807,27,3,3,3,2,0.02,0.2,0.39,5.39,8.28,1.79,-28.3125,35.8125,-47.5625,0.572265625,-0.34765625,0.67138671875,-0.317626953125,-25.75,45.25,9.375,-5.37,-8.08,-1.4,moving,5
6.75,1154480.250233084,27,3,3,3,2,1.52,0.64,0.55,6.82,8.76,2.01,-24.8125,26.9375,-47.5625,0.568603515625,-0.35089111328125,0.6719970703125,-0.3193359375,-25.75,45.25,9.375,-5.29,-8.12,-1.46,moving,5
6.76,1154480.250233084,27,3,3,3,2,2.63,1.53,2.1,7.86,9.69,3.63,-29.375,17.5625,-42.0625,0.5655517578125,-0.35430908203125,0.67236328125,-0.3201904296875,-27.1875,44.25,11.375,-5.23,-8.15,-1.52,moving,5
6.77,1154480.264813325,27,3,3,3,2,3.39,2.24,2.91,8.54,10.43,4.51,-43.6875,20.625,-48.125,0.5616455078125,-0.35870361328125,0.67315673828125,-0.32061767578125,-27.1875,44.25,11.375,-5.15,-8.18,-1.6,moving,5
6.78,1154480.264813325,27,3,3,3,2,3.8,2.69,2.7,8.83,10.92,4.45,-73.5625,45.3125,-77.5,0.55450439453125,-0.36553955078125,0.67498779296875,-0.32147216796875,-27.1875,44.25,11.375,-5.03,-8.23,-1.74,moving,5
6.79,1154480.29493747,27,3,3,3,2,5.06,2.49,1.92,9.91,10.79,3.84,-101.1875,28.6875,-119.0,0.54620361328125,-0.3765869140625,0.67535400390625,-0.3221435546875,-27.1875,44.25,11.375,-4.85,-8.3,-1.92,moving,5
6.8,1154480.29493747,27,3,3,3,2,8.0,4.64,3.56,12.76,12.94,5.7,-154.0,0.75,-60.6875,0.539306640625,-0.387451171875,0.67767333984375,-0.31591796875,-27.1875,44.25,11.375,-4.76,-8.29,-2.14,moving,5
6.81,1154480.309771211,27,3,3,3,2,5.48,1.59,-0.06,10.22,9.82,2.37,-173.375,51.375,-6.375,0.53021240234375,-0.39447021484375,0.6845703125,-0.30767822265625,-28.5625,42.0625,12.5,-4.73,-8.23,-2.43,moving,5
6.82,1154480.309771211,27,3,3,3,2,2.38,-3.14,0.25,7.09,5.03,2.91,-147.75,11.0625,-20.75,0.52386474609375,-0.4022216796875,0.688232421875,-0.3001708984375,-28.5625,42.0625,12.5,-4.7,-8.18,-2.65,moving,5
6.83,1154480.325978364,27,3,3,3,2,0.6,-5.12,0.46,5.29,3.01,3.25,-87.3125,14.0,-4.25,0.51983642578125,-0.40606689453125,0.6910400390625,-0.29559326171875,-28.5625,42.0625,12.5,-4.69,-8.14,-2.79,moving,5
6.84,1154480.325978364,27,3,3,3,2,-3.26,-9.51,-6.05,1.5,-1.41,-3.26,6.9375,7.625,56.0625,0.52105712890625,-0.40216064453125,0.69317626953125,-0.29376220703125,-28.5625,42.0625,12.5,-4.76,-8.1,-2.78,moving,5
6.85,1154480.340342093,27,3,3,3,2,-19.98,-22.99,-3.01,-14.99,-14.94,-0.46,106.6875,-108.875,125.3125,0.5345458984375,-0.3924560546875,0.68975830078125,-0.2906494140625,-28.5625,42.0625,12.5,-4.99,-8.04,-2.54,moving,5
6.86,1154480.340342093,27,3,3,3,2,-19.98,-22.99,-3.01,-14.99,-14.94,-0.46,106.6875,-108.875,125.3125,0.5345458984375,-0.3924560546875,0.68975830078125,-0.2906494140625,-28.5625,42.0625,12.5,-4.99,-8.04,-2.54,moving,5
6.86,1154480.355518362,27,3,3,3,2,-11.42,-20.99,-16.46,-6.32,-12.88,-14.37,231.375,-152.5,37.625,0.55242919921875,-0.3831787109375,0.6778564453125,-0.2974853515625,-30.5625,39.875,17.1875,-5.1,-8.1,-2.08,moving,5
6.87,1154480.355518362,27,3,3,3,2,-13.79,-36.52,-9.93,-8.57,-28.34,-8.58,318.875,-312.875,14.5625,0.58154296875,-0.374755859375,0.654541015625,-0.304931640625,-30.5625,39.875,17.1875,-5.22,-8.18,-1.35,moving,5
6.88,1154480.390522472,27,3,3,3,2,-18.2,-19.81,4.06,-12.91,-11.6,4.91,224.5,-195.875,18.625,0.600341796875,-0.36737060546875,0.63897705078125,-0.310302734375,-30.5625,39.875,17.1875,-5.28,-8.21,-0.84,moving,5
6.89,1154480.390522472,27,3,3,3,2,-9.34,-17.15,-2.17,-4.08,-8.91,-1.31,-0.375,7.625,-23.5,0.59930419921875,-0.36846923828125,0.638671875,-0.311767578125,-30.5625,39.875,17.1875,-5.25,-8.23,-0.85,moving,5
6.9,1154480.403038585,27,3,3,3,2,-7.59,-17.18,-7.26,-2.39,-8.93,-6.25,-44.125,92.3125,-24.6875,0.592041015625,-0.36962890625,0.64385986328125,-0.31353759765625,-30.5625,39.875,17.1875,-5.2,-8.25,-1.0,moving,5
6.91,1154480.403038585,27,3,3,3,2,-9.18,-18.55,1.98,-4.02,-10.29,3.14,-57.9375,77.5,-16.1875,0.5853271484375,-0.37139892578125,0.64892578125,-0.3135986328125,-28.375,42.5,16.0,-5.16,-8.25,-1.15,moving,5
6.92,1154480.414661673,27,3,3,3,2,-7.2,-18.18,-2.03,-2.1,-9.93,-0.6,-108.3125,129.6875,-22.75,0.57379150390625,-0.3746337890625,0.65765380859375,-0.31280517578125,-28.375,42.5,16.0,-5.1,-8.25,-1.42,moving,5
6.93,1154480.414661673,27,3,3,3,2,-5.43,-17.16,-4.76,-0.4,-8.91,-3.07,-109.1875,115.1875,-28.5,0.56280517578125,-0.37860107421875,0.6654052734375,-0.31170654296875,-28.375,42.5,16.0,-5.03,-8.24,-1.68,moving,5
6.94,1154480.451453014,27,3,3,3,2,-4.12,-16.38,-4.24,0.86,-8.13,-2.42,-51.0,56.0625,-16.5,0.557373046875,-0.3804931640625,0.66900634765625,-0.3114013671875,-28.375,42.5,16.0,-4.98,-8.24,-1.81,moving,5
6.95,1154480.451453014,27,3,3,3,2,-5.01,-14.4,-3.9,-0.03,-6.15,-2.09,9.4375,17.4375,-0.75,0.556640625,-0.379638671875,0.6695556640625,-0.31256103515625,-28.375,42.5,16.0,-4.98,-8.24,-1.81,moving,5
6.96,1154480.463897716,27,3,3,3,2,-5.99,-12.84,-3.75,-0.99,-4.58,-2.0,40.5,-8.75,8.5625,0.5587158203125,-0.37738037109375,0.6683349609375,-0.31427001953125,-29.375,42.0,16.375,-4.99,-8.25,-1.74,moving,5
6.97,1154480.463897716,27,3,3,3,2,-6.2,-11.08,-3.17,-1.18,-2.82,-1.51,49.75,-18.875,11.6875,0.561767578125,-0.37481689453125,0.6663818359375,-0.31597900390625,-29.375,42.0,16.375,-5.01,-8.25,-1.65,moving,5
6.98,1154480.476101248,27,3,3,3,2,-5.81,-9.45,-2.35,-0.77,-1.19,-0.78,46.375,-14.9375,14.0,0.56451416015625,-0.37213134765625,0.66485595703125,-0.3175048828125,-29.375,42.0,16.375,-5.04,-8.26,-1.57,moving,5
6.99,1154480.476101248,27,3,3,3,2,-4.91,-7.43,-0.31,0.15,0.82,1.21,33.625,-2.8125,14.6875,0.566162109375,-0.3697509765625,0.66424560546875,-0.31866455078125,-29.375,42.0,16.375,-5.06,-8.25,-1.52,moving,5
7.0,1154480.504914603,27,3,3,3,2,-4.35,-7.09,-0.17,0.72,1.15,1.35,8.4375,19.4375,12.4375,0.565673828125,-0.3680419921875,0.66534423828125,-0.31915283203125,-29.375,42.0,16.375,-5.07,-8.24,-1.53,moving,5
7.01,1154480.504914603,27,3,3,3,2,-3.54,-6.9,-0.53,1.53,1.32,1.05,-13.3125,40.6875,10.4375,0.5631103515625,-0.36700439453125,0.6680908203125,-0.31915283203125,-29.0625,41.5625,17.1875,-5.08,-8.23,-1.58,moving,5
7.02,1154480.522865978,27,3,3,3,2,-2.73,-6.63,-0.7,2.34,1.58,0.95,-18.1875,48.4375,11.375,0.56005859375,-0.3658447265625,0.67132568359375,-0.319091796875,-29.0625,41.5625,17.1875,-5.08,-8.22,-1.65,moving,5
7.03,1154480.522865978,27,3,3,3,2,-1.13,-5.31,0.1,3.95,2.89,1.81,-10.75,49.625,12.4375,0.55712890625,-0.36431884765625,0.6744384765625,-0.3194580078125,-29.0625,41.5625,17.1875,-5.08,-8.2,-1.71,moving,5
7.04,1154480.534597179,27,3,3,3,2,-0.4,-4.59,0.31,4.68,3.59,2.07,-1.9375,47.0,12.875,0.55462646484375,-0.3623046875,0.67718505859375,-0.32025146484375,-29.0625,41.5625,17.1875,-5.09,-8.19,-1.76,moving,5
7.05,1154480.534597179,27,3,3,3,2,0.02,-3.88,0.59,5.12,4.29,2.39,6.125,42.75,13.1875,0.55267333984375,-0.36004638671875,0.679443359375,-0.3212890625,-29.0625,41.5625,17.1875,-5.09,-8.18,-1.79,moving,5
7.06,1154480.564669567,27,3,3,3,2,0.44,-2.86,0.57,5.54,5.31,2.37,13.6875,38.8125,14.5,0.55120849609375,-0.35748291015625,0.681396484375,-0.3226318359375,-28.6875,42.0625,13.6875,-5.1,-8.17,-1.8,moving,5
7.07,1154480.564669567,27,3,3,3,2,0.46,-0.95,0.22,5.58,7.21,2.03,18.5,36.4375,15.875,0.550048828125,-0.3546142578125,0.68310546875,-0.32415771484375,-28.6875,42.0625,13.6875,-5.11,-8.16,-1.81,moving,5
7.08,1154480.579568574,27,3,3,3,2,0.19,-0.09,0.27,5.32,8.05,2.08,21.3125,32.75,18.25,0.54925537109375,-0.3515625,0.68463134765625,-0.3255615234375,-28.6875,42.0625,13.6875,-5.13,-8.15,-1.81,moving,5
7.09,1154480.579568574,27,3,3,3,2,-0.08,0.64,0.17,5.06,8.79,1.98,21.5625,32.25,20.9375,0.548583984375,-0.348388671875,0.68621826171875,-0.32684326171875,-28.6875,42.0625,13.6875,-5.14,-8.14,-1.8,moving,5
7.1,1154480.595637584,27,3,3,3,2,-0.53,1.95,0.2,4.63,10.08,2.01,22.125,33.3125,23.3125,0.54791259765625,-0.344970703125,0.6878662109375,-0.328125,-28.6875,42.0625,13.6875,-5.17,-8.13,-1.8,moving,5
7.11,1154480.595637584,27,3,3,3,2,-0.42,2.34,0.56,4.77,10.46,2.36,21.0625,32.9375,23.25,0.54718017578125,-0.3416748046875,0.68951416015625,-0.32928466796875,-28.375,42.0625,11.375,-5.19,-8.11,-1.8,moving,5
7.12,1154480.610106131,27,3,3,3,2,-0.42,2.34,0.56,4.77,10.46,2.36,21.0625,32.9375,23.25,0.54718017578125,-0.3416748046875,0.68951416015625,-0.32928466796875,-28.375,42.0625,11.375,-5.19,-8.11,-1.8,moving,5
7.12,1154480.610106131,27,3,3,3,2,0.0,2.86,0.87,5.2,10.97,2.69,14.1875,37.3125,19.25,0.5458984375,-0.3387451171875,0.69146728515625,-0.330322265625,-28.375,42.0625,11.375,-5.2,-8.1,-1.82,moving,5
7.13,1154480.624122122,27,3,3,3,2,0.59,3.62,1.16,5.79,11.72,3.02,0.6875,50.0625,7.0,0.5430908203125,-0.33685302734375,0.69403076171875,-0.33154296875,-28.375,42.0625,11.375,-5.2,-8.1,-1.86,moving,5
7.14,1154480.624122122,27,3,3,3,2,1.56,3.6,0.89,6.72,11.71,2.84,-15.0625,64.25,-12.0625,0.53839111328125,-0.33642578125,0.6971435546875,-0.33306884765625,-28.375,42.0625,11.375,-5.16,-8.1,-1.94,moving,5
7.15,1154480.654795421,27,3,3,3,2,1.96,3.55,0.78,7.06,11.67,2.84,-34.25,74.5,-32.0625,0.53192138671875,-0.33782958984375,0.70062255859375,-0.33465576171875,-28.375,42.0625,11.375,-5.09,-8.12,-2.06,moving,5
7.16,1154480.654795421,27,3,3,3,2,1.43,2.91,0.16,6.44,11.04,2.4,-67.1875,88.375,-31.0625,0.52362060546875,-0.34027099609375,0.70574951171875,-0.3345947265625,-28.0,43.1875,9.0,-5.01,-8.12,-2.23,moving,5
7.17,1154480.670310151,27,3,3,3,2,1.16,1.07,-0.75,6.14,9.17,1.64,-76.5,74.6875,-2.625,0.51666259765625,-0.34173583984375,0.7113037109375,-0.33221435546875,-28.0,43.1875,9.0,-4.98,-8.09,-2.4,moving,5
7.18,1154480.670310151,27,3,3,3,2,-1.62,-2.5,-1.38,3.36,5.54,1.15,-58.3125,59.25,27.125,0.511962890625,-0.3409423828125,0.7164306640625,-0.32916259765625,-28.0,43.1875,9.0,-4.99,-8.04,-2.54,moving,5
7.19,1154480.685186901,27,3,3,3,2,-2.83,-4.52,-3.08,2.25,3.43,-0.47,-30.125,30.0625,84.25,0.5115966796875,-0.336181640625,0.72113037109375,-0.32440185546875,-28.0,43.1875,9.0,-5.09,-7.96,-2.6,moving,5
7.2,1154480.685186901,27,3,3,3,2,-10.37,-12.31,-3.46,-5.05,-4.46,-0.93,21.0,-58.5625,138.5625,0.519775390625,-0.328125,0.721923828125,-0.31781005859375,-28.0,43.1875,9.0,-5.31,-7.84,-2.52,moving,5
7.21,1154480.721495576,27,3,3,3,2,-17.4,-26.04,-5.75,-11.95,-18.22,-3.46,105.3125,-103.3125,67.75,0.5311279296875,-0.32196044921875,0.7161865234375,-0.31842041015625,-29.375,42.875,7.5,-5.44,-7.82,-2.28,moving,5
7.22,1154480.721495576,27,3,3,3,2,-28.16,-34.57,-10.13,-22.52,-26.73,-8.43,279.9375,-207.8125,93.25,0.55426025390625,-0.30877685546875,0.7010498046875,-0.3255615234375,-29.375,42.875,7.5,-5.64,-7.83,-1.7,moving,5
7.23,1154480.73546571,27,3,3,3,2,-23.41,-21.65,-6.34,-17.62,-13.81,-5.24,269.5,-238.4375,66.25,0.57769775390625,-0.29833984375,0.68328857421875,-0.332275390625,-29.375,42.875,7.5,-5.79,-7.83,-1.09,moving,5
7.24,1154480.73546571,27,3,3,3,2,-18.63,-15.77,-2.53,-12.82,-7.93,-1.54,43.4375,-48.0625,6.3125,0.58184814453125,-0.297119140625,0.67974853515625,-0.333251953125,-29.375,42.875,7.5,-5.81,-7.83,-0.98,moving,5
7.25,1154480.745617484,27,3,3,3,2,-15.66,-16.09,-7.33,-9.89,-8.26,-6.11,-74.8125,124.4375,-10.8125,0.57220458984375,-0.2979736328125,0.68792724609375,-0.33258056640625,-29.375,42.875,7.5,-5.77,-7.83,-1.21,moving,5
7.26,1154480.745617484,27,3,3,3,2,-17.39,-15.02,2.05,-11.63,-7.2,3.4,-34.5625,90.0625,1.4375,0.56591796875,-0.29693603515625,0.69342041015625,-0.332763671875,-28.0,45.25,3.5,-5.75,-7.82,-1.35,moving,5
7.27,1154480.775917939,27,3,3,3,2,-16.49,-15.12,1.38,-10.76,-7.31,2.93,-72.3125,94.125,-6.0625,0.55816650390625,-0.29815673828125,0.699951171875,-0.33111572265625,-28.0,45.25,3.5,-5.72,-7.8,-1.54,moving,5
7.28,1154480.775917939,27,3,3,3,2,-15.24,-13.77,-4.11,-9.56,-5.98,-2.34,-109.4375,79.75,-16.5,0.5499267578125,-0.3021240234375,0.70654296875,-0.3272705078125,-28.0,45.25,3.5,-5.68,-7.79,-1.77,moving,5
7.29,1154480.789819713,27,3,3,3,2,-11.41,-11.62,-4.26,-5.74,-3.83,-2.37,-73.75,12.75,-11.75,0.54681396484375,-0.3060302734375,0.70892333984375,-0.3236083984375,-28.0,45.25,3.5,-5.66,-7.78,-1.88,moving,5
7.3,1154480.789819713,27,3,3,3,2,-9.06,-10.98,-4.7,-3.39,-3.2,-2.83,-6.9375,-27.75,0.75,0.54840087890625,-0.30706787109375,0.70782470703125,-0.3223876953125,-28.0,45.25,3.5,-5.67,-7.77,-1.86,moving,5
7.31,1154480.804776256,27,3,3,3,2,-7.18,-10.12,-4.42,-1.48,-2.34,-2.65,29.8125,-53.9375,7.1875,0.552734375,-0.30670166015625,0.70458984375,-0.3223876953125,-26.1875,46.0,3.5,-5.69,-7.78,-1.77,moving,5
7.32,1154480.804776256,27,3,3,3,2,-5.49,-9.65,-3.53,0.23,-1.86,-1.87,40.75,-64.875,6.0,0.5579833984375,-0.30615234375,0.70050048828125,-0.3228759765625,-26.1875,46.0,3.5,-5.72,-7.78,-1.65,moving,5
7.33,1154480.84157126,27,3,3,3,2,-3.83,-8.11,-0.51,1.91,-0.31,1.01,46.25,-61.5625,-0.375,0.56298828125,-0.3056640625,0.6961669921875,-0.32403564453125,-26.1875,46.0,3.5,-5.74,-7.79,-1.53,moving,5
7.34,1154480.84157126,27,3,3,3,2,-3.55,-7.16,0.84,2.19,0.65,2.26,41.3125,-48.75,-9.75,0.5667724609375,-0.3055419921875,0.69232177734375,-0.32568359375,-26.1875,46.0,3.5,-5.74,-7.81,-1.42,moving,5
7.35,1154480.850646252,27,3,3,3,2,-3.37,-6.4,1.07,2.34,1.44,2.45,14.625,-26.6875,-20.625,0.56817626953125,-0.30682373046875,0.6900634765625,-0.326904296875,-26.1875,46.0,3.5,-5.72,-7.84,-1.37,moving,5
7.36,1154480.850646252,27,3,3,3,2,-3.32,-5.46,0.5,2.35,2.4,1.9,-15.75,-9.0625,-27.5625,0.5675048828125,-0.30950927734375,0.6893310546875,-0.3270263671875,-28.0,46.375,4.6875,-5.68,-7.86,-1.39,moving,5
7.37,1154480.864745006,27,3,3,3,2,-3.32,-5.46,0.5,2.35,2.4,1.9,-15.75,-9.0625,-27.5625,0.5675048828125,-0.30950927734375,0.6893310546875,-0.3270263671875,-28.0,46.375,4.6875,-5.68,-7.86,-1.39,moving,5
7.37,1154480.864745006,27,3,3,3,2,-3.44,-3.4,-0.42,2.19,4.48,1.0,-29.375,-4.8125,-31.1875,0.566162109375,-0.31298828125,0.6890869140625,-0.32666015625,-28.0,46.375,4.6875,-5.64,-7.89,-1.42,moving,5
7.38,1154480.891675874,27,3,3,3,2,-2.96,-2.48,-0.42,2.63,5.42,1.04,-29.5625,-6.4375,-33.8125,0.56475830078125,-0.316650390625,0.68865966796875,-0.32635498046875,-28.0,46.375,4.6875,-5.6,-7.91,-1.46,moving,5
7.39,1154480.891675874,27,3,3,3,2,-2.37,-1.43,-0.33,3.18,6.51,1.15,-24.375,-5.1875,-33.5,0.56341552734375,-0.32000732421875,0.68817138671875,-0.326416015625,-28.0,46.375,4.6875,-5.55,-7.94,-1.49,moving,5
7.4,1154480.902470877,27,3,3,3,2,-1.81,-0.66,-0.32,3.69,7.29,1.18,-15.4375,0.0,-31.5,0.5621337890625,-0.3226318359375,0.687744140625,-0.3270263671875,-28.0,46.375,4.6875,-5.51,-7.96,-1.51,moving,5
7.41,1154480.902470877,27,3,3,3,2,-0.43,0.14,0.32,5.04,8.14,1.84,-5.9375,0.9375,-27.875,0.56109619140625,-0.3245849609375,0.6871337890625,-0.32806396484375,-26.875,46.0,5.5,-5.47,-7.99,-1.52,moving,5
7.42,1154480.924623424,27,3,3,3,2,0.18,0.28,0.86,5.62,8.29,2.39,-3.1875,7.125,-22.9375,0.5599365234375,-0.32586669921875,0.68695068359375,-0.32916259765625,-26.875,46.0,5.5,-5.44,-8.01,-1.53,moving,5
7.43,1154480.924623424,27,3,3,3,2,0.85,0.97,1.05,6.25,9.0,2.6,-7.0625,15.9375,-23.3125,0.55810546875,-0.3271484375,0.687255859375,-0.330322265625,-26.875,46.0,5.5,-5.4,-8.03,-1.55,moving,5
7.44,1154480.940304455,27,3,3,3,2,2.52,2.22,2.47,7.87,10.28,4.07,-18.5,23.8125,-33.1875,0.55523681640625,-0.329345703125,0.68798828125,-0.33148193359375,-26.875,46.0,5.5,-5.35,-8.06,-1.6,moving,5
7.45,1154480.940304455,27,3,3,3,2,3.02,2.64,2.74,8.29,10.73,4.45,-51.5625,38.25,-48.8125,0.54998779296875,-0.33367919921875,0.68994140625,-0.33184814453125,-26.875,46.0,5.5,-5.27,-8.09,-1.71,moving,5
7.46,1154480.954206188,27,3,3,3,2,3.61,2.16,1.51,8.76,10.29,3.37,-81.3125,36.375,-75.375,0.54327392578125,-0.34100341796875,0.69183349609375,-0.33160400390625,-28.0,43.75,7.875,-5.15,-8.13,-1.86,moving,5
7.47,1154480.954206188,27,3,3,3,2,3.85,3.31,1.8,8.87,11.49,3.82,-101.9375,16.1875,-88.4375,0.53668212890625,-0.3507080078125,0.69287109375,-0.33013916015625,-28.0,43.75,7.875,-5.02,-8.17,-2.02,moving,5
7.48,1154480.986444347,27,3,3,3,2,3.06,3.67,0.3,7.99,11.84,2.55,-139.625,29.625,-56.9375,0.5289306640625,-0.35980224609375,0.69647216796875,-0.3251953125,-28.0,43.75,7.875,-4.92,-8.17,-2.24,moving,5
7.49,1154480.986444347,27,3,3,3,2,1.2,2.08,-0.03,6.1,10.22,2.42,-132.125,28.875,-13.1875,0.5225830078125,-0.3658447265625,0.7010498046875,-0.31866455078125,-28.0,43.75,7.875,-4.89,-8.13,-2.45,moving,5
7.5,1154481.000087658,27,3,3,3,2,0.67,-0.45,-0.46,5.55,7.63,2.16,-103.0,27.8125,-7.125,0.51739501953125,-0.37017822265625,0.7049560546875,-0.3135986328125,-28.0,43.75,7.875,-4.87,-8.09,-2.62,moving,5
7.51,1154481.000087658,27,3,3,3,2,0.07,-0.97,-0.57,4.94,7.08,2.16,-62.6875,32.0,6.4375,0.51361083984375,-0.3717041015625,0.70831298828125,-0.31048583984375,-28.375,43.5,9.75,-4.87,-8.05,-2.74,moving,5
7.52,1154481.035008394,27,3,3,3,2,-2.16,-8.41,-5.24,2.76,-0.4,-2.48,8.0625,28.0625,51.1875,0.51348876953125,-0.367431640625,0.71099853515625,-0.3095703125,-28.375,43.5,9.75,-4.92,-8.01,-2.75,moving,5
7.53,1154481.035008394,27,3,3,3,2,-16.57,-24.78,-3.13,-11.43,-16.82,-0.63,126.9375,-84.75,121.875,0.52606201171875,-0.35638427734375,0.70758056640625,-0.3092041015625,-28.375,43.5,9.75,-5.13,-7.96,-2.5,moving,5
7.54,1154481.047372285,27,3,3,3,2,-16.88,-32.39,-13.62,-11.63,-24.34,-11.64,297.9375,-122.5,45.125,0.54388427734375,-0.34307861328125,0.69500732421875,-0.32159423828125,-28.375,43.5,9.75,-5.24,-8.04,-1.97,moving,5
7.55,1154481.047372285,27,3,3,3,2,-21.16,-39.48,-10.2,-15.78,-31.37,-8.99,374.0625,-263.0,41.0,0.57171630859375,-0.3299560546875,0.6727294921875,-0.33416748046875,-28.375,43.5,9.75,-5.38,-8.1,-1.2,moving,5
7.56,1154481.059287365,27,3,3,3,2,-9.83,-15.71,1.67,-4.43,-7.57,2.5,173.875,-138.4375,-3.25,0.58465576171875,-0.32550048828125,0.6605224609375,-0.34051513671875,-29.75,42.0,12.875,-5.4,-8.14,-0.82,moving,5
7.57,1154481.059287365,27,3,3,3,2,-7.14,-17.76,-7.21,-1.8,-9.6,-6.2,-47.5,117.5625,-26.0625,0.57568359375,-0.32586669921875,0.66717529296875,-0.3424072265625,-29.75,42.0,12.875,-5.34,-8.16,-1.0,moving,5
7.58,1154481.075612642,27,3,3,3,2,-8.15,-19.03,-5.88,-2.84,-10.88,-4.69,-47.25,126.625,-5.3125,0.5667724609375,-0.32476806640625,0.67474365234375,-0.343505859375,-29.75,42.0,12.875,-5.31,-8.15,-1.19,moving,5
7.59,1154481.075612642,27,3,3,3,2,-11.3,-20.31,4.67,-6.0,-12.17,6.02,-62.0,77.5625,1.1875,0.56048583984375,-0.325439453125,0.680419921875,-0.34197998046875,-29.75,42.0,12.875,-5.29,-8.14,-1.35,moving,5
7.6,1154481.106017427,27,3,3,3,2,-7.91,-19.85,0.67,-2.64,-11.72,2.26,-95.9375,108.75,-5.5,0.55108642578125,-0.32720947265625,0.68841552734375,-0.33966064453125,-29.75,42.0,12.875,-5.26,-8.12,-1.58,moving,5
7.61,1154481.106017427,27,3,3,3,2,-4.36,-17.64,0.13,0.86,-9.54,1.88,-66.0625,82.75,-5.9375,0.54400634765625,-0.3282470703125,0.69415283203125,-0.33831787109375,-29.0625,43.75,6.6875,-5.22,-8.1,-1.75,moving,5
7.62,1154481.125318615,27,3,3,3,2,-1.78,-15.72,-0.65,3.42,-7.61,1.15,-10.1875,43.375,-7.375,0.5408935546875,-0.32794189453125,0.6962890625,-0.33929443359375,-29.0625,43.75,6.6875,-5.2,-8.11,-1.81,moving,5
7.63,1154481.125318615,27,3,3,3,2,-1.78,-15.72,-0.65,3.42,-7.61,1.15,-10.1875,43.375,-7.375,0.5408935546875,-0.32794189453125,0.6962890625,-0.33929443359375,-29.0625,43.75,6.6875,-5.2,-8.11,-1.81,moving,5
7.63,1154481.139152274,27,3,3,3,2,-1.5,-14.11,-2.92,3.69,-5.98,-1.18,52.8125,7.6875,1.4375,0.54193115234375,-0.32513427734375,0.695068359375,-0.34271240234375,-29.0625,43.75,6.6875,-5.2,-8.12,-1.74,moving,5
7.64,1154481.139152274,27,3,3,3,2,-4.55,-12.03,-3.53,0.68,-3.89,-1.96,101.6875,-23.1875,21.875,0.546875,-0.3197021484375,0.6915283203125,-0.34716796875,-29.0625,43.75,6.6875,-5.24,-8.13,-1.57,moving,5
7.65,1154481.14946457,27,3,3,3,2,-5.92,-10.1,-3.14,-0.63,-1.96,-1.77,115.75,-43.3125,31.8125,0.55364990234375,-0.31353759765625,0.686767578125,-0.3514404296875,-29.0625,43.75,6.6875,-5.29,-8.13,-1.37,moving,5
7.66,1154481.14946457,27,3,3,3,2,-5.85,-8.6,-2.41,-0.5,-0.47,-1.21,97.375,-43.0,35.5625,0.5599365234375,-0.30804443359375,0.6826171875,-0.3543701171875,-28.0,43.5,7.5,-5.35,-8.12,-1.19,moving,5
7.67,1154481.164594168,27,3,3,3,2,-4.82,-6.76,-0.5,0.58,1.34,0.57,68.3125,-25.1875,35.4375,0.5643310546875,-0.30340576171875,0.68023681640625,-0.3560791015625,-28.0,43.5,7.5,-5.41,-8.1,-1.07,moving,5
7.68,1154481.164594168,27,3,3,3,2,-4.36,-5.78,0.0,1.08,2.29,1.03,33.8125,0.625,31.4375,0.566162109375,-0.29986572265625,0.67999267578125,-0.3565673828125,-28.0,43.5,7.5,-5.45,-8.08,-1.02,moving,5
7.69,1154481.195472057,27,3,3,3,2,-3.94,-5.05,0.07,1.53,3.0,1.12,-1.875,24.0,25.0,0.5654296875,-0.2977294921875,0.681884765625,-0.3558349609375,-28.0,43.5,7.5,-5.48,-8.06,-1.05,moving,5
7.7,1154481.195472057,27,3,3,3,2,-3.22,-4.3,0.12,2.28,3.72,1.25,-26.625,37.9375,20.0625,0.5631103515625,-0.29669189453125,0.68511962890625,-0.35430908203125,-28.0,43.5,7.5,-5.5,-8.03,-1.12,moving,5
7.71,1154481.21001527,27,3,3,3,2,-1.39,-2.53,0.19,4.12,5.48,1.4,-31.8125,46.0,16.8125,0.56005859375,-0.29583740234375,0.68878173828125,-0.352783203125,-27.5625,45.25,2.75,-5.51,-8.01,-1.21,moving,5
7.72,1154481.21001527,27,3,3,3,2,-0.51,-1.55,0.0,5.01,6.44,1.29,-21.0,50.75,15.75,0.55694580078125,-0.29437255859375,0.6922607421875,-0.35205078125,-27.5625,45.25,2.75,-5.52,-7.99,-1.29,moving,5
7.73,1154481.224542858,27,3,3,3,2,0.1,-0.82,0.02,5.63,7.16,1.37,-6.6875,46.3125,12.0,0.5543212890625,-0.29254150390625,0.69500732421875,-0.352294921875,-27.5625,45.25,2.75,-5.53,-7.98,-1.34,moving,5
7.74,1154481.224542858,27,3,3,3,2,1.08,0.51,0.11,6.61,8.49,1.49,3.4375,37.1875,5.0,0.55230712890625,-0.29095458984375,0.69683837890625,-0.35321044921875,-27.5625,45.25,2.75,-5.53,-7.97,-1.37,moving,5
7.75,1154481.25513083,27,3,3,3,2,1.39,1.26,0.32,6.91,9.25,1.71,8.6875,24.125,-3.0,0.55096435546875,-0.28997802734375,0.6976318359375,-0.35455322265625,-27.5625,45.25,2.75,-5.52,-7.98,-1.38,moving,5
7.76,1154481.25513083,27,3,3,3,2,1.55,1.97,0.87,7.04,9.98,2.26,9.6875,14.0625,-15.5,0.54986572265625,-0.2900390625,0.69757080078125,-0.35626220703125,-26.875,45.6875,2.75,-5.49,-8.0,-1.38,moving,5
7.77,1154481.270729585,27,3,3,3,2,1.86,2.38,1.0,7.31,10.41,2.41,2.375,20.1875,-29.5,0.5477294921875,-0.29107666015625,0.69769287109375,-0.35833740234375,-26.875,45.6875,2.75,-5.44,-8.03,-1.4,moving,5
7.78,1154481.270729585,27,3,3,3,2,2.3,2.1,0.36,7.69,10.17,1.8,-6.6875,25.1875,-39.375,0.5447998046875,-0.29302978515625,0.6981201171875,-0.3604736328125,-26.875,45.6875,2.75,-5.38,-8.06,-1.43,moving,5
7.79,1154481.284625866,27,3,3,3,2,1.86,1.98,-0.21,7.19,10.08,1.25,-13.4375,23.5625,-38.625,0.54180908203125,-0.2952880859375,0.69866943359375,-0.36212158203125,-26.875,45.6875,2.75,-5.32,-8.1,-1.47,moving,5
7.8,1154481.284625866,27,3,3,3,2,1.22,1.67,-0.39,6.51,9.78,1.12,-22.4375,14.5,-24.3125,0.53955078125,-0.29742431640625,0.69940185546875,-0.3623046875,-26.875,45.6875,2.75,-5.28,-8.11,-1.52,moving,5
7.81,1154481.334040783,27,3,3,3,2,-0.07,-0.38,-0.69,5.19,7.73,0.89,-35.4375,18.9375,-9.8125,0.53717041015625,-0.299072265625,0.701171875,-0.36114501953125,-27.25,45.6875,-0.25,-5.26,-8.11,-1.59,moving,5
7.82,1154481.334040783,27,3,3,3,2,-2.77,-5.56,-2.88,2.51,2.52,-1.22,-36.625,16.875,15.875,0.53564453125,-0.29931640625,0.7034912109375,-0.35858154296875,-27.25,45.6875,-0.25,-5.28,-8.09,-1.65,moving,5
7.83,1154481.338502087,27,3,3,3,2,-8.48,-11.43,-1.86,-3.08,-3.41,-0.19,-20.875,-18.8125,72.4375,0.53851318359375,-0.29644775390625,0.70513916015625,-0.35345458984375,-27.25,45.6875,-0.25,-5.39,-8.01,-1.66,moving,5
7.84,1154481.338502087,27,3,3,3,2,-14.56,-19.61,-4.52,-9.08,-11.65,-2.87,-1.125,-26.5625,57.0625,0.5418701171875,-0.2938232421875,0.70538330078125,-0.35003662109375,-27.25,45.6875,-0.25,-5.47,-7.96,-1.64,moving,5
7.85,1154481.346892834,27,3,3,3,2,-18.54,-24.46,-7.0,-12.98,-16.52,-5.53,76.5625,-63.1875,48.75,0.54913330078125,-0.28912353515625,0.70123291015625,-0.350830078125,-27.25,45.6875,-0.25,-5.56,-7.93,-1.47,moving,5
7.86,1154481.346892834,27,3,3,3,2,-16.45,-16.34,-4.18,-10.8,-8.41,-2.96,117.125,-93.375,44.1875,0.55914306640625,-0.28363037109375,0.6942138671875,-0.35345458984375,-27.25,44.6875,0.0,-5.64,-7.92,-1.22,moving,5
7.87,1154481.374856701,27,3,3,3,2,-8.85,-8.17,-5.3,-3.17,-0.25,-4.2,51.125,-57.4375,13.1875,0.56427001953125,-0.28216552734375,0.690185546875,-0.3544921875,-27.25,44.6875,0.0,-5.67,-7.92,-1.09,moving,5
7.88,1154481.374856701,27,3,3,3,2,-9.27,-9.05,-7.26,-3.6,-1.14,-6.13,-16.375,9.125,-0.25,0.56329345703125,-0.28265380859375,0.69110107421875,-0.353759765625,-27.25,44.6875,0.0,-5.67,-7.91,-1.12,moving,5
7.89,1154481.381101533,27,3,3,3,2,-9.27,-9.05,-7.26,-3.6,-1.14,-6.13,-16.375,9.125,-0.25,0.56329345703125,-0.28265380859375,0.69110107421875,-0.353759765625,-27.25,44.6875,0.0,-5.67,-7.91,-1.12,moving,5
7.89,1154481.381101533,27,3,3,3,2,-11.45,-10.23,-3.69,-5.79,-2.31,-2.49,-30.8125,26.5,-6.125,0.56072998046875,-0.28375244140625,0.6932373046875,-0.35284423828125,-27.25,44.6875,0.0,-5.65,-7.91,-1.19,moving,5
7.9,1154481.412023653,27,3,3,3,2,-11.55,-12.24,-0.23,-5.92,-4.33,1.12,-74.625,61.5,-15.0,0.5546875,-0.28643798828125,0.6981201171875,-0.3505859375,-27.25,44.6875,0.0,-5.62,-7.91,-1.36,moving,5
7.91,1154481.412023653,27,3,3,3,2,-11.57,-12.96,-2.09,-5.99,-5.05,-0.49,-105.375,86.4375,-18.8125,0.546142578125,-0.2900390625,0.70501708984375,-0.34722900390625,-26.5625,45.375,-0.6875,-5.57,-7.9,-1.59,moving,5
7.92,1154481.421568005,27,3,3,3,2,-12.1,-13.1,-2.72,-6.57,-5.2,-0.95,-92.8125,59.0,-18.125,0.53955078125,-0.29376220703125,0.71014404296875,-0.3438720703125,-26.5625,45.375,-0.6875,-5.53,-7.89,-1.77,moving,5
7.93,1154481.421568005,27,3,3,3,2,-11.69,-10.91,-2.69,-6.18,-3.02,-0.82,-58.125,15.4375,-13.8125,0.53668212890625,-0.296875,0.7122802734375,-0.34130859375,-26.5625,45.375,-0.6875,-5.51,-7.89,-1.87,moving,5
7.94,1154481.43462961,27,3,3,3,2,-10.81,-10.08,-2.73,-5.3,-2.19,-0.85,-25.125,-23.625,-6.875,0.53729248046875,-0.2991943359375,0.71173095703125,-0.3394775390625,-26.5625,45.375,-0.6875,-5.5,-7.89,-1.88,moving,5
7.95,1154481.43462961,27,3,3,3,2,-9.87,-10.3,-3.68,-4.34,-2.42,-1.84,-0.375,-52.25,5.3125,0.54071044921875,-0.3004150390625,0.70941162109375,-0.33782958984375,-26.5625,45.375,-0.6875,-5.53,-7.88,-1.83,moving,5
7.96,1154481.464825858,27,3,3,3,2,-8.53,-10.38,-4.92,-2.95,-2.5,-3.19,24.5,-76.375,15.6875,0.5465087890625,-0.300537109375,0.70550537109375,-0.33660888671875,-27.5625,44.6875,2.375,-5.57,-7.87,-1.72,moving,5
7.97,1154481.464825858,27,3,3,3,2,-6.32,-8.94,-5.05,-0.69,-1.07,-3.46,36.375,-92.8125,15.5,0.5535888671875,-0.300537109375,0.70037841796875,-0.33563232421875,-27.5625,44.6875,2.375,-5.62,-7.87,-1.58,moving,5
7.98,1154481.484887829,27,3,3,3,2,-5.73,-8.03,-4.13,-0.07,-0.16,-2.65,17.75,-77.125,8.1875,0.55902099609375,-0.30145263671875,0.69635009765625,-0.33428955078125,-27.5625,44.6875,2.375,-5.65,-7.87,-1.48,moving,5
7.99,1154481.484887829,27,3,3,3,2,-5.53,-7.37,-3.25,0.12,0.48,-1.77,-16.5,-31.375,-1.125,0.5604248046875,-0.30322265625,0.69525146484375,-0.33251953125,-27.5625,44.6875,2.375,-5.66,-7.86,-1.47,moving,5
8.0,1154481.500163382,27,3,3,3,2,-5.58,-6.65,-2.22,0.06,1.21,-0.67,-41.375,7.5625,-9.5,0.55859375,-0.30560302734375,0.69659423828125,-0.33062744140625,-27.5625,44.6875,2.375,-5.64,-7.86,-1.54,stop,5
8.01,1154481.500163382,27,3,3,3,2,-4.87,-5.66,-0.46,0.73,2.19,1.18,-58.625,25.75,-18.0625,0.554931640625,-0.308837890625,0.69903564453125,-0.32861328125,-26.875,46.0625,3.875,-5.61,-7.86,-1.64,stop,5
8.02,1154481.524965751,27,3,3,3,2,-4.39,-5.02,-0.44,1.17,2.84,1.32,-69.4375,30.125,-26.1875,0.55047607421875,-0.3128662109375,0.7017822265625,-0.32647705078125,-26.875,46.0625,3.875,-5.57,-7.87,-1.77,stop,5
8.03,1154481.524965751,27,3,3,3,2,-3.96,-4.23,-0.62,1.56,3.64,1.26,-66.8125,22.1875,-30.0625,0.54638671875,-0.31732177734375,0.70391845703125,-0.32440185546875,-26.875,46.0625,3.875,-5.52,-7.87,-1.88,stop,5
8.04,1154481.540430269,27,3,3,3,2,-3.81,-3.42,-0.76,1.67,4.46,1.19,-50.125,7.3125,-28.5625,0.543701171875,-0.32122802734375,0.70489501953125,-0.3228759765625,-26.875,46.0625,3.875,-5.48,-7.88,-1.96,stop,5
8.05,1154481.540430269,27,3,3,3,2,-3.4,-2.59,-1.03,2.04,5.3,0.95,-27.375,-6.5,-25.3125,0.54266357421875,-0.32427978515625,0.70465087890625,-0.32220458984375,-26.875,46.0625,3.875,-5.45,-7.9,-1.99,stop,5
8.06,1154481.55471156,27,3,3,3,2,-3.12,-2.58,-1.1,2.3,5.33,0.88,-7.6875,-20.6875,-22.375,0.5430908203125,-0.32659912109375,0.70330810546875,-0.32220458984375,-26.5625,45.6875,5.875,-5.42,-7.92,-1.98,stop,5
8.07,1154481.55471156,27,3,3,3,2,-3.08,-2.67,-1.01,2.32,5.26,0.93,5.0,-32.25,-19.1875,0.54461669921875,-0.32843017578125,0.7010498046875,-0.32244873046875,-26.5625,45.6875,5.875,-5.41,-7.94,-1.94,stop,5
8.08,1154481.591328869,27,3,3,3,2,-2.87,-2.77,-0.92,2.52,5.18,0.97,9.875,-37.6875,-16.75,0.5467529296875,-0.330078125,0.69854736328125,-0.32275390625,-26.5625,45.6875,5.875,-5.4,-7.96,-1.9,stop,5
8.09,1154481.591328869,27,3,3,3,2,-2.83,-2.93,-0.85,2.55,5.04,0.99,8.125,-37.625,-15.4375,0.548828125,-0.3316650390625,0.696044921875,-0.32293701171875,-26.5625,45.6875,5.875,-5.39,-7.97,-1.85,stop,5
8.1,1154481.598741141,27,3,3,3,2,-2.87,-3.04,-0.83,2.5,4.94,0.98,2.6875,-32.875,-14.9375,0.55047607421875,-0.3333740234375,0.6939697265625,-0.32281494140625,-26.5625,45.6875,5.875,-5.38,-7.99,-1.81,stop,5
8.11,1154481.598741141,27,3,3,3,2,-2.93,-3.13,-0.92,2.43,4.87,0.87,-4.75,-25.125,-15.25,0.55145263671875,-0.335205078125,0.69244384765625,-0.322509765625,-28.0,44.25,7.5,-5.36,-8.0,-1.8,stop,5
8.12,1154481.619262748,27,3,3,3,2,-2.9,-3.09,-0.96,2.45,4.91,0.83,-11.5,-17.625,-15.875,0.55169677734375,-0.33721923828125,0.69146728515625,-0.32208251953125,-28.0,44.25,7.5,-5.35,-8.01,-1.8,stop,5
8.13,1154481.619262748,27,3,3,3,2,-2.67,-3.03,-1.02,2.66,4.98,0.78,-15.375,-11.0625,-16.9375,0.55145263671875,-0.33929443359375,0.69091796875,-0.32159423828125,-28.0,44.25,7.5,-5.33,-8.02,-1.81,stop,5
8.14,1154481.649384737,27,3,3,3,2,-2.45,-3.2,-0.98,2.85,4.83,0.84,-16.5,-7.5,-18.1875,0.5509033203125,-0.34136962890625,0.69049072265625,-0.32122802734375,-28.0,44.25,7.5,-5.3,-8.03,-1.82,stop,5
8.15,1154481.649384737,27,3,3,3,2,-2.45,-3.2,-0.98,2.85,4.83,0.84,-16.5,-7.5,-18.1875,0.5509033203125,-0.34136962890625,0.69049072265625,-0.32122802734375,-28.0,44.25,7.5,-5.3,-8.03,-1.82,stop,5
8.16,1154481.654453422,27,3,3,3,2,-2.33,-3.46,-0.95,2.94,4.59,0.89,-16.9375,-6.375,-19.25,0.55023193359375,-0.343505859375,0.6900634765625,-0.3209228515625,-28.0,44.25,7.5,-5.28,-8.05,-1.84,stop,5
8.16,1154481.654453422,27,3,3,3,2,-2.29,-3.83,-0.87,2.96,4.22,0.98,-16.6875,-7.125,-20.6875,0.549560546875,-0.34576416015625,0.6895751953125,-0.3206787109375,-28.0,43.875,9.375,-5.25,-8.06,-1.86,stop,5
8.17,1154481.680877941,27,3,3,3,2,-2.44,-4.27,-0.83,2.78,3.8,1.04,-16.25,-9.4375,-21.875,0.549072265625,-0.34814453125,0.68896484375,-0.32049560546875,-28.0,43.875,9.375,-5.23,-8.07,-1.87,stop,5
8.18,1154481.680877941,27,3,3,3,2,-2.79,-5.18,-0.72,2.41,2.91,1.16,-18.1875,-11.9375,-23.125,0.548583984375,-0.3507080078125,0.68817138671875,-0.32012939453125,-28.0,43.875,9.375,-5.2,-8.09,-1.89,stop,5
8.19,1154481.690402478,27,3,3,3,2,-3.53,-6.71,-0.87,1.64,1.39,1.03,-21.625,-14.4375,-23.25,0.548095703125,-0.35357666015625,0.6873779296875,-0.3194580078125,-28.0,43.875,9.375,-5.17,-8.1,-1.91,stop,5
8.2,1154481.690402478,27,3,3,3,2,-7.77,-15.37,-3.32,-2.62,-7.25,-1.4,-17.9375,-22.0,-22.75,0.54827880859375,-0.35638427734375,0.6861572265625,-0.31878662109375,-28.0,43.875,9.375,-5.14,-8.12,-1.91,stop,5
8.21,1154481.704685843,27,3,3,3,2,-13.03,-26.31,-9.1,-7.88,-18.17,-7.25,23.6875,-47.125,-13.6875,0.5513916015625,-0.35736083984375,0.68280029296875,-0.31939697265625,-28.6875,43.5625,11.0,-5.14,-8.14,-1.84,stop,5
8.22,1154481.704685843,27,3,3,3,2,-14.8,-28.32,-6.08,-9.62,-20.15,-4.44,75.875,-101.875,0.5,0.559814453125,-0.3565673828125,0.67572021484375,-0.3206787109375,-28.6875,43.5625,11.0,-5.17,-8.16,-1.64,stop,5
8.23,1154481.734683483,27,3,3,3,2,-5.32,-16.65,-4.37,-0.14,-8.46,-2.87,49.125,-81.1875,-11.8125,0.5657958984375,-0.35711669921875,0.6700439453125,-0.32159423828125,-28.6875,43.5625,11.0,-5.18,-8.18,-1.49,stop,5
8.24,1154481.734683483,27,3,3,3,2,-4.68,-13.15,-7.7,0.45,-4.94,-6.22,-1.0,-18.75,-29.25,0.56597900390625,-0.359375,0.668212890625,-0.3223876953125,-28.6875,43.5625,11.0,-5.14,-8.21,-1.48,stop,5
8.25,1154481.752615857,27,3,3,3,2,-5.93,-12.1,-2.95,-0.82,-3.86,-1.48,5.125,-15.625,-28.125,0.5662841796875,-0.3612060546875,0.66644287109375,-0.3236083984375,-28.6875,43.5625,11.0,-5.1,-8.24,-1.46,stop,5
8.26,1154481.752615857,27,3,3,3,2,-7.47,-11.24,2.17,-2.41,-2.98,3.66,-20.4375,0.375,-28.125,0.5648193359375,-0.3638916015625,0.6661376953125,-0.32379150390625,-29.375,42.5,11.6875,-5.06,-8.26,-1.49,stop,5
8.27,1154481.764876273,27,3,3,3,2,-7.47,-9.39,-1.71,-2.47,-1.12,-0.07,-69.875,46.6875,-33.8125,0.55889892578125,-0.36798095703125,0.6693115234375,-0.3228759765625,-29.375,42.5,11.6875,-5.0,-8.27,-1.63,stop,5
8.28,1154481.764876273,27,3,3,3,2,-6.32,-8.22,-1.98,-1.37,0.05,-0.2,-75.9375,43.875,-32.6875,0.552978515625,-0.372314453125,0.67254638671875,-0.3214111328125,-29.375,42.5,11.6875,-4.94,-8.27,-1.78,stop,5
8.29,1154481.795272351,27,3,3,3,2,-5.18,-7.12,-1.93,-0.27,1.15,-0.06,-51.8125,21.375,-22.5625,0.54937744140625,-0.37554931640625,0.67425537109375,-0.32012939453125,-29.375,42.5,11.6875,-4.9,-8.28,-1.87,stop,5
8.3,1154481.795272351,27,3,3,3,2,-4.42,-6.45,-2.47,0.46,1.82,-0.55,-22.875,7.5,-9.6875,0.54791259765625,-0.37701416015625,0.67498779296875,-0.31951904296875,-29.375,42.5,11.6875,-4.89,-8.28,-1.91,stop,5
8.31,1154481.810726941,27,3,3,3,2,-3.94,-5.89,-2.65,0.95,2.38,-0.75,7.75,-8.625,1.75,0.5487060546875,-0.37677001953125,0.67437744140625,-0.319580078125,-28.6875,42.875,13.25,-4.89,-8.28,-1.89,stop,5
8.32,1154481.810726941,27,3,3,3,2,-4.37,-5.71,-2.6,0.54,2.57,-0.78,40.9375,-23.25,13.125,0.5517578125,-0.37469482421875,0.672607421875,-0.32061767578125,-28.6875,42.875,13.25,-4.92,-8.28,-1.81,stop,5
8.33,1154481.825227307,27,3,3,3,2,-4.78,-5.78,-2.35,0.18,2.49,-0.67,66.375,-40.625,23.6875,0.55694580078125,-0.37127685546875,0.6695556640625,-0.322021484375,-28.6875,42.875,13.25,-4.96,-8.28,-1.68,stop,5
8.34,1154481.825227307,27,3,3,3,2,-4.69,-5.97,-2.29,0.33,2.3,-0.75,73.625,-56.875,32.1875,0.56353759765625,-0.36737060546875,0.66571044921875,-0.3228759765625,-28.6875,42.875,13.25,-5.03,-8.27,-1.53,stop,5
8.35,1154481.856121797,27,3,3,3,2,-3.02,-6.61,-2.79,2.07,1.64,-1.41,68.625,-63.875,36.875,0.5704345703125,-0.3636474609375,0.66180419921875,-0.322998046875,-28.6875,42.875,13.25,-5.1,-8.26,-1.37,stop,5
8.36,1154481.856121797,27,3,3,3,2,-2.42,-6.74,-2.35,2.73,1.5,-1.1,49.9375,-56.125,34.4375,0.57623291015625,-0.36077880859375,0.65869140625,-0.3223876953125,-28.6875,41.6875,14.875,-5.16,-8.24,-1.25,stop,5
8.37,1154481.869781913,27,3,3,3,2,-2.29,-6.6,-1.7,2.91,1.61,-0.51,26.4375,-34.25,27.75,0.57977294921875,-0.35882568359375,0.6571044921875,-0.3214111328125,-28.6875,41.6875,14.875,-5.21,-8.22,-1.18,stop,5
8.38,1154481.869781913,27,3,3,3,2,-2.37,-6.54,-1.01,2.86,1.65,0.15,4.1875,-10.5625,20.375,0.5810546875,-0.35772705078125,0.6571044921875,-0.32025146484375,-28.6875,41.6875,14.875,-5.24,-8.2,-1.17,stop,5
8.39,1154481.885097912,27,3,3,3,2,-2.42,-6.87,0.0,2.83,1.31,1.2,-16.1875,7.75,11.9375,0.5804443359375,-0.357666015625,0.65838623046875,-0.3189697265625,-28.6875,41.6875,14.875,-5.25,-8.19,-1.2,stop,5
8.4,1154481.885097912,27,3,3,3,2,-2.64,-7.57,0.25,2.61,0.6,1.52,-32.6875,21.6875,4.5625,0.57830810546875,-0.35845947265625,0.6605224609375,-0.3175048828125,-28.6875,41.6875,14.875,-5.25,-8.17,-1.27,stop,5
8.41,1154481.900974621,27,3,3,3,2,-2.64,-7.57,0.25,2.61,0.6,1.52,-32.6875,21.6875,4.5625,0.57830810546875,-0.35845947265625,0.6605224609375,-0.3175048828125,-28.6875,41.6875,14.875,-5.25,-8.17,-1.27,stop,5
8.42,1154481.900974621,27,3,3,3,2,-3.16,-8.12,0.21,2.08,0.04,1.57,-42.3125,32.0,1.25,0.57513427734375,-0.359619140625,0.663330078125,-0.3160400390625,-28.0,43.5625,13.25,-5.25,-8.16,-1.36,stop,5
8.42,1154481.930974052,27,3,3,3,2,-4.4,-9.17,-0.57,0.83,-1.01,0.87,-43.0625,34.4375,0.0,0.57177734375,-0.36083984375,0.666259765625,-0.3145751953125,-28.0,43.5625,13.25,-5.24,-8.15,-1.45,stop,5
8.43,1154481.930974052,27,3,3,3,2,-4.9,-9.9,-1.01,0.33,-1.75,0.51,-34.625,24.75,-0.3125,0.5692138671875,-0.36187744140625,0.66845703125,-0.3133544921875,-28.0,43.5625,13.25,-5.23,-8.14,-1.52,stop,5
8.44,1154481.949269625,27,3,3,3,2,-5.34,-10.89,-1.51,-0.11,-2.75,0.04,-17.3125,7.8125,-0.8125,0.56817626953125,-0.36260986328125,0.6693115234375,-0.3126220703125,-28.0,43.5625,13.25,-5.23,-8.14,-1.55,stop,5
8.45,1154481.949269625,27,3,3,3,2,-5.49,-11.63,-1.96,-0.25,-3.48,-0.41,4.75,-9.875,-0.375,0.56890869140625,-0.3626708984375,0.668701171875,-0.3126220703125,-28.0,43.5625,13.25,-5.23,-8.14,-1.54,stop,5
8.46,1154481.963410331,27,3,3,3,2,-5.4,-11.52,-2.3,-0.16,-3.37,-0.81,22.9375,-22.5625,1.6875,0.57098388671875,-0.36199951171875,0.6669921875,-0.3131103515625,-29.0625,42.5,12.5,-5.24,-8.15,-1.48,stop,5
8.47,1154481.963410331,27,3,3,3,2,-4.98,-10.97,-2.14,0.27,-2.82,-0.72,28.0,-28.0,1.625,0.573486328125,-0.361328125,0.66485595703125,-0.31378173828125,-29.0625,42.5,12.5,-5.25,-8.15,-1.42,stop,5
8.48,1154481.974177909,27,3,3,3,2,-4.65,-10.75,-1.89,0.6,-2.59,-0.52,20.375,-23.625,-0.8125,0.57550048828125,-0.36102294921875,0.6630859375,-0.31427001953125,-29.0625,42.5,12.5,-5.25,-8.16,-1.37,stop,5
8.49,1154481.974177909,27,3,3,3,2,-4.52,-10.47,-1.66,0.73,-2.3,-0.31,5.0,-13.3125,-4.3125,0.5762939453125,-0.36138916015625,0.66217041015625,-0.31439208984375,-29.0625,42.5,12.5,-5.25,-8.16,-1.35,stop,5
8.5,1154482.005777641,27,3,3,3,2,-4.52,-9.73,-1.45,0.71,-1.56,-0.08,-14.1875,-1.5625,-8.1875,0.57568359375,-0.36260986328125,0.6622314453125,-0.31390380859375,-29.0625,42.5,12.5,-5.24,-8.17,-1.37,stop,5
8.51,1154482.005777641,27,3,3,3,2,-4.61,-9.37,-1.7,0.61,-1.2,-0.28,-29.125,7.8125,-11.0625,0.573974609375,-0.364501953125,0.6630859375,-0.31304931640625,-29.0625,42.875,12.5,-5.22,-8.17,-1.42,stop,5
8.52,1154482.020048799,27,3,3,3,2,-4.75,-8.93,-1.86,0.44,-0.76,-0.38,-34.75,9.75,-11.9375,0.57196044921875,-0.36669921875,0.66412353515625,-0.31195068359375,-29.0625,42.875,12.5,-5.2,-8.17,-1.48,stop,5
8.53,1154482.020048799,27,3,3,3,2,-4.92,-8.43,-1.9,0.26,-0.25,-0.37,-31.875,3.875,-11.125,0.5704345703125,-0.36883544921875,0.664794921875,-0.310791015625,-29.0625,42.875,12.5,-5.18,-8.17,-1.53,stop,5
8.54,1154482.034872367,27,3,3,3,2,-5.08,-7.54,-1.7,0.09,0.63,-0.14,-23.75,-5.875,-9.0,0.5697021484375,-0.3707275390625,0.66485595703125,-0.3096923828125,-29.0625,42.875,12.5,-5.17,-8.18,-1.55,stop,5
8.55,1154482.034872367,27,3,3,3,2,-5.03,-7.28,-1.54,0.13,0.9,0.01,-13.875,-16.6875,-6.5625,0.570068359375,-0.37225341796875,0.6641845703125,-0.30865478515625,-29.0625,42.875,12.5,-5.17,-8.18,-1.56,stop,5
8.56,1154482.065441255,27,3,3,3,2,-4.93,-7.12,-1.42,0.24,1.05,0.12,-4.8125,-24.9375,-4.5625,0.57122802734375,-0.37347412109375,0.6629638671875,-0.30780029296875,-28.6875,42.875,13.25,-5.17,-8.18,-1.54,stop,5
8.57,1154482.065441255,27,3,3,3,2,-4.82,-7.35,-1.38,0.35,0.83,0.13,1.1875,-29.375,-3.3125,0.57281494140625,-0.3743896484375,0.66131591796875,-0.30712890625,-28.6875,42.875,13.25,-5.17,-8.19,-1.52,stop,5
8.58,1154482.07985251,27,3,3,3,2,-4.81,-7.55,-1.45,0.36,0.64,0.03,3.6875,-30.125,-3.0625,0.5745849609375,-0.375244140625,0.65960693359375,-0.3065185546875,-28.6875,42.875,13.25,-5.17,-8.19,-1.48,stop,5
8.59,1154482.07985251,27,3,3,3,2,-4.77,-7.67,-1.44,0.4,0.52,0.01,2.625,-27.9375,-3.25,0.576171875,-0.37603759765625,0.65802001953125,-0.305908203125,-28.6875,42.875,13.25,-5.18,-8.19,-1.45,stop,5
8.6,1154482.1108106,27,3,3,3,2,-4.71,-7.78,-1.43,0.46,0.41,0.0,-1.4375,-24.0625,-3.8125,0.577392578125,-0.37701416015625,0.65673828125,-0.30523681640625,-28.6875,42.875,13.25,-5.18,-8.2,-1.44,stop,5
8.61,1154482.1108106,27,3,3,3,2,-4.53,-7.78,-1.17,0.64,0.42,0.26,-8.0625,-19.75,-4.375,0.578125,-0.378173828125,0.65582275390625,-0.3043212890625,-28.375,43.1875,14.5,-5.17,-8.2,-1.43,stop,5
8.62,1154482.128802991,27,3,3,3,2,-4.41,-7.82,-1.15,0.76,0.37,0.28,-14.1875,-15.9375,-4.375,0.57843017578125,-0.37957763671875,0.6552734375,-0.30322265625,-28.375,43.1875,14.5,-5.17,-8.2,-1.44,stop,5
8.63,1154482.128802991,27,3,3,3,2,-4.35,-7.89,-1.15,0.82,0.31,0.3,-17.375,-13.1875,-4.5625,0.5784912109375,-0.381103515625,0.6549072265625,-0.30206298828125,-28.375,43.1875,14.5,-5.17,-8.2,-1.45,stop,5
8.64,1154482.13986073,27,3,3,3,2,-4.32,-7.9,-1.07,0.83,0.29,0.4,-20.6875,-11.5,-5.0625,0.57830810546875,-0.38275146484375,0.6546630859375,-0.30072021484375,-28.375,43.1875,14.5,-5.16,-8.2,-1.47,stop,5
8.65,1154482.13986073,27,3,3,3,2,-4.27,-7.95,-1.12,0.88,0.24,0.36,-22.8125,-10.4375,-6.0625,0.5780029296875,-0.384521484375,0.654541015625,-0.29937744140625,-28.375,43.1875,14.5,-5.16,-8.2,-1.49,stop,5
8.66,1154482.160515149,27,3,3,3,2,-4.24,-7.97,-1.12,0.9,0.22,0.38,-22.0,-10.8125,-7.1875,0.57763671875,-0.3863525390625,0.65435791015625,-0.29815673828125,-28.6875,43.1875,16.0,-5.15,-8.2,-1.51,stop,5
8.67,1154482.160515149,27,3,3,3,2,-4.26,-8.0,-1.18,0.87,0.19,0.35,-21.6875,-11.5625,-8.25,0.57733154296875,-0.38824462890625,0.654052734375,-0.29693603515625,-28.6875,43.1875,16.0,-5.14,-8.2,-1.53,stop,5
8.68,1154482.185927787,27,3,3,3,2,-4.26,-8.07,-1.3,0.87,0.13,0.26,-22.625,-11.5,-9.6875,0.57696533203125,-0.3902587890625,0.6536865234375,-0.2957763671875,-28.6875,43.1875,16.0,-5.13,-8.2,-1.56,stop,5
8.69,1154482.185927787,27,3,3,3,2,-4.5,-8.28,-1.27,0.1,0.27,0.03,-23.8125,-11.5625,-10.875,0.57464599609375,-0.4051513671875,0.63458251953125,-0.32086181640625,-28.6875,43.1875,16.0,-4.6,-8.55,-1.31,stop,5
8.7,1154482.206703218,27,3,3,3,2,-4.63,-8.43,-1.25,-0.04,0.13,0.08,-25.0625,-10.75,-12.0625,0.573974609375,-0.40740966796875,0.63433837890625,-0.3197021484375,-28.6875,43.1875,16.0,-4.58,-8.56,-1.34,stop,5
8.71,1154482.206703218,27,3,3,3,2,-4.75,-8.56,-1.3,-0.18,0.0,0.07,-26.125,-9.875,-12.9375,0.5732421875,-0.40966796875,0.63409423828125,-0.31854248046875,-28.375,41.6875,18.375,-4.56,-8.56,-1.37,stop,5
8.72,1154482.219569307,27,3,3,3,2,-4.94,-8.88,-1.55,-0.39,-0.3,-0.15,-26.6875,-10.8125,-13.3125,0.572509765625,-0.412109375,0.6337890625,-0.31732177734375,-28.375,41.6875,18.375,-4.55,-8.57,-1.4,stop,5
8.73,1154482.219569307,27,3,3,3,2,-4.94,-8.88,-1.55,-0.39,-0.3,-0.15,-26.6875,-10.8125,-13.3125,0.572509765625,-0.412109375,0.6337890625,-0.31732177734375,-28.375,41.6875,18.375,-4.55,-8.57,-1.4,stop,5
8.73,1154482.233554048,27,3,3,3,2,-5.06,-9.1,-1.66,-0.53,-0.52,-0.23,-26.1875,-13.25,-13.0,0.5718994140625,-0.41448974609375,0.6334228515625,-0.31610107421875,-28.375,41.6875,18.375,-4.53,-8.57,-1.43,stop,5
8.74,1154482.233554048,27,3,3,3,2,-5.2,-9.32,-1.77,-0.68,-0.74,-0.32,-25.0625,-15.3125,-12.8125,0.57147216796875,-0.4168701171875,0.63287353515625,-0.31475830078125,-28.375,41.6875,18.375,-4.51,-8.57,-1.45,stop,5
8.75,1154482.265692802,27,3,3,3,2,-5.42,-9.51,-1.91,-0.91,-0.92,-0.44,-23.0625,-17.3125,-12.4375,0.57122802734375,-0.419189453125,0.6322021484375,-0.3134765625,-28.375,41.6875,18.375,-4.5,-8.58,-1.47,stop,5
8.76,1154482.265692802,27,3,3,3,2,-5.83,-9.75,-2.05,-1.34,-1.16,-0.55,-20.8125,-19.875,-11.875,0.57122802734375,-0.42144775390625,0.63134765625,-0.31219482421875,-29.875,41.6875,19.875,-4.49,-8.58,-1.49,stop,5
8.77,1154482.279887748,27,3,3,3,2,-6.0,-9.71,-2.11,-1.52,-1.12,-0.61,-19.0625,-22.8125,-11.1875,0.57147216796875,-0.42364501953125,0.63031005859375,-0.3109130859375,-29.875,41.6875,19.875,-4.48,-8.59,-1.5,stop,5
8.78,1154482.279887748,27,3,3,3,2,-5.97,-9.34,-2.18,-1.5,-0.74,-0.66,-18.0,-25.5625,-10.9375,0.5718994140625,-0.42584228515625,0.62908935546875,-0.30950927734375,-29.875,41.6875,19.875,-4.47,-8.59,-1.51,stop,5
8.79,1154482.290831107,27,3,3,3,2,-5.83,-8.78,-2.14,-1.36,-0.18,-0.62,-19.625,-28.1875,-10.5625,0.57244873046875,-0.42816162109375,0.6278076171875,-0.30792236328125,-29.875,41.6875,19.875,-4.46,-8.59,-1.52,stop,5
8.8,1154482.290831107,27,3,3,3,2,-5.57,-7.98,-1.87,-1.12,0.61,-0.34,-22.5,-29.9375,-10.0,0.57293701171875,-0.4306640625,0.6265869140625,-0.3060302734375,-29.875,41.6875,19.875,-4.45,-8.6,-1.53,stop,5
8.81,1154482.323846529,27,3,3,3,2,-5.48,-7.69,-1.74,-1.03,0.9,-0.2,-24.0,-30.375,-9.1875,0.57342529296875,-0.43316650390625,0.62530517578125,-0.3040771484375,-28.75,40.6875,21.0625,-4.44,-8.6,-1.54,stop,5
8.82,1154482.323846529,27,3,3,3,2,-5.36,-7.54,-1.63,-0.91,1.05,-0.07,-24.125,-30.375,-7.9375,0.573974609375,-0.4356689453125,0.6241455078125,-0.302001953125,-28.75,40.6875,21.0625,-4.44,-8.6,-1.55,stop,5
8.83,1154482.334798718,27,3,3,3,2,-5.19,-7.45,-1.55,-0.74,1.14,0.01,-22.9375,-31.0,-6.6875,0.5745849609375,-0.43798828125,0.6229248046875,-0.29986572265625,-28.75,40.6875,21.0625,-4.44,-8.6,-1.56,stop,5
8.84,1154482.334798718,27,3,3,3,2,-4.96,-7.45,-1.54,-0.51,1.13,0.03,-20.1875,-31.4375,-4.8125,0.57537841796875,-0.4400634765625,0.6217041015625,-0.2978515625,-28.75,40.6875,21.0625,-4.44,-8.59,-1.57,stop,5
8.85,1154482.36534661,27,3,3,3,2,-4.89,-7.44,-1.55,-0.44,1.15,0.01,-16.875,-31.5625,-3.375,0.57635498046875,-0.44195556640625,0.62042236328125,-0.2958984375,-28.75,40.6875,21.0625,-4.44,-8.59,-1.57,stop,5
8.86,1154482.36534661,27,3,3,3,2,-4.84,-7.45,-1.58,-0.39,1.13,-0.01,-14.9375,-31.125,-2.0625,0.577392578125,-0.443603515625,0.61920166015625,-0.2939453125,-28.5,40.6875,24.875,-4.45,-8.59,-1.57,stop,5
8.87,1154482.375258923,27,3,3,3,2,-4.84,-7.47,-1.62,-0.37,1.11,-0.05,-14.625,-29.9375,-0.8125,0.57843017578125,-0.4451904296875,0.6180419921875,-0.29205322265625,-28.5,40.6875,24.875,-4.46,-8.59,-1.57,stop,5
8.88,1154482.375258923,27,3,3,3,2,-4.65,-7.39,-1.86,-0.19,1.19,-0.29,-15.8125,-26.6875,-0.5,0.5792236328125,-0.4466552734375,0.6170654296875,-0.2901611328125,-28.5,40.6875,24.875,-4.46,-8.58,-1.57,stop,5
8.89,1154482.396070325,27,3,3,3,2,-4.55,-7.3,-2.09,-0.08,1.28,-0.5,-16.9375,-22.0625,-1.25,0.5797119140625,-0.4481201171875,0.6163330078125,-0.2884521484375,-28.5,40.6875,24.875,-4.47,-8.58,-1.58,stop,5
8.9,1154482.396070325,27,3,3,3,2,-4.55,-7.22,-2.29,-0.07,1.35,-0.69,-17.75,-18.8125,-2.4375,0.5799560546875,-0.44964599609375,0.61572265625,-0.286865234375,-28.5,40.6875,24.875,-4.47,-8.57,-1.59,stop,5
8.91,1154482.41025518,27,3,3,3,1,-5.06,-7.56,-2.23,-0.59,1.01,-0.62,-17.8125,-16.25,-2.6875,0.580078125,-0.45111083984375,0.61529541015625,-0.285400390625,-28.5,40.25,26.875,-4.47,-8.57,-1.6,stop,5
8.92,1154482.41025518,27,3,3,3,1,-5.43,-7.78,-2.14,-0.95,0.78,-0.51,-17.375,-12.625,-2.0625,0.58001708984375,-0.452392578125,0.614990234375,-0.2840576171875,-28.5,40.25,26.875,-4.47,-8.57,-1.62,stop,5
8.93,1154482.442761283,27,3,3,3,1,-5.8,-7.93,-2.06,-1.33,0.63,-0.42,-17.125,-8.125,-1.0,0.57977294921875,-0.45355224609375,0.614990234375,-0.2828369140625,-28.5,40.25,26.875,-4.47,-8.56,-1.64,stop,5
8.94,1154482.442761283,27,3,3,3,1,-6.13,-8.07,-1.93,-1.65,0.48,-0.26,-17.4375,-4.0,-0.25,0.57928466796875,-0.45452880859375,0.61517333984375,-0.28173828125,-28.5,40.25,26.875,-4.47,-8.56,-1.66,stop,5
8.95,1154482.454876599,27,3,3,3,1,-6.53,-8.26,-1.93,-2.05,0.28,-0.23,-17.25,0.3125,0.25,0.57855224609375,-0.45538330078125,0.61566162109375,-0.28082275390625,-28.5,40.25,26.875,-4.47,-8.55,-1.69,stop,5
8.96,1154482.454876599,27,3,3,3,1,-6.44,-8.16,-1.72,-1.96,0.38,0.0,-17.25,4.5,0.4375,0.57763671875,-0.4561767578125,0.61627197265625,-0.28009033203125,-28.75,40.0,27.25,-4.47,-8.55,-1.72,stop,5
8.97,1154482.475819429,27,3,3,3,1,-6.33,-8.05,-1.55,-1.86,0.48,0.2,-21.5,8.0,0.875,0.57635498046875,-0.45697021484375,0.61724853515625,-0.2791748046875,-28.75,40.0,27.25,-4.47,-8.54,-1.76,stop,5
8.98,1154482.475819429,27,3,3,3,1,-6.03,-8.1,-1.78,-1.56,0.43,0.01,-18.125,11.375,1.625,0.5750732421875,-0.45751953125,0.61834716796875,-0.278564453125,-28.75,40.0,27.25,-4.47,-8.53,-1.79,stop,5
8.99,1154482.487835502,27,3,3,3,1,-6.03,-8.1,-1.78,-1.56,0.43,0.01,-18.125,11.375,1.625,0.5750732421875,-0.45751953125,0.61834716796875,-0.278564453125,-28.75,40.0,27.25,-4.47,-8.53,-1.79,stop,5
8.99,1154482.487835502,27,3,3,3,1,-5.34,-8.16,-1.89,-0.87,0.36,-0.06,-8.125,13.75,2.9375,0.57403564453125,-0.45745849609375,0.619384765625,-0.27850341796875,-28.75,40.0,27.25,-4.47,-8.53,-1.82,stop,5
9.0,1154482.500299451,27,3,3,3,1,-5.08,-8.14,-1.92,-0.6,0.38,-0.08,-2.4375,16.9375,3.75,0.5731201171875,-0.45697021484375,0.6204833984375,-0.27880859375,-28.75,40.0,27.25,-4.47,-8.52,-1.83,stop,5
9.01,1154482.500299451,27,3,3,3,1,-4.96,-8.12,-1.89,-0.48,0.4,-0.03,0.1875,21.0,4.125,0.57208251953125,-0.4561767578125,0.6217041015625,-0.2794189453125,-29.1875,39.25,29.1875,-4.47,-8.52,-1.85,stop,5
9.02,1154482.513975598,27,3,3,3,1,-4.97,-8.1,-1.73,-0.5,0.41,0.13,1.6875,22.4375,4.375,0.571044921875,-0.455322265625,0.6229248046875,-0.28021240234375,-29.1875,39.25,29.1875,-4.47,-8.52,-1.87,stop,5
9.03,1154482.513975598,27,3,3,3,1,-5.06,-8.23,-1.55,-0.58,0.28,0.32,3.1875,22.3125,4.0625,0.570068359375,-0.45440673828125,0.6241455078125,-0.28106689453125,-29.1875,39.25,29.1875,-4.47,-8.52,-1.88,stop,5
9.04,1154482.545451916,27,3,3,3,1,-5.06,-8.27,-1.77,-0.58,0.24,0.12,5.3125,20.75,3.5625,0.5692138671875,-0.45343017578125,0.62518310546875,-0.281982421875,-29.1875,39.25,29.1875,-4.47,-8.51,-1.89,stop,5
9.05,1154482.545451916,27,3,3,3,1,-5.02,-8.24,-1.96,-0.55,0.27,-0.07,7.875,18.25,3.375,0.568603515625,-0.452392578125,0.62603759765625,-0.28289794921875,-29.1875,39.25,29.1875,-4.47,-8.51,-1.89,stop,5
9.06,1154482.559172823,27,3,3,3,1,-5.03,-8.1,-2.09,-0.56,0.41,-0.2,10.4375,15.625,3.0625,0.5682373046875,-0.4512939453125,0.626708984375,-0.283935546875,-29.5,39.25,27.1875,-4.47,-8.52,-1.89,stop,5
9.07,1154482.559172823,27,3,3,3,1,-5.1,-8.02,-2.07,-0.63,0.49,-0.19,13.4375,14.0,3.3125,0.568115234375,-0.4500732421875,0.627197265625,-0.2850341796875,-29.5,39.25,27.1875,-4.47,-8.52,-1.88,stop,5
9.08,1154482.590109102,27,3,3,3,1,-5.19,-7.95,-2.08,-0.72,0.56,-0.21,16.5625,13.125,3.4375,0.568115234375,-0.44873046875,0.62762451171875,-0.28631591796875,-29.5,39.25,27.1875,-4.47,-8.52,-1.86,stop,5
9.09,1154482.590109102,27,3,3,3,1,-5.27,-7.85,-2.02,-0.8,0.67,-0.17,18.3125,13.0625,3.8125,0.5682373046875,-0.44732666015625,0.6279296875,-0.28759765625,-29.5,39.25,27.1875,-4.47,-8.52,-1.85,stop,5
9.1,1154482.609132336,27,3,3,3,1,-5.31,-7.65,-2.13,-0.83,0.87,-0.3,17.625,13.8125,3.9375,0.5682373046875,-0.44586181640625,0.62835693359375,-0.28887939453125,-29.5,39.25,27.1875,-4.47,-8.52,-1.83,stop,5
9.11,1154482.609132336,27,3,3,3,1,-5.27,-7.61,-2.17,-0.79,0.91,-0.34,15.875,15.0,4.0,0.56817626953125,-0.4444580078125,0.62890625,-0.29010009765625,-28.75,38.5625,27.5625,-4.47,-8.53,-1.82,stop,5
9.12,1154482.620387056,27,3,3,3,1,-5.25,-7.65,-2.19,-0.77,0.87,-0.37,13.625,15.5625,4.6875,0.56793212890625,-0.443115234375,0.6295166015625,-0.29119873046875,-28.75,38.5625,27.5625,-4.48,-8.53,-1.81,stop,5
9.13,1154482.620387056,27,3,3,3,1,-5.31,-7.74,-2.24,-0.82,0.78,-0.43,12.0625,15.375,5.5625,0.56768798828125,-0.44183349609375,0.63018798828125,-0.29217529296875,-28.75,38.5625,27.5625,-4.48,-8.53,-1.81,stop,5
9.14,1154482.650809338,27,3,3,3,1,-5.3,-7.91,-2.3,-0.8,0.6,-0.49,10.625,14.1875,6.625,0.5675048828125,-0.4405517578125,0.63092041015625,-0.29296875,-28.75,38.5625,27.5625,-4.49,-8.52,-1.8,stop,5
9.15,1154482.650809338,27,3,3,3,1,-5.26,-8.01,-2.31,-0.74,0.49,-0.49,9.9375,13.75,7.5625,0.56732177734375,-0.43878173828125,0.632568359375,-0.2923583984375,-28.75,38.5625,27.5625,-4.52,-8.5,-1.81,stop,5
9.16,1154482.665055473,27,3,3,3,1,-5.23,-8.05,-2.25,-0.7,0.45,-0.43,9.3125,14.3125,8.25,0.56707763671875,-0.4375,0.63336181640625,-0.29296875,-29.5,40.0625,25.5625,-4.53,-8.5,-1.81,stop,5
9.17,1154482.665055473,27,3,3,3,1,-5.22,-8.07,-2.2,-0.68,0.42,-0.39,8.0,15.75,9.0625,0.5667724609375,-0.4361572265625,0.63433837890625,-0.2935791015625,-29.5,40.0625,25.5625,-4.53,-8.5,-1.81,stop,5
9.18,1154482.678959037,27,3,3,3,1,-5.21,-8.0,-2.11,-0.66,0.49,-0.28,6.375,17.1875,9.5,0.5662841796875,-0.43487548828125,0.6353759765625,-0.2940673828125,-29.5,40.0625,25.5625,-4.54,-8.49,-1.82,stop,5
9.19,1154482.678959037,27,3,3,3,1,-5.21,-7.96,-2.11,-0.65,0.52,-0.29,5.5,18.5625,9.75,0.56573486328125,-0.43359375,0.63653564453125,-0.29461669921875,-29.5,40.0625,25.5625,-4.55,-8.48,-1.82,stop,5
9.2,1154482.71064019,27,3,3,3,1,-5.18,-7.94,-2.16,-0.59,0.52,-0.32,5.3125,19.0,9.6875,0.565185546875,-0.43182373046875,0.638427734375,-0.2940673828125,-29.5,40.0625,25.5625,-4.58,-8.46,-1.84,stop,5
9.21,1154482.71064019,27,3,3,3,1,-5.13,-7.92,-2.21,-0.52,0.52,-0.35,6.0,18.4375,9.9375,0.564697265625,-0.43011474609375,0.6402587890625,-0.293701171875,-28.75,40.0625,24.0625,-4.61,-8.45,-1.86,stop,5
9.22,1154482.72485186,27,3,3,3,1,-5.08,-7.95,-2.29,-0.44,0.48,-0.41,7.375,18.0,10.0,0.564208984375,-0.42840576171875,0.6419677734375,-0.29339599609375,-28.75,40.0625,24.0625,-4.63,-8.43,-1.87,stop,5
9.23,1154482.72485186,27,3,3,3,1,-5.08,-7.97,-2.23,-0.42,0.44,-0.35,8.6875,17.3125,9.8125,0.563720703125,-0.42669677734375,0.6435546875,-0.29327392578125,-28.75,40.0625,24.0625,-4.66,-8.41,-1.88,stop,5
9.24,1154482.740793144,27,3,3,3,1,-5.07,-8.01,-2.05,-0.39,0.39,-0.16,9.25,17.125,9.6875,0.5633544921875,-0.42498779296875,0.6448974609375,-0.2933349609375,-28.75,40.0625,24.0625,-4.68,-8.4,-1.89,stop,5
9.25,1154482.740793144,27,3,3,3,1,-5.13,-8.11,-1.95,-0.43,0.28,-0.05,7.9375,17.0625,9.25,0.56298828125,-0.4234619140625,0.64617919921875,-0.29351806640625,-28.75,40.0625,24.0625,-4.69,-8.39,-1.89,stop,5
9.26,1154482.755963473,27,3,3,3,1,-5.1,-8.21,-2.07,-0.39,0.17,-0.16,7.25,16.75,8.5625,0.56256103515625,-0.4219970703125,0.64739990234375,-0.29376220703125,-28.0625,40.875,23.25,-4.71,-8.38,-1.9,stop,5
9.27,1154482.755963473,27,3,3,3,1,-5.06,-8.25,-2.01,-0.33,0.12,-0.1,7.8125,16.375,7.8125,0.56219482421875,-0.42059326171875,0.6484375,-0.294189453125,-28.0625,40.875,23.25,-4.72,-8.37,-1.91,stop,5
9.28,1154482.785645642,27,3,3,3,1,-5.02,-8.25,-1.93,-0.29,0.11,-0.02,7.1875,16.75,7.0625,0.56170654296875,-0.4193115234375,0.64947509765625,-0.294677734375,-28.0625,40.875,23.25,-4.73,-8.37,-1.91,stop,5
9.29,1154482.785645642,27,3,3,3,1,-4.93,-8.32,-2.11,-0.19,0.04,-0.2,8.375,16.875,6.6875,0.561279296875,-0.41802978515625,0.65045166015625,-0.2952880859375,-28.0625,40.875,23.25,-4.73,-8.36,-1.91,stop,5
9.3,1154482.800187553,27,3,3,3,1,-4.91,-8.3,-2.11,-0.17,0.06,-0.19,11.3125,15.3125,6.9375,0.56097412109375,-0.4166259765625,0.6512451171875,-0.2960205078125,-28.0625,40.875,23.25,-4.74,-8.36,-1.91,stop,5
9.31,1154482.800187553,27,3,3,3,1,-4.9,-8.23,-2.08,-0.15,0.12,-0.17,12.75,13.75,6.875,0.560791015625,-0.41522216796875,0.65191650390625,-0.29681396484375,-29.1875,40.875,22.5,-4.75,-8.36,-1.91,stop,5
9.32,1154482.831051078,27,3,3,3,1,-4.92,-8.17,-2.07,-0.16,0.18,-0.17,12.375,13.625,6.625,0.56060791015625,-0.413818359375,0.652587890625,-0.29754638671875,-29.1875,40.875,22.5,-4.76,-8.35,-1.9,stop,5
9.33,1154482.831051078,27,3,3,3,1,-5.03,-8.17,-2.04,-0.26,0.18,-0.14,11.75,14.3125,6.125,0.5604248046875,-0.4124755859375,0.6533203125,-0.29827880859375,-29.1875,40.875,22.5,-4.76,-8.35,-1.9,stop,5
9.34,1154482.845213351,27,3,3,3,1,-5.07,-8.17,-2.01,-0.29,0.17,-0.11,10.9375,15.1875,5.75,0.56005859375,-0.4111328125,0.65411376953125,-0.29901123046875,-29.1875,40.875,22.5,-4.77,-8.35,-1.9,stop,5
9.35,1154482.845213351,27,3,3,3,1,-5.07,-8.17,-2.05,-0.29,0.17,-0.15,10.3125,16.0625,5.375,0.5596923828125,-0.40985107421875,0.65496826171875,-0.29974365234375,-29.1875,40.875,22.5,-4.78,-8.34,-1.9,stop,5
9.36,1154482.859319226,27,3,3,3,1,-5.09,-8.14,-2.08,-0.31,0.19,-0.17,9.6875,16.625,5.0,0.5592041015625,-0.4085693359375,0.65582275390625,-0.3004150390625,-28.5,41.875,21.0,-4.78,-8.34,-1.9,stop,5
9.37,1154482.859319226,27,3,3,3,1,-5.1,-8.08,-2.11,-0.31,0.25,-0.21,9.5,17.0,5.0,0.5587158203125,-0.4072265625,0.65673828125,-0.30108642578125,-28.5,41.875,21.0,-4.79,-8.34,-1.9,stop,5
9.38,1154482.874764946,27,3,3,3,1,-5.11,-8.05,-2.1,-0.31,0.27,-0.19,9.5,16.5,5.0,0.5582275390625,-0.40594482421875,0.65771484375,-0.30169677734375,-28.5,41.875,21.0,-4.79,-8.33,-1.9,stop,5
9.39,1154482.874764946,27,3,3,3,1,-5.08,-8.06,-2.05,-0.28,0.26,-0.14,10.1875,16.125,4.6875,0.55780029296875,-0.4046630859375,0.6585693359375,-0.3023681640625,-28.5,41.875,21.0,-4.8,-8.33,-1.91,stop,5
9.4,1154482.910045545,27,3,3,3,1,-5.11,-8.08,-1.94,-0.3,0.24,-0.03,10.6875,16.0,4.375,0.55743408203125,-0.4033203125,0.65936279296875,-0.30316162109375,-28.5,41.875,21.0,-4.81,-8.32,-1.91,stop,5
9.41,1154482.910045545,27,3,3,3,1,-5.16,-8.12,-1.94,-0.34,0.2,-0.03,10.6875,15.5625,4.1875,0.55706787109375,-0.40203857421875,0.66009521484375,-0.30389404296875,-28.75,41.5625,20.1875,-4.81,-8.32,-1.9,stop,5
9.42,1154482.925928357,27,3,3,3,1,-5.16,-8.12,-1.88,-0.34,0.19,0.02,9.875,14.75,3.875,0.55670166015625,-0.40081787109375,0.6607666015625,-0.30462646484375,-28.75,41.5625,20.1875,-4.82,-8.32,-1.9,stop,5
9.43,1154482.925928357,27,3,3,3,1,-5.12,-8.12,-1.89,-0.3,0.2,0.0,9.25,14.0,3.625,0.556396484375,-0.399658203125,0.66143798828125,-0.3052978515625,-28.75,41.5625,20.1875,-4.82,-8.32,-1.9,stop,5
9.44,1154482.955838798,27,3,3,3,1,-5.08,-8.19,-1.93,-0.25,0.12,-0.02,9.375,13.625,3.75,0.55609130859375,-0.3985595703125,0.66204833984375,-0.3060302734375,-28.75,41.5625,20.1875,-4.82,-8.32,-1.9,stop,5
9.45,1154482.955838798,27,3,3,3,1,-5.01,-8.17,-1.98,-0.18,0.14,-0.07,9.8125,13.8125,3.875,0.5557861328125,-0.39739990234375,0.66265869140625,-0.3067626953125,-28.75,41.5625,20.1875,-4.83,-8.31,-1.9,stop,5
9.46,1154482.96555649,27,3,3,3,1,-4.97,-8.15,-1.98,-0.14,0.16,-0.08,9.6875,14.1875,3.75,0.555419921875,-0.396240234375,0.66326904296875,-0.30755615234375,-28.75,41.5625,19.0625,-4.83,-8.31,-1.9,stop,5
9.47,1154482.96555649,27,3,3,3,1,-4.96,-8.16,-1.98,-0.12,0.15,-0.08,8.6875,14.3125,3.5625,0.55499267578125,-0.39520263671875,0.66387939453125,-0.30828857421875,-28.75,41.5625,19.0625,-4.83,-8.31,-1.9,stop,5
9.48,1154482.979851331,27,3,3,3,1,-4.98,-8.18,-1.99,-0.14,0.12,-0.08,7.6875,13.9375,3.1875,0.5545654296875,-0.39422607421875,0.66455078125,-0.3089599609375,-28.75,41.5625,19.0625,-4.83,-8.31,-1.9,stop,5
9.49,1154482.979851331,27,3,3,3,1,-5.0,-8.22,-1.99,-0.16,0.09,-0.08,7.0,13.0625,3.0625,0.55413818359375,-0.393310546875,0.6651611328125,-0.3095703125,-28.75,41.5625,19.0625,-4.84,-8.31,-1.9,stop,5
9.5,1154483.011675712,27,3,3,3,1,-5.05,-8.28,-2.01,-0.21,0.02,-0.1,6.625,12.25,2.625,0.5537109375,-0.3924560546875,0.66571044921875,-0.3101806640625,-28.75,41.5625,19.0625,-4.84,-8.31,-1.9,stop,5
9.51,1154483.011675712,27,3,3,3,1,-5.1,-8.32,-2.03,-0.26,-0.01,-0.13,6.8125,12.0,2.125,0.55328369140625,-0.39166259765625,0.666259765625,-0.310791015625,-28.5,41.5625,17.0625,-4.84,-8.31,-1.9,stop,5
9.52,1154483.03242677,27,3,3,3,1,-5.08,-8.35,-2.12,-0.24,-0.04,-0.22,6.6875,11.8125,1.75,0.5528564453125,-0.390869140625,0.666748046875,-0.3114013671875,-28.5,41.5625,17.0625,-4.84,-8.31,-1.9,stop,5
9.53,1154483.03242677,27,3,3,3,1,-5.09,-8.37,-2.11,-0.25,-0.06,-0.19,6.1875,11.5625,1.4375,0.55242919921875,-0.39013671875,0.667236328125,-0.31201171875,-28.5,41.5625,17.0625,-4.84,-8.31,-1.91,stop,5
9.54,1154483.039591524,27,3,3,3,1,-5.08,-8.29,-2.05,-0.24,0.01,-0.14,5.25,11.8125,1.0625,0.55194091796875,-0.38946533203125,0.66778564453125,-0.31256103515625,-28.5,41.5625,17.0625,-4.84,-8.31,-1.91,stop,5
9.55,1154483.039591524,27,3,3,3,1,-5.05,-8.22,-2.03,-0.21,0.08,-0.11,4.0,12.0,1.0,0.55145263671875,-0.38885498046875,0.66839599609375,-0.31304931640625,-28.5,41.5625,17.0625,-4.84,-8.3,-1.92,stop,5
9.56,1154483.069996147,27,3,3,3,1,-5.02,-8.18,-2.05,-0.18,0.12,-0.13,3.625,11.75,0.625,0.5509033203125,-0.38824462890625,0.6689453125,-0.31353759765625,-29.5,41.5625,17.0625,-4.84,-8.3,-1.92,stop,5
9.57,1154483.069996147,27,3,3,3,1,-5.0,-8.18,-2.09,-0.16,0.12,-0.16,3.8125,10.0625,1.0,0.55047607421875,-0.3876953125,0.66943359375,-0.31396484375,-29.5,41.5625,17.0625,-4.84,-8.3,-1.93,stop,5
9.58,1154483.090844291,27,3,3,3,1,-4.97,-8.22,-2.13,-0.13,0.08,-0.2,4.1875,8.5625,0.875,0.55010986328125,-0.38714599609375,0.66986083984375,-0.3143310546875,-29.5,41.5625,17.0625,-4.84,-8.3,-1.93,stop,5
9.59,1154483.090844291,27,3,3,3,1,-4.97,-8.16,-2.12,-0.13,0.14,-0.19,4.625,7.6875,1.0625,0.5498046875,-0.38665771484375,0.67022705078125,-0.314697265625,-29.5,41.5625,17.0625,-4.84,-8.3,-1.93,stop,5
9.6,1154483.100603609,27,3,3,3,1,-4.97,-8.15,-2.18,-0.13,0.14,-0.24,4.25,7.125,1.0625,0.549560546875,-0.38616943359375,0.67059326171875,-0.31500244140625,-29.5,41.5625,17.0625,-4.84,-8.3,-1.93,stop,5
9.61,1154483.100603609,27,3,3,3,1,-5.0,-8.22,-2.23,-0.16,0.07,-0.28,3.9375,6.9375,1.0,0.54925537109375,-0.38568115234375,0.67095947265625,-0.3153076171875,-29.1875,42.25,15.875,-4.84,-8.3,-1.94,stop,5
9.62,1154483.136249321,27,3,3,3,1,-5.02,-8.18,-2.21,-0.17,0.11,-0.26,3.5,6.75,1.0,0.5489501953125,-0.38525390625,0.67132568359375,-0.3155517578125,-29.1875,42.25,15.875,-4.84,-8.3,-1.94,stop,5
9.63,1154483.136249321,27,3,3,3,1,-5.1,-8.08,-2.06,-0.25,0.21,-0.11,-0.625,5.5625,0.75,0.548583984375,-0.385009765625,0.6717529296875,-0.31549072265625,-29.1875,42.25,15.875,-4.84,-8.29,-1.95,stop,5
9.64,1154483.146031873,27,3,3,3,1,-5.07,-8.16,-2.26,-0.22,0.12,-0.3,-3.0,4.9375,0.875,0.5482177734375,-0.38494873046875,0.6722412109375,-0.31524658203125,-29.1875,42.25,15.875,-4.84,-8.29,-1.96,stop,5
9.65,1154483.146031873,27,3,3,3,1,-4.95,-8.2,-2.23,-0.1,0.09,-0.27,1.1875,4.3125,1.4375,0.5479736328125,-0.3846435546875,0.672607421875,-0.31524658203125,-29.1875,42.25,15.875,-4.85,-8.29,-1.96,stop,5
9.66,1154483.160222018,27,3,3,3,1,-4.88,-8.28,-2.32,-0.03,0.0,-0.35,4.0625,5.4375,1.5,0.5477294921875,-0.38421630859375,0.67291259765625,-0.31549072265625,-28.75,41.5625,16.25,-4.85,-8.29,-1.97,stop,5
9.67,1154483.160222018,27,3,3,3,1,-4.88,-8.28,-2.32,-0.03,0.0,-0.35,4.0625,5.4375,1.5,0.5477294921875,-0.38421630859375,0.67291259765625,-0.31549072265625,-28.75,41.5625,16.25,-4.85,-8.29,-1.97,stop,5
9.68,1154483.174771253,27,3,3,3,1,-4.88,-8.2,-2.36,-0.03,0.08,-0.39,5.0625,7.75,0.9375,0.54736328125,-0.38372802734375,0.67333984375,-0.31585693359375,-28.75,41.5625,16.25,-4.85,-8.29,-1.97,stop,5
9.68,1154483.174771253,27,3,3,3,1,-4.98,-8.18,-2.08,-0.13,0.1,-0.1,3.625,8.4375,0.4375,0.54693603515625,-0.38330078125,0.6737060546875,-0.31622314453125,-28.75,41.5625,16.25,-4.84,-8.29,-1.97,stop,5
9.69,1154483.189092013,27,3,3,3,1,-5.01,-8.15,-1.96,-0.16,0.13,0.02,1.25,8.3125,0.0,0.5465087890625,-0.38299560546875,0.67413330078125,-0.3165283203125,-28.75,41.5625,16.25,-4.84,-8.29,-1.98,stop,5
9.7,1154483.189092013,27,3,3,3,1,-4.99,-8.14,-1.98,-0.15,0.14,0.0,0.6875,6.25,0.0,0.546142578125,-0.38275146484375,0.67449951171875,-0.31671142578125,-28.75,41.5625,16.25,-4.84,-8.28,-1.98,stop,5
9.71,1154483.220816012,27,3,3,3,1,-4.97,-8.13,-2.24,-0.12,0.14,-0.25,0.875,3.625,0.1875,0.54595947265625,-0.382568359375,0.6746826171875,-0.3167724609375,-29.5,42.6875,14.75,-4.84,-8.28,-1.99,stop,5
9.72,1154483.220816012,27,3,3,3,1,-4.89,-8.14,-2.34,-0.05,0.14,-0.34,0.75,2.25,0.3125,0.5457763671875,-0.3824462890625,0.67486572265625,-0.3167724609375,-29.5,42.6875,14.75,-4.84,-8.28,-1.99,stop,5
9.73,1154483.236176445,27,3,3,3,1,-4.87,-8.2,-2.34,-0.02,0.07,-0.34,1.25,2.0,0.5625,0.545654296875,-0.38232421875,0.67510986328125,-0.3167724609375,-29.5,42.6875,14.75,-4.84,-8.28,-1.99,stop,5
9.74,1154483.236176445,27,3,3,3,1,-5.04,-8.21,-2.19,-0.19,0.07,-0.19,2.0,2.375,0.75,0.5455322265625,-0.382080078125,0.67529296875,-0.31683349609375,-29.5,42.6875,14.75,-4.85,-8.28,-2.0,stop,5
9.75,1154483.250450004,27,3,3,3,1,-5.03,-8.2,-2.18,-0.17,0.08,-0.17,1.4375,3.0,0.875,0.54541015625,-0.38189697265625,0.67547607421875,-0.31689453125,-29.5,42.6875,14.75,-4.85,-8.28,-2.0,stop,5
9.76,1154483.250450004,27,3,3,3,1,-5.0,-8.18,-2.2,-0.14,0.09,-0.19,0.5625,3.5625,0.6875,0.545166015625,-0.38165283203125,0.67578125,-0.31689453125,-28.75,42.25,15.0625,-4.85,-8.28,-2.0,stop,5
9.77,1154483.280007296,27,3,3,3,1,-4.99,-8.16,-2.23,-0.14,0.11,-0.22,-0.375,4.0625,0.625,0.544921875,-0.38153076171875,0.67608642578125,-0.31689453125,-28.75,42.25,15.0625,-4.85,-8.27,-2.01,stop,5
9.78,1154483.280007296,27,3,3,3,1,-4.93,-8.16,-2.21,-0.07,0.11,-0.19,-1.4375,4.5625,0.375,0.5445556640625,-0.38140869140625,0.67645263671875,-0.31683349609375,-28.75,42.25,15.0625,-4.85,-8.27,-2.02,stop,5
9.79,1154483.294317924,27,3,3,3,1,-4.94,-8.19,-2.19,-0.09,0.08,-0.16,-1.8125,3.875,0.5625,0.54425048828125,-0.38134765625,0.6767578125,-0.3167724609375,-28.75,42.25,15.0625,-4.85,-8.27,-2.02,stop,5
9.8,1154483.294317924,27,3,3,3,1,-4.96,-8.2,-2.19,-0.1,0.06,-0.15,-1.875,2.375,0.5,0.5440673828125,-0.38134765625,0.677001953125,-0.316650390625,-28.75,42.25,15.0625,-4.85,-8.27,-2.03,stop,5
9.81,1154483.309436373,27,3,3,3,1,-4.96,-8.23,-2.16,-0.1,0.04,-0.12,-2.375,0.9375,0.6875,0.54388427734375,-0.38140869140625,0.67718505859375,-0.31646728515625,-28.75,42.25,14.375,-4.85,-8.27,-2.04,stop,5
9.82,1154483.309436373,27,3,3,3,1,-4.94,-8.2,-2.24,-0.08,0.06,-0.19,-3.0,0.0,0.875,0.5438232421875,-0.3814697265625,0.67730712890625,-0.316162109375,-28.75,42.25,14.375,-4.85,-8.26,-2.04,stop,5
9.83,1154483.341922294,27,3,3,3,1,-4.93,-8.2,-2.32,-0.07,0.05,-0.26,-3.9375,-0.1875,1.125,0.543701171875,-0.381591796875,0.67755126953125,-0.3157958984375,-28.75,42.25,14.375,-4.86,-8.26,-2.05,stop,5
9.84,1154483.341922294,27,3,3,3,1,-4.94,-8.22,-2.34,-0.08,0.04,-0.28,-4.8125,0.125,1.125,0.54351806640625,-0.38177490234375,0.67779541015625,-0.31536865234375,-28.75,42.25,14.375,-4.86,-8.26,-2.06,stop,5
9.85,1154483.359349947,27,3,3,3,1,-4.91,-8.23,-2.39,-0.05,0.01,-0.31,-5.5,0.25,1.25,0.54327392578125,-0.3819580078125,0.6781005859375,-0.31488037109375,-28.75,42.25,14.375,-4.86,-8.25,-2.07,stop,5
9.86,1154483.359349947,27,3,3,3,1,-4.88,-8.3,-2.37,-0.01,-0.04,-0.28,-6.125,0.125,1.6875,0.54302978515625,-0.3822021484375,0.67840576171875,-0.31439208984375,-28.75,41.875,14.75,-4.86,-8.25,-2.08,stop,5
9.87,1154483.369679049,27,3,3,3,1,-4.85,-8.29,-2.34,0.02,-0.04,-0.24,-6.6875,0.375,1.625,0.5428466796875,-0.3824462890625,0.67864990234375,-0.3138427734375,-28.75,41.875,14.75,-4.87,-8.24,-2.09,stop,5
9.88,1154483.369679049,27,3,3,3,1,-4.84,-8.28,-2.26,0.03,-0.03,-0.15,-7.3125,0.0,1.5625,0.5426025390625,-0.3826904296875,0.678955078125,-0.3133544921875,-28.75,41.875,14.75,-4.87,-8.24,-2.1,stop,5
9.89,1154483.400685437,27,3,3,3,1,-4.83,-8.24,-2.16,0.04,0.0,-0.05,-7.0625,-1.0625,1.6875,0.54241943359375,-0.3829345703125,0.67919921875,-0.31280517578125,-28.75,41.875,14.75,-4.87,-8.24,-2.11,stop,5
9.9,1154483.400685437,27,3,3,3,1,-4.85,-8.16,-2.1,0.02,0.06,0.02,-6.3125,-2.6875,1.4375,0.54241943359375,-0.38323974609375,0.67926025390625,-0.31219482421875,-28.75,41.875,14.75,-4.87,-8.23,-2.12,stop,5
9.91,1154483.415025078,27,3,3,3,1,-4.86,-8.15,-2.15,0.01,0.07,-0.02,-6.6875,-4.6875,0.9375,0.54248046875,-0.38360595703125,0.67926025390625,-0.31158447265625,-29.1875,42.25,15.5625,-4.88,-8.23,-2.13,stop,5
9.92,1154483.415025078,27,3,3,3,1,-4.84,-8.15,-2.23,0.04,0.07,-0.1,-5.625,-6.3125,1.0625,0.54266357421875,-0.384033203125,0.67919921875,-0.31097412109375,-29.1875,42.25,15.5625,-4.88,-8.23,-2.13,stop,5
9.93,1154483.42896917,27,3,3,3,1,-4.84,-8.1,-2.14,0.04,0.12,-0.01,-4.375,-7.3125,0.6875,0.54296875,-0.3843994140625,0.67901611328125,-0.3104248046875,-29.1875,42.25,15.5625,-4.89,-8.22,-2.13,stop,5
9.94,1154483.42896917,27,3,3,3,1,-4.88,-8.11,-2.17,0.0,0.11,-0.03,-4.9375,-6.625,0.3125,0.543212890625,-0.384765625,0.6788330078125,-0.30987548828125,-29.1875,42.25,15.5625,-4.89,-8.22,-2.13,stop,5
9.95,1154483.460942802,27,3,3,3,1,-4.92,-8.09,-2.16,-0.03,0.13,-0.02,-5.3125,-6.4375,-0.0625,0.54339599609375,-0.38519287109375,0.6787109375,-0.309326171875,-29.1875,42.25,15.5625,-4.89,-8.22,-2.13,stop,5
9.96,1154483.460942802,27,3,3,3,1,-4.92,-8.07,-2.12,-0.02,0.14,0.01,-5.75,-7.0625,-0.375,0.54364013671875,-0.38568115234375,0.67852783203125,-0.3087158203125,-28.75,42.25,15.0625,-4.89,-8.22,-2.14,stop,5
9.97,1154483.474581108,27,3,3,3,1,-4.96,-8.03,-2.22,-0.05,0.18,-0.07,-6.4375,-7.4375,-0.375,0.54388427734375,-0.38616943359375,0.6783447265625,-0.30810546875,-28.75,42.25,15.0625,-4.9,-8.21,-2.14,stop,5
9.98,1154483.474581108,27,3,3,3,1,-5.03,-8.04,-2.25,-0.13,0.16,-0.1,-6.5,-7.5625,-0.1875,0.5440673828125,-0.38665771484375,0.67822265625,-0.307373046875,-28.75,42.25,15.0625,-4.9,-8.21,-2.14,stop,5
9.99,1154483.490038058,27,3,3,3,1,-5.04,-8.11,-2.29,-0.13,0.09,-0.14,-6.125,-7.875,-0.4375,0.5443115234375,-0.38714599609375,0.67803955078125,-0.30670166015625,-28.75,42.25,15.0625,-4.91,-8.21,-2.15,stop,5
10.0,1154483.490038058,27,3,3,3,1,-5.05,-8.17,-2.33,-0.14,0.03,-0.18,-5.6875,-8.0625,-0.1875,0.54461669921875,-0.38763427734375,0.6778564453125,-0.3060302734375,-28.75,42.25,15.0625,-4.91,-8.2,-2.15,stop,5
10.01,1154483.520579725,27,3,3,3,1,-5.03,-8.12,-2.25,-0.11,0.08,-0.09,-5.625,-8.0,-0.125,0.54486083984375,-0.3880615234375,0.67767333984375,-0.30535888671875,-29.1875,41.5625,15.875,-4.91,-8.2,-2.15,stop,5
10.02,1154483.520579725,27,3,3,3,1,-5.05,-8.12,-2.23,-0.12,0.08,-0.07,-6.125,-7.3125,-0.375,0.54510498046875,-0.3885498046875,0.67755126953125,-0.3046875,-29.1875,41.5625,15.875,-4.92,-8.2,-2.15,stop,5
10.03,1154483.53497507,27,3,3,3,1,-5.03,-8.13,-2.27,-0.11,0.06,-0.11,-6.5,-6.5625,-0.8125,0.54522705078125,-0.38909912109375,0.67742919921875,-0.3040771484375,-29.1875,41.5625,15.875,-4.92,-8.2,-2.16,stop,5
10.04,1154483.53497507,27,3,3,3,1,-5.01,-8.13,-2.26,-0.09,0.05,-0.09,-6.75,-6.1875,-1.0625,0.54534912109375,-0.38958740234375,0.67730712890625,-0.303466796875,-29.1875,41.5625,15.875,-4.92,-8.19,-2.16,stop,5
10.05,1154483.557452039,27,3,3,3,1,-4.95,-8.21,-2.34,-0.02,-0.01,-0.17,-6.375,-6.4375,-1.4375,0.54547119140625,-0.39019775390625,0.6771240234375,-0.30291748046875,-29.1875,41.5625,15.875,-4.92,-8.19,-2.17,stop,5
10.06,1154483.557452039,27,3,3,3,1,-4.9,-8.26,-2.35,0.02,-0.06,-0.18,-5.875,-6.6875,-1.5,0.54559326171875,-0.3907470703125,0.67694091796875,-0.3023681640625,-28.75,42.6875,17.0625,-4.92,-8.19,-2.17,stop,5
10.07,1154483.586419772,27,3,3,3,1,-4.82,-8.27,-2.34,0.1,-0.07,-0.16,-5.5625,-6.625,-1.75,0.54571533203125,-0.39129638671875,0.6767578125,-0.3018798828125,-28.75,42.6875,17.0625,-4.92,-8.19,-2.17,stop,5
10.08,1154483.586419772,27,3,3,3,1,-4.74,-8.27,-2.23,0.18,-0.07,-0.05,-5.625,-6.8125,-1.4375,0.54583740234375,-0.391845703125,0.676513671875,-0.3013916015625,-28.75,42.6875,17.0625,-4.92,-8.19,-2.18,stop,5
10.09,1154483.594837049,27,3,3,3,1,-4.69,-8.25,-2.21,0.23,-0.06,-0.03,-5.9375,-7.25,-1.4375,0.54595947265625,-0.3924560546875,0.67626953125,-0.30084228515625,-28.75,42.6875,17.0625,-4.92,-8.19,-2.18,stop,5
10.1,1154483.594837049,27,3,3,3,1,-4.67,-8.31,-2.23,0.25,-0.11,-0.05,-5.9375,-7.9375,-1.0625,0.546142578125,-0.39306640625,0.676025390625,-0.30035400390625,-28.75,42.6875,17.0625,-4.92,-8.19,-2.18,stop,5
10.11,1154483.610386894,27,3,3,3,1,-4.63,-8.35,-2.24,0.28,-0.16,-0.06,-5.125,-8.5625,-0.9375,0.54638671875,-0.3936767578125,0.67572021484375,-0.2998046875,-29.5,40.875,17.5,-4.92,-8.19,-2.18,stop,5
10.12,1154483.610386894,27,3,3,3,1,-4.51,-8.41,-2.36,0.41,-0.22,-0.18,-3.375,-8.6875,-0.8125,0.546630859375,-0.39422607421875,0.67535400390625,-0.29949951171875,-29.5,40.875,17.5,-4.92,-8.19,-2.18,stop,5
10.13,1154483.644307589,27,3,3,3,1,-4.44,-8.46,-2.37,0.47,-0.26,-0.19,-1.0,-8.8125,-0.4375,0.54693603515625,-0.39471435546875,0.67486572265625,-0.29931640625,-29.5,40.875,17.5,-4.92,-8.19,-2.18,stop,5
10.14,1154483.644307589,27,3,3,3,1,-4.35,-8.49,-2.29,0.57,-0.3,-0.12,1.5,-8.0625,0.25,0.54742431640625,-0.3948974609375,0.67449951171875,-0.29913330078125,-29.5,40.875,17.5,-4.92,-8.19,-2.17,stop,5
10.15,1154483.655299614,27,3,3,3,1,-4.26,-8.5,-2.22,0.66,-0.31,-0.06,4.4375,-6.875,1.0,0.54803466796875,-0.394775390625,0.674072265625,-0.299072265625,-29.5,40.875,17.5,-4.92,-8.19,-2.16,stop,5
10.16,1154483.655299614,27,3,3,3,1,-4.06,-8.42,-2.11,0.86,-0.22,0.02,8.125,-5.3125,2.125,0.54864501953125,-0.3944091796875,0.6737060546875,-0.29925537109375,-29.5,41.875,17.0625,-4.93,-8.19,-2.14,stop,5
10.17,1154483.669841118,27,3,3,3,1,-4.05,-8.37,-2.08,0.88,-0.17,0.04,11.25,-4.0625,3.5,0.54937744140625,-0.39373779296875,0.67333984375,-0.29962158203125,-29.5,41.875,17.0625,-4.94,-8.19,-2.12,stop,5
10.18,1154483.669841118,27,3,3,3,1,-4.04,-8.25,-2.05,0.9,-0.05,0.04,13.25,-3.1875,4.625,0.5501708984375,-0.3929443359375,0.6729736328125,-0.300048828125,-29.5,41.875,17.0625,-4.94,-8.2,-2.1,stop,5
10.19,1154483.685289848,27,3,3,3,1,-4.04,-8.25,-2.05,0.9,-0.05,0.04,13.25,-3.1875,4.625,0.5501708984375,-0.3929443359375,0.6729736328125,-0.300048828125,-29.5,41.875,17.0625,-4.94,-8.2,-2.1,stop,5
10.2,1154483.685289848,27,3,3,3,1,-4.06,-8.1,-2.0,0.88,0.09,0.08,14.5,-3.0,5.5625,0.55096435546875,-0.3919677734375,0.67266845703125,-0.300537109375,-29.5,41.875,17.0625,-4.95,-8.2,-2.08,stop,5
10.2,1154483.700159396,27,3,3,3,1,-4.19,-7.77,-1.91,0.77,0.42,0.14,16.0,-3.0,6.9375,0.5518798828125,-0.390869140625,0.67230224609375,-0.301025390625,-29.5,41.875,17.0625,-4.96,-8.2,-2.05,stop,5
10.21,1154483.700159396,27,3,3,3,1,-4.27,-7.65,-1.94,0.7,0.54,0.08,18.0625,-3.0625,8.6875,0.55291748046875,-0.38958740234375,0.6719970703125,-0.30157470703125,-28.5,41.875,18.6875,-4.98,-8.19,-2.02,stop,5
10.22,1154483.729804497,27,3,3,3,1,-4.32,-7.56,-1.96,0.67,0.62,0.02,20.625,-3.125,10.875,0.5540771484375,-0.3880615234375,0.67169189453125,-0.3021240234375,-28.5,41.875,18.6875,-4.99,-8.19,-1.99,stop,5
10.23,1154483.729804497,27,3,3,3,1,-4.34,-7.28,-1.93,0.67,0.91,0.02,23.6875,-3.0,13.5,0.555419921875,-0.38616943359375,0.67138671875,-0.302734375,-28.5,41.875,18.6875,-5.02,-8.19,-1.95,stop,5
10.24,1154483.746098646,27,3,3,3,1,-4.35,-7.12,-1.91,0.68,1.06,0.0,27.4375,-2.6875,16.25,0.556884765625,-0.38397216796875,0.67108154296875,-0.303466796875,-28.5,41.875,18.6875,-5.04,-8.18,-1.91,stop,5
10.26,1154483.746098646,27,3,3,3,1,-4.32,-7.02,-1.84,0.74,1.15,0.02,32.125,-2.6875,19.0625,0.55865478515625,-0.38134765625,0.67071533203125,-0.3043212890625,-28.5,41.875,18.6875,-5.07,-8.18,-1.86,stop,5
10.26,1154483.759872083,27,3,3,3,1,-4.31,-6.89,-1.74,0.78,1.27,0.06,36.8125,-2.9375,21.5625,0.56060791015625,-0.37835693359375,0.6702880859375,-0.3052978515625,-28.0625,42.6875,17.5,-5.1,-8.17,-1.81,stop,5
10.27,1154483.759872083,27,3,3,3,1,-4.24,-6.67,-1.56,0.89,1.48,0.18,40.5,-3.0,23.875,0.562744140625,-0.37506103515625,0.66986083984375,-0.306396484375,-28.0625,42.6875,17.5,-5.13,-8.16,-1.75,stop,5
10.28,1154483.79360479,27,3,3,3,1,-4.14,-6.5,-1.53,1.03,1.64,0.15,43.75,-3.4375,25.5,0.5650634765625,-0.37152099609375,0.66937255859375,-0.3076171875,-28.0625,42.6875,17.5,-5.17,-8.15,-1.68,stop,5
10.29,1154483.79360479,27,3,3,3,1,-4.0,-6.32,-1.48,1.21,1.82,0.13,47.375,-3.8125,27.25,0.56756591796875,-0.36767578125,0.66876220703125,-0.30889892578125,-28.0625,42.6875,17.5,-5.21,-8.14,-1.61,stop,5
10.3,1154483.805116997,27,3,3,3,1,-3.74,-6.08,-1.36,1.51,2.05,0.17,50.75,-4.5625,28.6875,0.5701904296875,-0.3636474609375,0.6680908203125,-0.310302734375,-28.0625,42.6875,17.5,-5.25,-8.13,-1.54,stop,5
10.31,1154483.805116997,27,3,3,3,1,-3.44,-5.5,-1.27,1.85,2.61,0.18,51.375,-5.3125,29.75,0.57293701171875,-0.3594970703125,0.66741943359375,-0.3116455078125,-27.6875,43.0625,15.5625,-5.3,-8.11,-1.46,stop,5
10.32,1154483.823318738,27,3,3,3,1,-3.36,-5.21,-1.32,1.98,2.88,0.05,55.8125,-4.75,30.75,0.5758056640625,-0.35504150390625,0.6666259765625,-0.31317138671875,-27.6875,43.0625,15.5625,-5.34,-8.1,-1.38,stop,5
10.34,1154483.823318738,27,3,3,3,1,-3.45,-4.96,-1.29,1.93,3.11,0.0,61.875,-3.625,32.0625,0.57879638671875,-0.35015869140625,0.66571044921875,-0.3150634765625,-27.6875,43.0625,15.5625,-5.39,-8.08,-1.29,stop,5
10.34,1154483.85259181,27,3,3,3,1,-3.62,-4.77,-1.31,1.81,3.29,-0.11,66.0,-1.8125,32.875,0.581787109375,-0.344970703125,0.664794921875,-0.317138671875,-27.6875,43.0625,15.5625,-5.44,-8.07,-1.19,stop,5
10.35,1154483.85259181,27,3,3,3,1,-5.03,-4.76,-1.12,0.45,3.28,-0.02,67.3125,0.625,34.625,0.584716796875,-0.3394775390625,0.66400146484375,-0.3193359375,-27.6875,43.0625,15.5625,-5.48,-8.05,-1.1,stop,5
10.36,1154483.865255506,27,3,3,3,1,-5.93,-4.85,-1.07,-0.39,3.16,-0.05,63.625,4.75,35.9375,0.5872802734375,-0.33404541015625,0.66351318359375,-0.3212890625,-27.375,44.0625,12.0,-5.53,-8.02,-1.01,stop,5
10.37,1154483.865255506,27,3,3,3,1,-7.03,-5.11,-1.05,-1.44,2.89,-0.1,53.625,10.4375,34.9375,0.5892333984375,-0.3289794921875,0.66357421875,-0.3228759765625,-27.375,44.0625,12.0,-5.58,-8.0,-0.95,stop,5
10.38,1154483.879956841,27,3,3,3,1,-10.11,-6.67,-1.45,-4.49,1.3,-0.54,41.875,17.5,32.125,0.59033203125,-0.324462890625,0.66424560546875,-0.32415771484375,-27.375,44.0625,12.0,-5.62,-7.97,-0.91,stop,5
10.39,1154483.879956841,27,3,3,3,1,-11.62,-7.96,-2.02,-5.96,0.0,-1.12,30.6875,25.8125,28.75,0.59051513671875,-0.32049560546875,0.66552734375,-0.3251953125,-27.375,44.0625,12.0,-5.66,-7.95,-0.89,stop,5
10.41,1154483.912026014,27,3,3,3,1,-12.88,-9.66,-2.53,-7.18,-1.73,-1.64,20.0625,28.9375,26.375,0.590087890625,-0.31707763671875,0.66717529296875,-0.32574462890625,-27.375,44.0625,12.0,-5.69,-7.93,-0.89,moving,5
10.42,1154483.912026014,27,3,3,3,2,-14.97,-12.32,-3.44,-9.25,-4.41,-2.54,11.0625,22.375,24.5625,0.58978271484375,-0.31439208984375,0.668701171875,-0.32574462890625,-25.875,45.5625,6.875,-5.72,-7.9,-0.9,moving,5
10.43,1154483.925035739,27,3,3,3,2,-17.26,-16.8,-3.84,-11.5,-8.91,-2.95,10.0,3.875,22.75,0.59051513671875,-0.31243896484375,0.66925048828125,-0.32525634765625,-25.875,45.5625,6.875,-5.75,-7.88,-0.89,moving,5
10.43,1154483.925035739,27,3,3,3,2,-16.19,-17.43,-2.74,-10.41,-9.56,-1.89,21.25,-8.5,20.25,0.5921630859375,-0.3104248046875,0.66876220703125,-0.3251953125,-25.875,45.5625,6.875,-5.78,-7.87,-0.85,moving,5
10.44,1154483.945102064,27,3,3,3,2,-13.34,-16.25,-2.89,-7.52,-8.4,-2.06,27.125,7.4375,19.5,0.593017578125,-0.3076171875,0.6689453125,-0.325927734375,-25.875,45.5625,6.875,-5.81,-7.85,-0.82,moving,5
10.45,1154483.945102064,27,3,3,3,2,-13.34,-16.25,-2.89,-7.52,-8.4,-2.06,27.125,7.4375,19.5,0.593017578125,-0.3076171875,0.6689453125,-0.325927734375,-25.875,45.5625,6.875,-5.81,-7.85,-0.82,moving,5
10.46,1154483.955125176,27,3,3,3,2,-10.95,-14.7,-4.35,-5.11,-6.86,-3.51,7.1875,25.625,17.5625,0.59222412109375,-0.30548095703125,0.6705322265625,-0.32611083984375,-25.875,45.5625,6.875,-5.83,-7.83,-0.84,moving,5
10.46,1154483.955125176,27,3,3,3,2,-9.94,-12.4,-2.71,-4.1,-4.57,-1.83,-6.3125,31.0,10.6875,0.59051513671875,-0.3043212890625,0.672607421875,-0.32598876953125,-25.1875,46.0,5.0625,-5.84,-7.82,-0.88,moving,5
10.47,1154483.971105278,27,3,3,3,2,-9.79,-11.67,-2.47,-3.95,-3.85,-1.51,-23.1875,45.4375,-0.75,0.58721923828125,-0.30426025390625,0.67559814453125,-0.32586669921875,-25.1875,46.0,5.0625,-5.83,-7.82,-0.96,moving,5
10.48,1154483.971105278,27,3,3,3,2,-9.3,-11.11,-2.77,-3.49,-3.29,-1.68,-44.3125,60.3125,-11.1875,0.5821533203125,-0.305419921875,0.6796875,-0.32537841796875,-25.1875,46.0,5.0625,-5.81,-7.82,-1.08,moving,5
10.5,1154484.004324883,27,3,3,3,2,-8.97,-10.28,-2.79,-3.19,-2.45,-1.58,-48.9375,55.4375,-17.375,0.5770263671875,-0.307373046875,0.68341064453125,-0.3248291015625,-25.1875,46.0,5.0625,-5.77,-7.83,-1.2,moving,5
10.51,1154484.004324883,27,3,3,3,2,-7.56,-8.56,-2.21,-1.82,-0.72,-0.9,-41.875,40.0625,-21.0625,0.57293701171875,-0.3095703125,0.68609619140625,-0.32440185546875,-25.1875,46.0,5.0625,-5.73,-7.84,-1.3,moving,5
10.51,1154484.015073336,27,3,3,3,2,-6.87,-7.89,-2.2,-1.17,-0.03,-0.83,-31.125,25.6875,-24.0,0.56982421875,-0.31182861328125,0.6876220703125,-0.32440185546875,-25.5625,47.1875,4.375,-5.7,-7.86,-1.37,moving,5
10.52,1154484.015073336,27,3,3,3,2,-6.17,-7.23,-2.1,-0.51,0.63,-0.69,-17.375,12.6875,-23.5625,0.56793212890625,-0.313720703125,0.6881103515625,-0.3248291015625,-25.5625,47.1875,4.375,-5.66,-7.87,-1.41,moving,5
10.53,1154484.033854993,27,3,3,3,2,-5.71,-7.0,-1.89,-0.07,0.88,-0.47,-4.125,-1.75,-21.75,0.56732177734375,-0.31524658203125,0.68756103515625,-0.32562255859375,-25.5625,47.1875,4.375,-5.63,-7.89,-1.41,moving,5
10.54,1154484.033854993,27,3,3,3,2,-4.84,-6.59,-1.23,0.77,1.32,0.16,4.0625,-14.5,-20.8125,0.56768798828125,-0.31671142578125,0.6861572265625,-0.326416015625,-25.5625,47.1875,4.375,-5.61,-7.91,-1.39,moving,5
10.55,1154484.060384372,27,3,3,3,2,-4.58,-6.03,-1.0,0.99,1.91,0.36,5.1875,-22.4375,-22.6875,0.56854248046875,-0.31842041015625,0.684326171875,-0.32720947265625,-25.5625,47.1875,4.375,-5.58,-7.94,-1.36,moving,5
10.57,1154484.060384372,27,3,3,3,2,-4.55,-5.28,-0.89,1.0,2.68,0.44,2.0625,-24.9375,-25.5,0.5693359375,-0.320556640625,0.68231201171875,-0.327880859375,-26.6875,46.375,5.5,-5.55,-7.96,-1.34,moving,5
10.58,1154484.078910169,27,3,3,3,2,-4.76,-3.75,-0.75,0.76,4.23,0.57,-4.0,-24.0,-26.4375,0.56988525390625,-0.322998046875,0.6805419921875,-0.3282470703125,-26.6875,46.375,5.5,-5.52,-7.99,-1.32,moving,5
10.59,1154484.078910169,27,3,3,3,2,-4.62,-3.21,-0.79,0.86,4.79,0.52,-11.5,-20.9375,-26.5625,0.570068359375,-0.32574462890625,0.6790771484375,-0.32830810546875,-26.6875,46.375,5.5,-5.49,-8.01,-1.31,moving,5
10.59,1154484.095022189,27,3,3,3,2,-4.41,-2.75,-0.72,1.04,5.28,0.6,-17.3125,-15.0,-26.125,0.5697021484375,-0.32855224609375,0.6781005859375,-0.328125,-26.6875,46.375,5.5,-5.46,-8.03,-1.32,moving,5
10.6,1154484.095022189,27,3,3,3,2,-4.12,-2.34,-0.56,1.3,5.71,0.78,-20.875,-10.4375,-24.9375,0.56903076171875,-0.33135986328125,0.677490234375,-0.3277587890625,-26.6875,46.375,5.5,-5.43,-8.05,-1.34,moving,5
10.62,1154484.119896904,27,3,3,3,2,-3.15,-1.56,-0.2,2.24,6.5,1.16,-21.375,-5.5625,-22.3125,0.56805419921875,-0.33392333984375,0.67718505859375,-0.327392578125,-26.25,45.375,6.6875,-5.4,-8.06,-1.37,moving,5
10.63,1154484.119896904,27,3,3,3,2,-2.56,-1.34,-0.03,2.8,6.73,1.36,-19.8125,-0.3125,-19.8125,0.56695556640625,-0.3360595703125,0.67718505859375,-0.32720947265625,-26.25,45.375,6.6875,-5.37,-8.08,-1.4,moving,5
10.64,1154484.135346286,27,3,3,3,2,-1.8,-1.1,-0.07,3.54,6.99,1.36,-17.375,5.0625,-19.0625,0.56561279296875,-0.337890625,0.67742919921875,-0.32720947265625,-26.25,45.375,6.6875,-5.34,-8.09,-1.43,moving,5
10.65,1154484.135346286,27,3,3,3,2,-1.04,-0.84,0.04,4.26,7.26,1.51,-14.5,8.625,-19.5,0.5640869140625,-0.3394775390625,0.67767333984375,-0.32757568359375,-26.25,45.375,6.6875,-5.31,-8.1,-1.46,moving,5
10.66,1154484.150483289,27,3,3,3,2,0.42,-0.31,0.36,5.7,7.8,1.84,-11.3125,10.75,-19.375,0.56256103515625,-0.3408203125,0.677978515625,-0.328125,-26.25,45.375,6.6875,-5.28,-8.12,-1.48,moving,5
10.67,1154484.150483289,27,3,3,3,2,0.95,-0.12,0.63,6.21,8.01,2.14,-9.4375,10.875,-18.5625,0.56109619140625,-0.34210205078125,0.67828369140625,-0.32879638671875,-27.0,44.1875,9.0,-5.25,-8.13,-1.51,moving,5
10.68,1154484.181415662,27,3,3,3,2,1.33,0.01,0.73,6.56,8.16,2.26,-9.125,11.25,-18.9375,0.55963134765625,-0.34332275390625,0.67852783203125,-0.3294677734375,-27.0,44.1875,9.0,-5.22,-8.15,-1.53,moving,5
10.68,1154484.181415662,27,3,3,3,2,1.64,0.1,0.87,6.83,8.27,2.43,-12.3125,8.1875,-21.25,0.55816650390625,-0.34490966796875,0.67864990234375,-0.33001708984375,-27.0,44.1875,9.0,-5.19,-8.16,-1.56,moving,5
10.69,1154484.196783623,27,3,3,3,2,1.86,0.06,1.35,7.02,8.24,2.94,-18.9375,0.5625,-22.5625,0.556884765625,-0.34716796875,0.6785888671875,-0.3299560546875,-27.0,44.1875,9.0,-5.16,-8.18,-1.58,moving,5
10.7,1154484.196783623,27,3,3,3,2,1.75,-0.41,1.43,6.88,7.78,3.05,-27.75,-4.8125,-23.5,0.5556640625,-0.35003662109375,0.678466796875,-0.32928466796875,-27.0,44.1875,9.0,-5.13,-8.19,-1.62,moving,5
10.71,1154484.210314954,27,3,3,3,2,1.19,-1.6,1.39,6.29,6.59,3.06,-37.625,-5.125,-24.9375,0.5540771484375,-0.35345458984375,0.67852783203125,-0.32806396484375,-27.375,45.0,9.75,-5.09,-8.2,-1.67,moving,5
10.72,1154484.210314954,27,3,3,3,2,1.19,-1.6,1.39,6.29,6.59,3.06,-37.625,-5.125,-24.9375,0.5540771484375,-0.35345458984375,0.67852783203125,-0.32806396484375,-27.375,45.0,9.75,-5.09,-8.2,-1.67,moving,5
10.73,1154484.224627088,27,3,3,3,2,-1.54,-6.68,0.85,3.51,1.52,2.59,-45.9375,-1.1875,-27.3125,0.552001953125,-0.3572998046875,0.678955078125,-0.32666015625,-27.375,45.0,9.75,-5.06,-8.21,-1.73,moving,5
10.74,1154484.224627088,27,3,3,3,2,-3.96,-11.9,0.1,1.04,-3.67,1.91,-49.8125,0.125,-34.1875,0.5494384765625,-0.3616943359375,0.6793212890625,-0.3253173828125,-27.375,45.0,9.75,-5.01,-8.23,-1.81,moving,5
10.75,1154484.239430107,27,3,3,3,2,-7.58,-17.74,-1.15,-2.63,-9.48,0.7,-39.875,-10.0,-44.3125,0.54754638671875,-0.36651611328125,0.67852783203125,-0.32470703125,-27.375,45.0,9.75,-4.95,-8.25,-1.85,moving,5
10.76,1154484.239430107,27,3,3,3,2,-10.85,-24.29,-4.83,-5.93,-15.99,-3.05,26.625,-42.75,-36.9375,0.54986572265625,-0.36865234375,0.674560546875,-0.32666015625,-27.375,45.0,9.75,-4.91,-8.29,-1.78,moving,5
10.76,1154484.270353976,27,3,3,3,2,-15.68,-33.44,-10.96,-10.73,-25.1,-9.52,144.3125,-155.5,-3.0,0.5634765625,-0.36627197265625,0.66278076171875,-0.33026123046875,-28.5,43.1875,12.0625,-4.95,-8.34,-1.44,moving,5
10.77,1154484.270353976,27,3,3,3,2,-10.73,-20.31,2.65,-5.71,-11.95,3.69,154.4375,-203.125,11.6875,0.580322265625,-0.36376953125,0.6485595703125,-0.33203125,-28.5,43.1875,12.0625,-5.01,-8.36,-1.03,moving,5
10.78,1154484.290843966,27,3,3,3,2,-9.27,-20.03,-2.78,-4.27,-11.65,-1.78,13.875,-26.0625,-15.4375,0.581787109375,-0.36468505859375,0.6463623046875,-0.332763671875,-28.5,43.1875,12.0625,-4.99,-8.37,-0.99,moving,5
10.79,1154484.290843966,27,3,3,3,2,-8.2,-19.84,-7.77,-3.25,-11.46,-6.61,-55.875,95.0625,-18.875,0.5740966796875,-0.36578369140625,0.65216064453125,-0.33355712890625,-28.5,43.1875,12.0625,-4.95,-8.38,-1.15,moving,5
10.81,1154484.299427096,27,3,3,3,2,-9.0,-17.3,5.4,-4.06,-8.92,6.6,-6.9375,38.6875,0.6875,0.5716552734375,-0.364990234375,0.65435791015625,-0.3343505859375,-28.5,43.1875,12.0625,-4.94,-8.38,-1.2,moving,5
10.82,1154484.299427096,27,3,3,3,2,-7.48,-17.97,0.49,-2.56,-9.59,1.8,-38.3125,51.3125,-2.25,0.56744384765625,-0.365478515625,0.657958984375,-0.33392333984375,-28.5,43.875,11.6875,-4.92,-8.37,-1.3,moving,5
10.83,1154484.329426242,27,3,3,3,2,-5.58,-17.24,-2.75,-0.69,-8.86,-1.31,-48.6875,73.0625,-14.0625,0.561279296875,-0.3665771484375,0.6624755859375,-0.33416748046875,-28.5,43.875,11.6875,-4.89,-8.37,-1.43,moving,5
10.84,1154484.329426242,27,3,3,3,2,-3.75,-16.04,-3.47,1.1,-7.65,-1.99,-6.875,37.0625,-15.3125,0.5584716796875,-0.36676025390625,0.66400146484375,-0.335693359375,-28.5,43.875,11.6875,-4.85,-8.38,-1.47,moving,5
10.84,1154484.344120985,27,3,3,3,2,-4.0,-12.34,-4.1,0.83,-3.93,-2.66,35.9375,12.6875,-7.3125,0.55865478515625,-0.36505126953125,0.663330078125,-0.33856201171875,-28.5,43.875,11.6875,-4.84,-8.4,-1.43,moving,5
10.85,1154484.344120985,27,3,3,3,2,-5.34,-11.18,-3.02,-0.49,-2.77,-1.65,45.5,2.875,0.625,0.5599365234375,-0.3626708984375,0.66217041015625,-0.34124755859375,-28.5,43.875,11.6875,-4.84,-8.41,-1.37,moving,5
10.86,1154484.365146497,27,3,3,3,2,-6.27,-10.47,-2.22,-1.42,-2.05,-0.91,41.6875,3.8125,7.8125,0.561279296875,-0.360107421875,0.66131591796875,-0.3433837890625,-29.5,43.875,12.875,-4.85,-8.41,-1.31,moving,5
10.87,1154484.365146497,27,3,3,3,2,-5.98,-8.67,-0.36,-1.1,-0.26,0.89,37.8125,2.625,14.4375,0.562744140625,-0.3572998046875,0.6607666015625,-0.344970703125,-29.5,43.875,12.875,-4.87,-8.41,-1.26,moving,5
10.89,1154484.389866509,27,3,3,3,2,-4.84,-8.13,-0.07,0.05,0.26,1.14,29.1875,1.9375,19.75,0.56414794921875,-0.35467529296875,0.66058349609375,-0.34576416015625,-29.5,43.875,12.875,-4.9,-8.4,-1.22,moving,5
10.9,1154484.389866509,27,3,3,3,2,-3.57,-7.63,-0.17,1.35,0.75,1.04,8.3125,11.25,20.625,0.5643310546875,-0.352783203125,0.66156005859375,-0.3455810546875,-29.5,43.875,12.875,-4.93,-8.38,-1.21,moving,5
10.91,1154484.405035251,27,3,3,3,2,-2.66,-6.78,-0.64,2.29,1.57,0.59,-5.5,26.5625,22.0625,0.56329345703125,-0.3509521484375,0.6636962890625,-0.344970703125,-29.5,43.875,12.875,-4.95,-8.36,-1.24,moving,5
10.92,1154484.405035251,27,3,3,3,2,-1.45,-4.68,-0.63,3.53,3.66,0.65,-7.6875,33.9375,26.625,0.5618896484375,-0.34881591796875,0.6663818359375,-0.34429931640625,-28.75,43.1875,9.75,-4.98,-8.34,-1.28,moving,5
10.93,1154484.420421074,27,3,3,3,2,-0.98,-3.76,-0.32,4.04,4.55,0.99,-4.75,37.25,30.9375,0.56048583984375,-0.34613037109375,0.6693115234375,-0.3436279296875,-28.75,43.1875,9.75,-5.02,-8.31,-1.32,moving,5
10.94,1154484.420421074,27,3,3,3,2,-0.66,-3.01,0.01,4.39,5.26,1.37,-2.0625,42.0,33.75,0.55902099609375,-0.34295654296875,0.67242431640625,-0.3431396484375,-28.75,43.1875,9.75,-5.06,-8.28,-1.36,moving,5
10.94,1154484.450207573,27,3,3,3,2,-0.23,-2.35,0.0,4.86,5.9,1.4,-0.3125,47.0,34.125,0.5572509765625,-0.339599609375,0.67572021484375,-0.3428955078125,-28.75,43.1875,9.75,-5.1,-8.25,-1.41,moving,5
10.96,1154484.450207573,27,3,3,3,2,0.57,-0.79,0.12,5.71,7.43,1.57,1.625,47.0,33.4375,0.5555419921875,-0.33612060546875,0.678955078125,-0.3427734375,-28.75,43.1875,9.75,-5.13,-8.22,-1.44,moving,5
10.97,1154484.469879733,27,3,3,3,2,0.63,-0.21,0.17,5.8,7.98,1.65,4.875,44.0,32.625,0.55401611328125,-0.3326416015625,0.681884765625,-0.3427734375,-27.6875,45.0,8.1875,-5.17,-8.19,-1.48,moving,5
10.98,1154484.469879733,27,3,3,3,2,0.54,0.15,0.33,5.74,8.33,1.83,6.4375,36.375,30.25,0.55291748046875,-0.3294677734375,0.68426513671875,-0.3427734375,-27.6875,45.0,8.1875,-5.2,-8.17,-1.5,moving,5
10.99,1154484.479596978,27,3,3,3,2,0.42,0.56,0.87,5.66,8.71,2.39,4.625,22.25,27.6875,0.55255126953125,-0.326904296875,0.68603515625,-0.34234619140625,-27.6875,45.0,8.1875,-5.23,-8.14,-1.51,moving,5
11.0,1154484.479596978,27,3,3,3,2,0.47,1.6,1.48,5.74,9.73,3.0,0.5625,11.125,22.5,0.55255126953125,-0.3251953125,0.6871337890625,-0.34161376953125,-27.6875,45.0,8.1875,-5.26,-8.12,-1.52,moving,5
11.0,1154484.49412953,27,3,3,3,2,0.47,1.6,1.48,5.74,9.73,3.0,0.5625,11.125,22.5,0.55255126953125,-0.3251953125,0.6871337890625,-0.34161376953125,-27.6875,45.0,8.1875,-5.26,-8.12,-1.52,moving,5
11.01,1154484.49412953,27,3,3,3,2,0.46,1.98,1.4,5.76,10.09,2.94,-0.9375,8.125,18.4375,0.5526123046875,-0.32391357421875,0.6881103515625,-0.3409423828125,-27.6875,45.0,8.1875,-5.29,-8.11,-1.53,moving,5
11.02,1154484.514207207,27,3,3,3,2,0.4,2.24,1.35,5.71,10.34,2.9,-2.5625,12.625,18.375,0.55230712890625,-0.32257080078125,0.68927001953125,-0.34027099609375,-27.375,43.875,5.5,-5.31,-8.09,-1.55,moving,5
11.03,1154484.514207207,27,3,3,3,2,0.33,2.53,1.31,5.66,10.6,2.91,-11.625,27.875,19.25,0.5509033203125,-0.3211669921875,0.6915283203125,-0.33941650390625,-27.375,43.875,5.5,-5.33,-8.07,-1.59,moving,5
11.04,1154484.541321424,27,3,3,3,2,-0.06,2.03,0.51,5.28,10.08,2.18,-23.5,44.25,19.75,0.54815673828125,-0.31976318359375,0.69488525390625,-0.33831787109375,-27.375,43.875,5.5,-5.34,-8.04,-1.66,moving,5
11.05,1154484.541321424,27,3,3,3,2,-0.53,1.47,0.23,4.82,9.49,1.99,-32.3125,54.75,20.6875,0.54449462890625,-0.31842041015625,0.69903564453125,-0.33685302734375,-27.375,43.875,5.5,-5.36,-8.01,-1.76,moving,5
11.06,1154484.554696994,27,3,3,3,2,-1.12,0.33,0.03,4.23,8.31,1.91,-37.75,63.0,20.1875,0.54022216796875,-0.317138671875,0.70367431640625,-0.33538818359375,-27.375,43.875,5.5,-5.36,-7.98,-1.87,moving,5
11.07,1154484.554696994,27,3,3,3,2,-3.77,-3.67,-1.22,1.59,4.27,0.77,-39.875,71.375,20.5,0.53533935546875,-0.315673828125,0.708740234375,-0.33392333984375,-27.6875,44.1875,4.375,-5.37,-7.95,-1.99,moving,5
11.08,1154484.576252577,27,3,3,3,2,-4.99,-5.74,-1.15,0.38,2.17,0.94,-33.8125,62.5,26.9375,0.53131103515625,-0.31378173828125,0.71331787109375,-0.332275390625,-27.6875,44.1875,4.375,-5.38,-7.91,-2.1,moving,5
11.09,1154484.576252577,27,3,3,3,2,-9.39,-10.96,-1.31,-3.97,-3.08,0.84,-13.3125,35.9375,34.6875,0.5296630859375,-0.3111572265625,0.71630859375,-0.33087158203125,-27.6875,44.1875,4.375,-5.42,-7.88,-2.15,moving,5
11.09,1154484.599868869,27,3,3,3,2,-12.87,-15.89,-3.95,-7.41,-8.03,-1.81,18.0625,8.875,28.0,0.53045654296875,-0.308349609375,0.71697998046875,-0.3309326171875,-27.6875,44.1875,4.375,-5.45,-7.86,-2.14,moving,5
11.11,1154484.599868869,27,3,3,3,2,-22.87,-29.53,-11.39,-17.33,-21.69,-9.43,77.125,-76.75,42.8125,0.53851318359375,-0.30426025390625,0.71234130859375,-0.3316650390625,-27.6875,44.1875,4.375,-5.54,-7.84,-1.96,moving,5
11.12,1154484.619304701,27,3,3,3,2,-29.46,-26.95,-12.99,-23.75,-19.13,-11.45,182.4375,-178.625,84.125,0.5567626953125,-0.2955322265625,0.70068359375,-0.334228515625,-27.6875,45.0,4.375,-5.71,-7.82,-1.53,moving,5
11.13,1154484.619304701,27,3,3,3,2,-24.89,-15.32,-5.32,-19.02,-7.54,-4.26,192.0625,-212.1875,82.0,0.576904296875,-0.28729248046875,0.6866455078125,-0.33642578125,-27.6875,45.0,4.375,-5.87,-7.78,-1.05,moving,5
11.14,1154484.633658583,27,3,3,3,2,-14.48,-17.13,-4.41,-8.58,-9.36,-3.44,40.125,-32.1875,15.5,0.58026123046875,-0.2852783203125,0.68426513671875,-0.33721923828125,-27.6875,45.0,4.375,-5.9,-7.77,-0.97,moving,5
11.15,1154484.633658583,27,3,3,3,2,-15.54,-11.97,-2.99,-9.64,-4.22,-1.86,-52.0625,85.1875,9.875,0.57415771484375,-0.2847900390625,0.6903076171875,-0.335693359375,-27.6875,45.0,4.375,-5.89,-7.75,-1.13,moving,5
11.16,1154484.664999159,27,3,3,3,2,-16.72,-10.76,2.8,-10.82,-3.04,4.07,-45.5625,77.5,14.6875,0.56878662109375,-0.283935546875,0.69586181640625,-0.3341064453125,-27.6875,45.0,4.375,-5.9,-7.72,-1.27,moving,5
11.17,1154484.664999159,27,3,3,3,2,-16.07,-10.83,-1.03,-10.18,-3.13,0.46,-90.375,105.125,6.0,0.560302734375,-0.284912109375,0.703857421875,-0.33087158203125,-28.0625,47.5,2.75,-5.88,-7.69,-1.5,moving,5
11.18,1154484.674205376,27,3,3,3,2,-15.22,-11.22,-4.16,-9.37,-3.55,-2.4,-118.4375,99.75,-5.3125,0.551025390625,-0.28814697265625,0.7119140625,-0.3262939453125,-28.0625,47.5,2.75,-5.85,-7.67,-1.76,moving,5
11.19,1154484.674205376,27,3,3,3,2,-12.81,-11.29,-2.98,-6.97,-3.64,-1.08,-82.375,26.5,-2.6875,0.5472412109375,-0.29144287109375,0.7154541015625,-0.32196044921875,-28.0625,47.5,2.75,-5.83,-7.64,-1.89,moving,5
11.2,1154484.694153618,27,3,3,3,2,-11.55,-11.09,-3.74,-5.7,-3.46,-1.84,-19.75,-21.75,2.5,0.5482177734375,-0.2928466796875,0.715087890625,-0.32000732421875,-28.0625,47.5,2.75,-5.85,-7.63,-1.9,moving,5
11.21,1154484.694153618,27,3,3,3,2,-9.59,-10.92,-5.27,-3.71,-3.28,-3.45,22.625,-49.125,4.75,0.552001953125,-0.29278564453125,0.71221923828125,-0.31988525390625,-28.0625,47.5,2.75,-5.87,-7.63,-1.82,moving,5
11.22,1154484.720170545,27,3,3,3,2,-5.85,-9.93,-5.37,0.04,-2.28,-3.67,44.1875,-67.75,1.875,0.557373046875,-0.29241943359375,0.707763671875,-0.32080078125,-25.875,47.875,2.375,-5.89,-7.64,-1.69,moving,5
11.23,1154484.720170545,27,3,3,3,2,-5.45,-8.75,-2.99,0.44,-1.08,-1.41,42.8125,-61.5625,-6.5625,0.56207275390625,-0.29241943359375,0.703369140625,-0.3221435546875,-25.875,47.875,2.375,-5.9,-7.66,-1.57,moving,5
11.24,1154484.735169488,27,3,3,3,2,-5.56,-7.6,-1.24,0.31,0.08,0.28,20.375,-21.125,-18.375,0.56341552734375,-0.29315185546875,0.7012939453125,-0.32373046875,-25.875,47.875,2.375,-5.88,-7.69,-1.52,moving,5
11.25,1154484.735169488,27,3,3,3,2,-5.41,-6.66,-0.33,0.43,1.05,1.22,-11.75,22.0,-30.0625,0.5609130859375,-0.294921875,0.70196533203125,-0.32501220703125,-25.875,47.875,2.375,-5.84,-7.71,-1.56,moving,5
11.26,1154484.750110772,27,3,3,3,2,-4.34,-4.72,-0.52,1.42,3.02,1.14,-39.0,50.1875,-38.6875,0.55572509765625,-0.2977294921875,0.70452880859375,-0.3258056640625,-25.875,47.875,2.375,-5.77,-7.74,-1.66,moving,5
11.26,1154484.750110772,27,3,3,3,2,-4.34,-4.72,-0.52,1.42,3.02,1.14,-39.0,50.1875,-38.6875,0.55572509765625,-0.2977294921875,0.70452880859375,-0.3258056640625,-25.875,47.875,2.375,-5.77,-7.74,-1.66,moving,5
11.27,1154484.770508395,27,3,3,3,2,-4.2,-3.93,-0.8,1.48,3.84,0.99,-50.625,62.25,-44.25,0.54931640625,-0.30108642578125,0.70782470703125,-0.326416015625,-25.1875,47.875,2.0,-5.69,-7.77,-1.79,moving,5
11.28,1154484.770508395,27,3,3,3,2,-4.26,-3.13,-0.97,1.36,4.67,0.94,-45.75,58.3125,-42.6875,0.5433349609375,-0.30426025390625,0.7108154296875,-0.3271484375,-25.1875,47.875,2.0,-5.62,-7.8,-1.91,moving,5
11.29,1154484.782923028,27,3,3,3,2,-4.11,-2.34,-1.1,1.43,5.48,0.9,-30.6875,47.4375,-36.6875,0.53851318359375,-0.30657958984375,0.71295166015625,-0.32818603515625,-25.1875,47.875,2.0,-5.55,-7.82,-2.0,moving,5
11.3,1154484.782923028,27,3,3,3,2,-3.05,-0.73,-0.6,2.45,7.11,1.45,-14.875,31.4375,-31.125,0.5352783203125,-0.30828857421875,0.71405029296875,-0.32952880859375,-25.1875,47.875,2.0,-5.5,-7.85,-2.05,moving,5
11.31,1154484.810411594,27,3,3,3,2,-2.48,-0.27,-0.7,2.97,7.6,1.36,1.0625,19.4375,-27.125,0.5333251953125,-0.30938720703125,0.71417236328125,-0.33135986328125,-25.1875,47.875,2.0,-5.46,-7.87,-2.07,moving,5
11.32,1154484.810411594,27,3,3,3,2,-1.83,0.14,-0.27,3.59,8.04,1.78,14.625,6.625,-22.25,0.53265380859375,-0.30987548828125,0.7135009765625,-0.33343505859375,-25.875,45.6875,3.5,-5.42,-7.9,-2.06,moving,5
