timestamp,android_nano_timestamp,temperature,calib_mag,calib_accel,calib_gyro,calib_sys,acc_x,acc_y,acc_z,lacc_x,lacc_y,lacc_z,gyro_x,gyro_y,gyro_z,quat_w,quat_x,quat_y,quat_z,mag_x,mag_y,mag_z,gravity_x,gravity_y,gravity_z,label,person
5.53,1673114.151094891,25,3,3,3,3,-674.0,20.18,-0.22,-3.43,10.96,-0.55,0.52,-47.4375,-1.3125,558.875,0.34356689453125,0.604248046875,0.46795654296875,0.0635,-5.375,10.0,-20.6875,9.22,0.33,moving,6
5.54,1673114.174819745,25,3,3,3,3,-740.0,22.42,-0.54,-4.09,13.2,-0.9,0.35,-58.5,-3.9375,562.125,0.34588623046875,0.60162353515625,0.46588134765625,0.0627,-5.6875,9.25,-20.6875,9.22,0.36,moving,6
5.55,1673114.174819745,25,3,3,3,3,-788.0,23.77,-0.87,-4.56,14.55,-1.27,0.16,-64.125,-5.375,565.75,0.34820556640625,0.59881591796875,0.463623046875,0.0627,-5.6875,9.25,-20.75,9.21,0.39,moving,6
5.56,1673114.192395469,25,3,3,3,3,-846.0,24.48,-1.6,-5.13,15.27,-2.03,-0.25,-59.375,-7.0625,569.25,0.35015869140625,0.5960693359375,0.4615478515625,0.0627,-5.6875,9.25,-20.75,9.21,0.43,moving,6
5.57,1673114.192395469,25,3,3,3,3,-770.0,24.56,-2.54,-4.36,15.35,-2.99,0.75,-50.6875,-4.8125,572.0,0.3521728515625,0.59393310546875,0.45947265625,0.0627,-5.6875,9.25,-20.8125,9.21,0.45,moving,6
5.58,1673114.220189699,25,3,3,3,3,-717.0,23.8,-2.03,-3.85,14.59,-2.47,4.71,-56.6875,-0.5,574.0625,0.35589599609375,0.59234619140625,0.45623779296875,0.0627,-5.6875,9.25,-20.75,9.21,0.43,moving,6
5.59,1673114.220189699,25,3,3,3,3,-658.0,21.68,-1.09,-3.26,12.46,-1.46,11.11,-67.3125,4.0,575.25,0.3621826171875,0.59173583984375,0.45068359375,0.0641,-6.0625,5.0,-20.6875,9.22,0.36,moving,6
5.6,1673114.234743858,25,3,3,3,3,-656.0,19.6,-0.19,-3.26,10.37,-0.43,16.4,-64.0,6.875,575.0,0.37005615234375,0.59234619140625,0.4437255859375,0.0641,-6.0625,5.0,-20.625,9.23,0.23,moving,6
5.61,1673114.234743858,25,3,3,3,3,-674.0,16.22,1.38,-3.45,6.98,1.28,16.73,-46.25,6.3125,573.6875,0.3773193359375,0.59393310546875,0.43707275390625,0.0641,-6.0625,5.0,-20.5625,9.23,0.09,moving,6
5.62,1673114.265280845,25,3,3,3,3,-657.0,14.46,1.92,-3.28,5.22,1.94,13.66,-37.3125,2.0625,572.6875,0.38299560546875,0.59527587890625,0.4315185546875,0.0641,-6.0625,5.0,-20.5,9.23,-0.02,moving,6
5.63,1673114.265280845,25,3,3,3,3,-619.0,13.35,2.04,-2.89,4.11,2.14,10.23,-41.3125,-4.6875,572.875,0.38739013671875,0.5958251953125,0.42657470703125,0.0641,-6.0625,5.0,-20.5625,9.23,-0.09,moving,6
5.64,1673114.270788047,25,3,3,3,3,-551.0,12.22,1.68,-2.2,2.99,1.83,8.47,-55.875,-8.8125,574.3125,0.3916015625,0.5953369140625,0.42144775390625,0.0638,-6.375,1.875,-20.6875,9.22,-0.15,moving,6
5.65,1673114.270788047,25,3,3,3,3,-321.0,8.27,0.65,0.11,-0.94,0.85,9.02,-75.4375,-10.0625,576.6875,0.3966064453125,0.59405517578125,0.41546630859375,0.0638,-6.375,1.875,-20.8125,9.22,-0.2,moving,6
5.66,1673114.29464079,25,3,3,3,3,-229.0,6.25,0.19,1.05,-2.95,0.43,10.07,-96.1875,-8.5625,579.875,0.4027099609375,0.5919189453125,0.40838623046875,0.0638,-6.375,1.875,-20.875,9.21,-0.24,moving,6
5.67,1673114.29464079,25,3,3,3,3,-191.0,4.52,0.12,1.44,-4.68,0.42,11.37,-88.375,-2.4375,582.0625,0.40924072265625,0.59014892578125,0.4014892578125,0.0638,-6.375,1.875,-20.9375,9.2,-0.3,moving,6
5.68,1673114.309514569,25,3,3,3,3,-139.0,0.52,0.66,1.95,-8.68,1.05,11.27,-51.5,4.375,582.0,0.41473388671875,0.58984375,0.396240234375,0.0638,-6.375,1.875,-20.9375,9.2,-0.39,moving,6
5.69,1673114.309514569,25,3,3,3,3,-125.0,-1.22,0.71,2.08,-10.43,1.18,9.3,-12.9375,7.8125,580.25,0.41845703125,0.5909423828125,0.39312744140625,0.0635,-7.25,-0.375,-20.875,9.2,-0.47,moving,6
5.7,1673114.33989844,25,3,3,3,3,-92.0,-2.65,0.43,2.39,-11.86,0.99,6.84,11.75,11.875,577.625,0.4207763671875,0.59259033203125,0.3919677734375,0.0635,-7.25,-0.375,-20.75,9.21,-0.55,moving,6
5.71,1673114.33989844,25,3,3,3,3,-42.0,-3.79,0.21,2.87,-13.01,0.8,3.6,11.9375,12.6875,575.6875,0.422119140625,0.59344482421875,0.391845703125,0.0635,-7.25,-0.375,-20.5625,9.21,-0.59,moving,6
5.72,1673114.371129641,25,3,3,3,3,36.0,-5.38,0.56,3.65,-14.6,1.16,0.71,-7.125,9.0625,575.5625,0.423095703125,0.59295654296875,0.39178466796875,0.0635,-7.25,-0.375,-20.5,9.22,-0.59,moving,6
5.73,1673114.371129641,25,3,3,3,3,21.0,-4.69,0.9,3.49,-13.92,1.49,-0.03,-16.375,6.6875,576.1875,0.4239501953125,0.5919189453125,0.3914794921875,0.0635,-7.25,-0.375,-20.4375,9.22,-0.59,moving,6
5.74,1673114.37692619,25,3,3,3,3,11.0,-4.25,1.53,3.38,-13.47,2.12,0.33,-19.8125,5.5,577.0,0.425048828125,0.5908203125,0.39093017578125,0.0632,-8.0,-2.25,-20.4375,9.22,-0.58,moving,6
5.75,1673114.37692619,25,3,3,3,3,-18.0,-2.7,1.92,3.07,-11.93,2.5,1.68,-35.3125,7.4375,578.1875,0.4271240234375,0.58917236328125,0.389404296875,0.0632,-8.0,-2.25,-20.375,9.22,-0.57,moving,6
5.76,1673114.401965375,25,3,3,3,3,-151.0,1.33,2.81,1.73,-7.9,3.39,2.88,-59.4375,9.6875,580.3125,0.4305419921875,0.58648681640625,0.38671875,0.0632,-8.0,-2.25,-20.3125,9.23,-0.57,moving,6
5.77,1673114.401965375,25,3,3,3,3,-170.0,2.2,2.52,1.53,-7.03,3.07,2.03,-95.9375,11.8125,584.4375,0.4349365234375,0.5816650390625,0.383056640625,0.0632,-8.0,-2.25,-20.25,9.23,-0.54,moving,6
5.77,1673114.410539024,25,3,3,3,3,-170.0,2.2,2.52,1.53,-7.03,3.07,2.03,-95.9375,11.8125,584.4375,0.4349365234375,0.5816650390625,0.383056640625,0.0632,-8.0,-2.25,-20.25,9.23,-0.54,moving,6
5.78,1673114.410539024,25,3,3,3,3,-180.0,2.63,1.81,1.42,-6.6,2.28,0.61,-124.5625,14.8125,590.1875,0.4400634765625,0.57501220703125,0.37884521484375,0.0632,-8.0,-2.25,-20.1875,9.24,-0.47,moving,6
5.79,1673114.430662478,25,3,3,3,3,-181.0,2.7,0.71,1.4,-6.55,1.11,-0.23,-133.5,15.375,596.5625,0.44512939453125,0.567626953125,0.37451171875,0.0632,-9.0625,-3.0625,-20.0625,9.25,-0.39,moving,6
5.8,1673114.430662478,25,3,3,3,3,-152.0,2.25,-0.86,1.67,-7.01,-0.53,-0.01,-125.25,14.875,602.375,0.44989013671875,0.5606689453125,0.370361328125,0.0632,-9.0625,-3.0625,-20.0,9.26,-0.32,moving,6
5.81,1673114.44468148,25,3,3,3,3,-141.0,2.12,-1.31,1.76,-7.14,-1.02,1.92,-108.5625,15.5,606.8125,0.4547119140625,0.55487060546875,0.36627197265625,0.0632,-9.0625,-3.0625,-19.875,9.27,-0.28,moving,6
5.82,1673114.44468148,25,3,3,3,3,-116.0,1.76,-1.66,1.98,-7.51,-1.39,4.02,-96.0625,17.9375,609.9375,0.4599609375,0.54998779296875,0.3621826171875,0.0632,-9.0625,-3.0625,-19.6875,9.28,-0.27,moving,6
5.83,1673114.461841921,25,3,3,3,3,-94.0,1.45,-1.87,2.18,-7.83,-1.58,5.51,-88.1875,18.5,612.25,0.46539306640625,0.54571533203125,0.35791015625,0.0632,-9.0625,-3.0625,-19.5625,9.28,-0.28,moving,6
5.84,1673114.461841921,25,3,3,3,3,-52.0,1.2,-2.01,2.58,-8.09,-1.72,6.04,-82.0625,16.5,614.1875,0.470703125,0.54193115234375,0.3536376953125,0.0617,-9.75,-10.5,-19.4375,9.29,-0.29,moving,6
5.85,1673114.490623822,25,3,3,3,3,-24.0,1.3,-2.04,2.84,-7.99,-1.72,6.03,-71.875,11.875,615.6875,0.47540283203125,0.538818359375,0.3494873046875,0.0617,-9.75,-10.5,-19.3125,9.29,-0.32,moving,6
5.86,1673114.490623822,25,3,3,3,3,0.0,1.73,-1.81,3.09,-7.56,-1.46,5.94,-58.875,6.0,616.75,0.47943115234375,0.53662109375,0.34564208984375,0.0617,-9.75,-10.5,-19.25,9.3,-0.34,moving,6
5.87,1673114.508811322,25,3,3,3,3,-10.0,3.87,-0.91,2.99,-5.41,-0.52,6.63,-49.5,-0.8125,617.375,0.4830322265625,0.5352783203125,0.341552734375,0.0617,-9.75,-10.5,-19.3125,9.29,-0.38,moving,6
5.88,1673114.508811322,25,3,3,3,3,-42.0,5.79,-0.62,2.68,-3.48,-0.17,8.06,-45.5,-8.625,617.625,0.48663330078125,0.5347900390625,0.3367919921875,0.0617,-9.75,-10.5,-19.4375,9.28,-0.44,moving,6
5.89,1673114.519646568,25,3,3,3,3,-112.0,8.47,-0.2,2.01,-0.79,0.31,9.49,-44.4375,-14.8125,617.625,0.4903564453125,0.5347900390625,0.33135986328125,0.0607,-10.1875,-14.5,-19.5625,9.27,-0.51,moving,6
5.9,1673114.519646568,25,3,3,3,3,-237.0,11.98,0.37,0.79,2.72,0.97,10.26,-40.625,-18.6875,617.25,0.4940185546875,0.5352783203125,0.32562255859375,0.0607,-10.1875,-14.5,-19.8125,9.25,-0.59,moving,6
5.91,1673114.549810875,25,3,3,3,3,-855.0,29.53,1.51,-5.35,20.29,2.2,9.68,-13.0,-17.0,615.75,0.49676513671875,0.53704833984375,0.32135009765625,0.0607,-10.1875,-14.5,-20.0,9.24,-0.69,moving,6
5.92,1673114.549810875,25,3,3,3,3,-1117.0,39.04,3.16,-7.97,29.8,3.85,1.67,-26.25,0.8125,616.5,0.498046875,0.53594970703125,0.31976318359375,0.0607,-10.1875,-14.5,-20.0,9.24,-0.69,moving,6
5.93,1673114.565139407,25,3,3,3,3,-1065.0,39.04,3.38,-7.46,29.78,3.9,-14.02,-56.5625,15.1875,622.625,0.4957275390625,0.52984619140625,0.3221435546875,0.0607,-10.1875,-14.5,-19.875,9.25,-0.51,moving,6
5.94,1673114.565139407,25,3,3,3,3,-933.0,35.05,0.72,-6.12,25.79,0.92,-28.83,-60.25,-10.125,633.6875,0.4873046875,0.52197265625,0.32733154296875,0.0601,-8.25,-18.375,-20.0,9.26,-0.19,moving,6
5.95,1673114.583103803,25,3,3,3,3,-240.0,34.0,-17.05,0.86,24.75,-17.05,-22.44,57.25,-39.6875,638.25,0.47625732421875,0.52264404296875,0.333984375,0.0601,-8.25,-18.375,-20.4375,9.24,0.0,moving,6
5.96,1673114.583103803,25,3,3,3,3,-731.0,39.04,4.44,-4.0,29.81,4.4,-9.79,114.6875,-25.0625,636.1875,0.4683837890625,0.52813720703125,0.34014892578125,0.0601,-8.25,-18.375,-20.6875,9.23,0.03,moving,6
5.97,1673114.610170982,25,3,3,3,3,-660.0,31.04,2.51,-3.29,21.81,2.41,-3.51,-48.8125,0.75,639.375,0.46868896484375,0.5247802734375,0.33917236328125,0.0601,-8.25,-18.375,-20.625,9.23,0.09,moving,6
5.98,1673114.610170982,25,3,3,3,3,-722.0,28.25,1.45,-3.91,19.02,1.43,7.19,11.5625,-0.3125,636.9375,0.4708251953125,0.5267333984375,0.337646484375,0.0601,-8.25,-18.375,-20.625,9.23,0.01,moving,6
5.99,1673114.624120893,25,3,3,3,3,-452.0,17.95,3.77,-1.19,8.72,3.79,0.35,75.25,-12.9375,633.6875,0.46807861328125,0.5313720703125,0.33990478515625,0.0591,-5.5,-18.6875,-20.75,9.22,-0.02,moving,6
6.0,1673114.624120893,25,3,3,3,3,-417.0,17.25,1.67,-0.82,8.03,1.73,1.93,31.3125,-10.8125,632.0,0.46734619140625,0.53387451171875,0.340087890625,0.0591,-5.5,-18.6875,-20.875,9.21,-0.06,moving,6
6.01,1673114.640145998,25,3,3,3,3,-357.0,15.39,-0.42,-0.2,6.17,-0.28,6.22,21.375,-11.5625,629.75,0.46826171875,0.53662109375,0.3385009765625,0.0591,-5.5,-18.6875,-21.0,9.21,-0.14,moving,6
6.02,1673114.640145998,25,3,3,3,3,-230.0,9.38,-2.05,1.08,0.18,-1.88,1.17,40.625,-19.125,628.0625,0.466552734375,0.539794921875,0.33880615234375,0.0591,-5.5,-18.6875,-21.1875,9.19,-0.17,moving,6
6.03,1673114.669587242,25,3,3,3,3,-102.0,6.55,-2.11,2.4,-2.63,-1.94,-4.26,49.25,-19.125,627.375,0.4627685546875,0.5423583984375,0.341064453125,0.0591,-5.5,-18.6875,-21.375,9.18,-0.16,moving,6
6.04,1673114.669587242,25,3,3,3,3,-102.0,6.55,-2.11,2.4,-2.63,-1.94,-4.26,49.25,-19.125,627.375,0.4627685546875,0.5423583984375,0.341064453125,0.0591,-5.5,-18.6875,-21.375,9.18,-0.16,moving,6
6.04,1673114.675315025,25,3,3,3,3,-26.0,4.02,-2.33,3.18,-5.15,-2.18,-4.63,47.1875,-15.75,626.75,0.4591064453125,0.544677734375,0.343505859375,0.0601,-6.1875,-16.375,-21.5,9.18,-0.14,moving,6
6.05,1673114.675315025,25,3,3,3,3,30.0,2.38,-2.57,3.76,-6.78,-2.45,-5.08,40.625,-12.4375,626.4375,0.45556640625,0.54632568359375,0.34600830078125,0.0601,-6.1875,-16.375,-21.625,9.17,-0.11,moving,6
6.06,1673114.700603681,25,3,3,3,3,106.0,-0.75,-1.78,4.53,-9.92,-1.69,-4.76,34.9375,-6.375,626.125,0.45263671875,0.54754638671875,0.3485107421875,0.0601,-6.1875,-16.375,-21.6875,9.17,-0.09,moving,6
6.07,1673114.700603681,25,3,3,3,3,90.0,-1.67,-1.53,4.37,-10.84,-1.42,-0.45,39.1875,-0.125,624.3125,0.4512939453125,0.549560546875,0.3502197265625,0.0601,-6.1875,-16.375,-21.6875,9.17,-0.11,moving,6
6.08,1673114.71462838,25,3,3,3,3,83.0,-2.22,-1.18,4.29,-11.39,-1.01,3.52,45.6875,3.25,621.0625,0.45123291015625,0.552490234375,0.35113525390625,0.0601,-6.1875,-16.375,-21.625,9.17,-0.17,moving,6
6.09,1673114.71462838,25,3,3,3,3,73.0,-2.3,-1.07,4.18,-11.48,-0.81,5.54,59.4375,7.9375,616.4375,0.45166015625,0.556396484375,0.35223388671875,0.0612,-6.875,-12.875,-21.5,9.17,-0.26,moving,6
6.1,1673114.728657229,25,3,3,3,3,-4.0,-2.18,-0.14,3.38,-11.36,0.22,4.8,93.5,9.125,610.25,0.4508056640625,0.56182861328125,0.35491943359375,0.0612,-6.875,-12.875,-21.375,9.18,-0.36,moving,6
6.11,1673114.728657229,25,3,3,3,3,-85.0,-1.63,1.18,2.56,-10.81,1.64,0.9,130.5625,-1.875,603.5,0.44696044921875,0.56878662109375,0.35968017578125,0.0612,-6.875,-12.875,-21.375,9.17,-0.45,moving,6
6.12,1673114.760132001,25,3,3,3,3,-167.0,-1.09,2.1,1.74,-10.26,2.63,-1.43,139.875,-8.0625,596.9375,0.441650390625,0.57598876953125,0.36517333984375,0.0612,-6.875,-12.875,-21.375,9.17,-0.52,moving,6
6.13,1673114.760132001,25,3,3,3,3,-187.0,-0.19,2.83,1.54,-9.36,3.42,-1.19,122.5,-7.625,591.125,0.43701171875,0.58221435546875,0.369873046875,0.0612,-6.875,-12.875,-21.375,9.17,-0.58,moving,6
6.14,1673114.77490434,25,3,3,3,3,-144.0,0.76,2.95,1.97,-8.4,3.59,0.14,90.25,-3.75,586.5,0.4339599609375,0.5869140625,0.373046875,0.0619,-7.6875,-10.5625,-21.3125,9.16,-0.64,moving,6
6.15,1673114.77490434,25,3,3,3,3,-103.0,0.92,2.39,2.38,-8.24,3.08,1.06,66.0625,-3.4375,582.875,0.43194580078125,0.59051513671875,0.37506103515625,0.0619,-7.6875,-10.5625,-21.3125,9.16,-0.69,moving,6
6.16,1673114.790070437,25,3,3,3,3,-113.0,1.31,1.7,2.28,-7.85,2.43,0.8,51.875,-4.5625,580.125,0.43023681640625,0.59344482421875,0.37652587890625,0.0619,-7.6875,-10.5625,-21.3125,9.16,-0.73,moving,6
6.17,1673114.790070437,25,3,3,3,3,-109.0,1.6,0.39,2.32,-7.55,1.15,0.2,43.0,-5.625,578.0,0.4285888671875,0.59576416015625,0.3778076171875,0.0619,-7.6875,-10.5625,-21.3125,9.15,-0.75,moving,6
6.18,1673114.819958987,25,3,3,3,3,-81.0,1.48,-0.13,2.6,-7.66,0.64,0.11,37.375,-6.9375,576.1875,0.42706298828125,0.597900390625,0.37884521484375,0.0619,-7.6875,-10.5625,-21.375,9.15,-0.78,moving,6
6.19,1673114.819958987,25,3,3,3,3,-69.0,1.22,-0.43,2.73,-7.92,0.36,0.6,30.5,-8.0,574.6875,0.42584228515625,0.59979248046875,0.37939453125,0.0623,-8.25,-4.375,-21.4375,9.15,-0.8,moving,6
6.2,1673114.83573218,25,3,3,3,3,-57.0,0.91,-0.63,2.86,-8.22,0.2,2.01,22.875,-7.5625,573.25,0.42529296875,0.60162353515625,0.3792724609375,0.0623,-8.25,-4.375,-21.5,9.14,-0.83,moving,6
6.21,1673114.83573218,25,3,3,3,3,-22.0,0.47,-1.15,3.22,-8.65,-0.26,3.7,15.3125,-5.9375,571.75,0.42559814453125,0.60333251953125,0.3782958984375,0.0623,-8.25,-4.375,-21.5,9.13,-0.88,moving,6
6.22,1673114.849128217,25,3,3,3,3,-17.0,0.46,-1.31,3.27,-8.66,-0.36,4.93,10.9375,-4.9375,570.125,0.42645263671875,0.60504150390625,0.37689208984375,0.0623,-8.25,-4.375,-21.5625,9.12,-0.94,moving,6
6.23,1673114.849128217,25,3,3,3,3,-11.0,0.5,-1.68,3.35,-8.61,-0.69,4.96,11.25,-5.5,568.5625,0.42730712890625,0.6068115234375,0.3753662109375,0.0623,-8.25,-4.375,-21.625,9.12,-0.99,moving,6
6.24,1673114.883025556,25,3,3,3,3,-25.0,0.48,-1.95,3.21,-8.62,-0.89,4.56,24.6875,-5.9375,566.3125,0.42755126953125,0.609130859375,0.37451171875,0.0627,-7.25,-2.875,-21.625,9.11,-1.05,moving,6
6.25,1673114.883025556,25,3,3,3,3,-115.0,1.73,-2.17,2.31,-7.36,-1.06,3.33,40.375,-8.5625,563.5625,0.42681884765625,0.61212158203125,0.37451171875,0.0627,-7.25,-2.875,-21.6875,9.1,-1.11,moving,6
6.26,1673114.897202354,25,3,3,3,3,-212.0,3.6,-1.85,1.35,-5.49,-0.68,2.28,56.5,-11.5625,560.3125,0.42498779296875,0.61572265625,0.37530517578125,0.0627,-7.25,-2.875,-21.6875,9.09,-1.17,moving,6
6.27,1673114.897202354,25,3,3,3,3,-339.0,6.55,-1.09,0.09,-2.52,0.13,2.01,70.4375,-15.375,556.5,0.4224853515625,0.6199951171875,0.37652587890625,0.0627,-7.25,-2.875,-21.75,9.08,-1.23,moving,6
6.28,1673114.909880618,25,3,3,3,3,-539.0,11.43,0.44,-1.88,2.36,1.75,2.84,76.6875,-22.875,552.3125,0.4195556640625,0.62506103515625,0.37725830078125,0.0627,-7.25,-2.875,-21.875,9.06,-1.3,moving,6
6.29,1673114.909880618,25,3,3,3,3,-1661.0,37.35,6.0,-13.07,28.31,7.39,3.49,68.4375,-30.9375,548.6875,0.4166259765625,0.630126953125,0.37713623046875,0.063,-6.0625,-1.25,-22.125,9.03,-1.38,moving,6
6.3,1673114.92433358,25,3,3,3,3,-1661.0,37.35,6.0,-13.07,28.31,7.39,3.49,68.4375,-30.9375,548.6875,0.4166259765625,0.630126953125,0.37713623046875,0.063,-6.0625,-1.25,-22.125,9.03,-1.38,moving,6
6.3,1673114.92433358,25,3,3,3,3,-2024.0,39.04,7.98,-16.68,30.0,9.33,-4.49,13.5,-14.0,549.5,0.41412353515625,0.63031005859375,0.3785400390625,0.063,-6.0625,-1.25,-22.1875,9.03,-1.34,moving,6
6.31,1673114.940194949,25,3,3,3,3,-1554.0,38.62,6.55,-11.93,29.56,7.58,-26.54,-90.875,-20.75,561.375,0.40814208984375,0.6212158203125,0.38336181640625,0.063,-6.0625,-1.25,-22.5625,9.05,-1.02,moving,6
6.32,1673114.940194949,25,3,3,3,3,-1361.0,37.73,-7.33,-9.92,28.67,-6.73,-37.04,-99.875,-41.375,576.625,0.39801025390625,0.61004638671875,0.3902587890625,0.063,-6.0625,-1.25,-23.0625,9.06,-0.59,moving,6
6.33,1673114.96998926,25,3,3,3,3,-1270.0,38.32,-0.31,-9.0,29.25,-0.06,-30.21,-71.3125,-6.3125,587.375,0.39080810546875,0.6002197265625,0.39752197265625,0.063,-6.0625,-1.25,-23.125,9.07,-0.25,moving,6
6.34,1673114.96998926,25,3,3,3,3,-889.0,29.4,-4.11,-5.21,20.31,-4.14,-22.19,-92.5,21.8125,596.375,0.38812255859375,0.58990478515625,0.40264892578125,0.063,-4.5625,-0.5,-22.9375,9.09,0.02,moving,6
6.35,1673114.984475141,25,3,3,3,3,-551.0,22.31,-4.27,-1.85,13.21,-4.39,-11.5,29.75,12.1875,596.875,0.384033203125,0.58843994140625,0.40802001953125,0.063,-4.5625,-0.5,-22.8125,9.09,0.12,moving,6
6.36,1673114.984475141,25,3,3,3,3,-495.0,14.76,-2.46,-1.33,5.64,-2.57,-1.45,47.8125,21.9375,593.875,0.38299560546875,0.58984375,0.41119384765625,0.063,-4.5625,-0.5,-22.5625,9.11,0.1,moving,6
6.37,1673114.999633873,25,3,3,3,3,-467.0,11.16,-1.66,-1.1,2.02,-1.76,1.17,-2.375,31.1875,592.5625,0.38507080078125,0.5888671875,0.412353515625,0.063,-4.5625,-0.5,-22.25,9.13,0.09,moving,6
6.38,1673114.999633873,25,3,3,3,3,-388.0,9.77,-2.09,-0.35,0.62,-2.14,3.71,8.0,24.5625,590.4375,0.38720703125,0.58929443359375,0.41265869140625,0.063,-4.5625,-0.5,-22.0625,9.14,0.05,moving,6
6.39,1673115.030321454,25,3,3,3,3,-341.0,7.19,-2.4,0.08,-1.96,-2.42,1.72,27.8125,19.9375,587.875,0.38775634765625,0.59039306640625,0.4140625,0.063,-4.5,-2.375,-21.8125,9.16,0.02,moving,6
6.4,1673115.030321454,25,3,3,3,3,-305.0,1.82,-0.92,0.4,-7.34,-0.95,-2.58,27.0,22.0625,586.1875,0.38714599609375,0.59039306640625,0.41693115234375,0.063,-4.5,-2.375,-21.625,9.17,0.03,moving,6
6.41,1673115.045396812,25,3,3,3,3,-239.0,-0.37,-0.45,1.02,-9.56,-0.49,-1.45,15.6875,28.625,584.625,0.3875732421875,0.58984375,0.41937255859375,0.063,-4.5,-2.375,-21.3125,9.19,0.03,moving,6
6.42,1673115.045396812,25,3,3,3,3,-62.0,-2.13,-0.75,2.74,-11.34,-0.77,1.4,1.25,30.1875,583.125,0.3895263671875,0.5892333984375,0.42047119140625,0.063,-4.5,-2.375,-21.0,9.2,0.02,moving,6
6.43,1673115.060397992,25,3,3,3,3,121.0,-3.6,-0.79,4.54,-12.82,-0.76,5.06,3.3125,26.6875,580.875,0.392333984375,0.58966064453125,0.4202880859375,0.063,-4.5,-2.375,-20.75,9.22,-0.03,moving,6
6.44,1673115.060397992,25,3,3,3,3,233.0,-5.42,-1.45,5.62,-14.66,-1.29,11.66,10.375,22.5,576.875,0.396728515625,0.592041015625,0.41802978515625,0.0643,-6.25,-0.0625,-20.5,9.23,-0.15,moving,6
6.45,1673115.090538495,25,3,3,3,3,180.0,-6.07,-2.3,5.08,-15.31,-1.96,17.04,24.8125,10.625,571.375,0.40155029296875,0.59674072265625,0.41387939453125,0.0643,-6.25,-0.0625,-20.4375,9.23,-0.34,moving,6
6.46,1673115.090538495,25,3,3,3,3,127.0,-5.58,-0.93,4.54,-14.81,-0.38,18.44,51.25,-0.625,564.5,0.4052734375,0.6033935546875,0.40960693359375,0.0643,-6.25,-0.0625,-20.375,9.22,-0.55,moving,6
6.47,1673115.106444542,25,3,3,3,3,-76.0,-3.71,1.91,2.5,-12.93,2.69,17.42,85.875,-3.1875,556.0,0.4072265625,0.6114501953125,0.40673828125,0.0643,-6.25,-0.0625,-20.375,9.21,-0.77,moving,6
6.48,1673115.106444542,25,3,3,3,3,-265.0,1.62,5.93,0.61,-7.56,6.87,11.61,68.75,-11.0,550.0,0.40765380859375,0.61767578125,0.40478515625,0.0643,-6.25,-0.0625,-20.4375,9.19,-0.93,moving,6
6.49,1673115.122683881,25,3,3,3,3,-226.0,2.29,5.47,1.01,-6.89,6.47,5.23,30.8125,-11.5,547.5625,0.407470703125,0.62066650390625,0.403564453125,0.0637,-8.875,-0.5,-20.5,9.18,-1.0,moving,6
6.5,1673115.122683881,25,3,3,3,3,-172.0,2.56,4.86,1.56,-6.61,5.89,1.49,16.375,-7.375,546.5625,0.40692138671875,0.62200927734375,0.4033203125,0.0637,-8.875,-0.5,-20.5625,9.17,-1.02,moving,6
6.51,1673115.149922488,25,3,3,3,3,-92.0,2.44,2.57,2.36,-6.73,3.61,0.11,5.875,-1.8125,546.3125,0.4066162109375,0.62237548828125,0.40338134765625,0.0637,-8.875,-0.5,-20.5625,9.17,-1.03,moving,6
6.52,1673115.149922488,25,3,3,3,3,-69.0,2.07,1.28,2.59,-7.1,2.33,1.25,1.1875,3.375,545.8125,0.4071044921875,0.62255859375,0.4031982421875,0.0637,-8.875,-0.5,-20.5,9.17,-1.04,moving,6
6.53,1673115.164694867,25,3,3,3,3,-55.0,1.49,0.42,2.72,-7.68,1.49,2.27,0.75,6.125,545.0625,0.4080810546875,0.62286376953125,0.4027099609375,0.0637,-8.875,-0.5,-20.4375,9.18,-1.06,moving,6
6.54,1673115.164694867,25,3,3,3,3,-48.0,0.99,-0.36,2.77,-8.18,0.72,2.15,-1.0625,6.75,544.375,0.4090576171875,0.623046875,0.40228271484375,0.063,-8.875,4.0625,-20.375,9.18,-1.08,moving,6
6.55,1673115.180768476,25,3,3,3,3,-48.0,0.99,-0.36,2.77,-8.18,0.72,2.15,-1.0625,6.75,544.375,0.4090576171875,0.623046875,0.40228271484375,0.063,-8.875,4.0625,-20.375,9.18,-1.08,moving,6
6.55,1673115.180768476,25,3,3,3,3,-47.0,0.0,-1.47,2.77,-9.18,-0.36,1.65,-2.625,7.1875,543.9375,0.4100341796875,0.62298583984375,0.4019775390625,0.063,-8.875,4.0625,-20.3125,9.18,-1.1,moving,6
6.56,1673115.194965009,25,3,3,3,3,-37.0,-0.28,-1.89,2.86,-9.47,-0.78,1.47,-0.6875,5.875,543.4375,0.41082763671875,0.623046875,0.4017333984375,0.063,-8.875,4.0625,-20.25,9.18,-1.11,moving,6
6.57,1673115.194965009,25,3,3,3,3,-26.0,-0.44,-2.21,2.97,-9.63,-1.07,1.62,3.8125,2.1875,542.75,0.4112548828125,0.62353515625,0.40142822265625,0.063,-8.875,4.0625,-20.25,9.18,-1.13,moving,6
6.58,1673115.210404625,25,3,3,3,3,-30.0,-0.44,-2.48,2.93,-9.63,-1.33,1.84,7.4375,-1.0625,542.0,0.41143798828125,0.62432861328125,0.4010009765625,0.063,-8.875,4.0625,-20.25,9.18,-1.15,moving,6
6.59,1673115.210404625,25,3,3,3,3,-32.0,-0.1,-2.41,2.92,-9.28,-1.23,2.13,10.0625,-4.375,541.125,0.41143798828125,0.6253662109375,0.40045166015625,0.0645,-8.875,3.375,-20.25,9.17,-1.18,moving,6
6.6,1673115.240092247,25,3,3,3,3,-38.0,0.74,-2.18,2.87,-8.42,-0.96,2.55,9.875,-8.625,540.3125,0.411376953125,0.626708984375,0.3995361328125,0.0645,-8.875,3.375,-20.375,9.16,-1.21,moving,6
6.61,1673115.240092247,25,3,3,3,3,-78.0,2.29,-1.79,2.49,-6.85,-0.53,3.43,9.4375,-12.9375,539.4375,0.41131591796875,0.62835693359375,0.39813232421875,0.0645,-8.875,3.375,-20.5,9.15,-1.25,moving,6
6.62,1673115.254705813,25,3,3,3,3,-159.0,4.8,-1.14,1.7,-4.33,0.16,4.59,9.6875,-15.5,538.375,0.41143798828125,0.63031005859375,0.39617919921875,0.0645,-8.875,3.375,-20.625,9.14,-1.3,moving,6
6.63,1673115.254705813,25,3,3,3,3,-502.0,13.17,2.07,-1.7,4.05,3.44,5.9,8.4375,-16.25,537.125,0.41192626953125,0.632568359375,0.3936767578125,0.0645,-8.875,3.375,-20.75,9.12,-1.36,moving,6
6.64,1673115.269368533,25,3,3,3,3,-1021.0,25.59,4.49,-6.87,16.49,5.96,8.62,27.4375,-12.5625,534.0625,0.4127197265625,0.6361083984375,0.39111328125,0.064,-7.5,3.0,-20.875,9.1,-1.47,moving,6
6.65,1673115.269368533,25,3,3,3,3,-1948.0,39.04,6.71,-16.14,29.95,8.22,4.69,-19.625,-1.9375,534.1875,0.41461181640625,0.63629150390625,0.38873291015625,0.064,-7.5,3.0,-20.875,9.09,-1.5,moving,6
6.66,1673115.301438723,25,3,3,3,3,-1125.0,34.6,5.71,-7.84,25.48,6.89,-23.2,-160.0625,-11.6875,549.0,0.4127197265625,0.6243896484375,0.390380859375,0.064,-7.5,3.0,-21.25,9.12,-1.18,moving,6
6.67,1673115.301438723,25,3,3,3,3,-1236.0,28.79,-6.22,-8.84,19.66,-5.62,-47.56,-174.75,-59.625,571.5,0.40130615234375,0.60797119140625,0.39727783203125,0.064,-7.5,3.0,-22.0,9.13,-0.6,moving,6
6.68,1673115.315494225,25,3,3,3,3,-1864.0,39.04,-10.89,-15.02,29.93,-10.81,-51.16,-20.3125,-56.6875,585.875,0.38323974609375,0.59759521484375,0.41064453125,0.064,-7.5,3.0,-22.5625,9.11,-0.07,moving,6
6.69,1673115.315494225,25,3,3,3,3,-1663.0,38.61,-10.03,-12.99,29.51,-10.31,-34.62,-21.3125,-13.625,594.8125,0.3724365234375,0.589111328125,0.42041015625,0.064,-5.5625,1.5,-22.75,9.1,0.27,moving,6
6.7,1673115.33014197,25,3,3,3,3,-581.0,24.29,-5.97,-2.16,15.2,-6.37,-10.18,-39.9375,-5.5,599.25,0.370361328125,0.5849609375,0.422119140625,0.064,-5.5625,1.5,-22.75,9.09,0.4,moving,6
6.71,1673115.33014197,25,3,3,3,3,-438.0,21.58,-3.84,-0.76,12.47,-4.15,9.62,0.125,18.125,596.625,0.37432861328125,0.5865478515625,0.41998291015625,0.064,-5.5625,1.5,-22.5625,9.1,0.31,moving,6
6.72,1673115.364225507,25,3,3,3,3,-349.0,18.41,-2.53,0.08,9.28,-2.67,15.3,15.6875,25.75,591.5625,0.37994384765625,0.5899658203125,0.4168701171875,0.064,-5.5625,1.5,-22.3125,9.12,0.14,moving,6
6.73,1673115.364225507,25,3,3,3,3,-417.0,14.8,-0.42,-0.63,5.65,-0.4,14.74,30.0625,23.1875,586.0,0.3846435546875,0.59405517578125,0.414306640625,0.064,-5.5625,1.5,-22.125,9.14,-0.01,moving,6
6.74,1673115.382852216,25,3,3,3,3,-267.0,10.19,-1.84,0.85,1.03,-1.7,9.91,35.1875,11.25,581.5625,0.3870849609375,0.59765625,0.412841796875,0.0637,-4.5,-2.0,-22.0,9.15,-0.13,moving,6
6.75,1673115.382852216,25,3,3,3,3,-290.0,6.11,-1.46,0.6,-3.04,-1.26,3.75,44.25,9.0,578.0625,0.3870849609375,0.60040283203125,0.41351318359375,0.0637,-4.5,-2.0,-21.875,9.15,-0.2,moving,6
6.76,1673115.39564075,25,3,3,3,3,-291.0,2.2,-0.89,0.57,-6.95,-0.67,-0.06,34.6875,9.4375,575.8125,0.3863525390625,0.601806640625,0.4151611328125,0.0637,-4.5,-2.0,-21.8125,9.16,-0.22,moving,6
6.77,1673115.39564075,25,3,3,3,3,-227.0,-0.44,-0.62,1.2,-9.61,-0.38,0.99,8.8125,10.3125,574.75,0.3868408203125,0.60211181640625,0.4156494140625,0.0637,-4.5,-2.0,-21.6875,9.16,-0.23,moving,6
6.78,1673115.420217817,25,3,3,3,3,8.0,-3.95,-0.76,3.53,-13.12,-0.47,5.61,-13.9375,14.8125,573.75,0.389892578125,0.6021728515625,0.4140625,0.0637,-4.5,-2.0,-21.5625,9.17,-0.28,moving,6
6.79,1673115.420217817,25,3,3,3,3,54.0,-5.07,-1.0,3.96,-14.25,-0.62,10.91,-22.5625,20.625,571.8125,0.39508056640625,0.60284423828125,0.41070556640625,0.064,-6.25,0.5625,-21.3125,9.18,-0.38,moving,6
6.8,1673115.434103885,25,3,3,3,3,92.0,-6.35,-0.93,4.32,-15.54,-0.43,13.03,-19.5,15.3125,569.375,0.40057373046875,0.604248046875,0.40643310546875,0.064,-6.25,0.5625,-21.1875,9.18,-0.5,moving,6
6.81,1673115.434103885,25,3,3,3,3,92.0,-6.35,-0.93,4.32,-15.54,-0.43,13.03,-19.5,15.3125,569.375,0.40057373046875,0.604248046875,0.40643310546875,0.064,-6.25,0.5625,-21.1875,9.18,-0.5,moving,6
6.81,1673115.449704308,25,3,3,3,3,135.0,-7.56,-1.18,4.75,-16.73,-0.54,12.15,15.375,-2.0625,565.9375,0.403564453125,0.6077880859375,0.40289306640625,0.064,-6.25,0.5625,-21.1875,9.17,-0.63,moving,6
6.82,1673115.449704308,25,3,3,3,3,84.0,-6.32,-0.11,4.25,-15.48,0.65,7.87,87.3125,-15.125,559.9375,0.40203857421875,0.6142578125,0.402587890625,0.064,-6.25,0.5625,-21.3125,9.16,-0.76,moving,6
6.83,1673115.464668256,25,3,3,3,3,-63.0,-4.32,2.23,2.79,-13.46,3.11,3.09,138.875,-24.6875,552.4375,0.396728515625,0.62237548828125,0.40521240234375,0.064,-6.25,0.5625,-21.4375,9.14,-0.87,moving,6
6.84,1673115.464668256,25,3,3,3,3,-225.0,-1.88,3.99,1.19,-11.01,4.99,4.24,135.125,-25.9375,544.875,0.39178466796875,0.63055419921875,0.40716552734375,0.0637,-8.5,-0.0625,-21.5625,9.12,-1.0,moving,6
6.85,1673115.481510989,25,3,3,3,3,-317.0,1.94,6.22,0.3,-7.16,7.31,4.8,65.0625,-22.375,541.0,0.38958740234375,0.6353759765625,0.40667724609375,0.0637,-8.5,-0.0625,-21.6875,9.1,-1.08,moving,6
6.86,1673115.481510989,25,3,3,3,3,-196.0,2.65,4.49,1.53,-6.43,5.63,5.35,-1.3125,-12.5625,540.375,0.3905029296875,0.63690185546875,0.4041748046875,0.0637,-8.5,-0.0625,-21.8125,9.09,-1.14,moving,6
6.87,1673115.509650353,25,3,3,3,3,-95.0,2.89,2.65,2.55,-6.19,3.81,3.51,-36.1875,-5.5625,541.875,0.3924560546875,0.63623046875,0.4014892578125,0.0637,-8.5,-0.0625,-21.9375,9.08,-1.15,moving,6
6.88,1673115.509650353,25,3,3,3,3,-56.0,2.85,1.08,2.95,-6.22,2.23,1.46,-34.625,-3.375,543.625,0.3939208984375,0.63507080078125,0.39959716796875,0.0637,-8.5,-0.0625,-22.0,9.07,-1.14,moving,6
6.89,1673115.52458651,25,3,3,3,3,-19.0,1.8,-0.46,3.33,-7.27,0.69,1.98,-13.0,0.125,543.9375,0.3948974609375,0.6348876953125,0.3984375,0.0634,-8.875,4.0625,-22.0,9.07,-1.15,moving,6
6.9,1673115.52458651,25,3,3,3,3,5.0,1.26,-0.94,3.57,-7.8,0.24,3.54,-0.375,3.25,543.0625,0.3961181640625,0.63555908203125,0.39739990234375,0.0634,-8.875,4.0625,-22.0,9.07,-1.19,moving,6
6.91,1673115.539750532,25,3,3,3,3,29.0,0.83,-1.39,3.8,-8.23,-0.14,5.22,-1.375,5.8125,541.8125,0.39801025390625,0.63641357421875,0.39581298828125,0.0634,-8.875,4.0625,-21.9375,9.07,-1.24,moving,6
6.92,1673115.539750532,25,3,3,3,3,48.0,0.43,-1.74,3.98,-8.62,-0.44,5.91,-6.75,6.75,540.625,0.4002685546875,0.63714599609375,0.393798828125,0.0634,-8.875,4.0625,-21.875,9.06,-1.29,moving,6
6.93,1673115.570192386,25,3,3,3,3,14.0,-0.4,-1.96,3.64,-9.46,-0.61,5.52,-6.5625,6.75,539.5625,0.4024658203125,0.63775634765625,0.3919677734375,0.0634,-8.875,4.0625,-21.8125,9.06,-1.34,moving,6
6.94,1673115.570192386,25,3,3,3,3,-11.0,-0.69,-1.56,3.37,-9.75,-0.17,4.73,4.5,6.0,538.0,0.40399169921875,0.6387939453125,0.3907470703125,0.0637,-8.0625,3.375,-21.75,9.05,-1.39,moving,6
6.95,1673115.584508385,25,3,3,3,3,-35.0,-0.87,-1.18,3.12,-9.93,0.25,3.42,15.25,3.8125,536.25,0.4046630859375,0.64007568359375,0.3902587890625,0.0637,-8.0625,3.375,-21.6875,9.05,-1.44,moving,6
6.96,1673115.584508385,25,3,3,3,3,-46.0,-0.82,-0.82,3.0,-9.88,0.65,2.65,26.3125,2.625,534.0625,0.4046630859375,0.64178466796875,0.390380859375,0.0637,-8.0625,3.375,-21.625,9.05,-1.48,moving,6
6.97,1673115.600676964,25,3,3,3,3,-58.0,0.11,-0.5,2.87,-8.93,1.01,1.85,31.5,1.25,531.75,0.4041748046875,0.6435546875,0.390869140625,0.0637,-8.0625,3.375,-21.5625,9.05,-1.52,moving,6
6.98,1673115.600676964,25,3,3,3,3,-77.0,1.0,-0.42,2.67,-8.04,1.12,1.17,33.5,-0.375,529.5625,0.40338134765625,0.64532470703125,0.39166259765625,0.0637,-8.0625,3.375,-21.5,9.04,-1.55,moving,6
6.99,1673115.63191138,25,3,3,3,3,-139.0,2.54,-0.18,2.04,-6.5,1.4,0.75,35.625,-3.4375,527.5,0.40216064453125,0.647216796875,0.3924560546875,0.064,-7.0625,4.5,-21.5,9.04,-1.58,moving,6
7.0,1673115.63191138,25,3,3,3,3,-362.0,7.53,1.56,-0.17,-1.5,3.17,1.04,33.8125,-6.75,525.5625,0.40087890625,0.649169921875,0.39300537109375,0.064,-7.0625,4.5,-21.5,9.03,-1.61,moving,6
7.01,1673115.645226565,25,3,3,3,3,-508.0,10.91,4.77,-1.63,1.88,6.42,2.53,37.0625,-6.1875,523.0625,0.39996337890625,0.651611328125,0.39306640625,0.064,-7.0625,4.5,-21.5,9.03,-1.65,moving,6
7.02,1673115.645226565,25,3,3,3,3,-1677.0,34.06,5.12,-13.37,25.04,6.91,8.13,87.25,7.4375,515.875,0.399658203125,0.656982421875,0.3935546875,0.064,-7.0625,4.5,-21.25,9.01,-1.79,moving,6
7.03,1673115.675511111,25,3,3,3,3,-2293.0,39.04,9.53,-19.49,30.02,11.27,-3.09,-35.375,-13.0625,519.125,0.39923095703125,0.6551513671875,0.39288330078125,0.064,-7.0625,4.5,-21.4375,9.01,-1.73,moving,6
7.04,1673115.675511111,25,3,3,3,3,-1032.0,30.89,4.87,-6.77,21.84,6.17,-34.23,-169.0625,-42.125,538.0,0.39300537109375,0.64166259765625,0.397216796875,0.064,-6.0,4.5,-22.1875,9.04,-1.29,moving,6
7.05,1673115.692832685,25,3,3,3,3,-1501.0,36.36,-5.9,-11.3,27.31,-5.26,-55.34,-171.25,-85.9375,562.75,0.3780517578125,0.6243896484375,0.40655517578125,0.064,-6.0,4.5,-23.1875,9.05,-0.64,moving,6
7.06,1673115.692832685,25,3,3,3,3,-1933.0,39.04,-18.51,-15.54,30.0,-18.53,-62.75,-76.375,-43.625,581.5,0.35931396484375,0.60784912109375,0.42303466796875,0.064,-6.0,4.5,-23.625,9.04,0.02,moving,6
7.07,1673115.708003543,25,3,3,3,3,-1933.0,39.04,-18.51,-15.54,30.0,-18.53,-62.75,-76.375,-43.625,581.5,0.35931396484375,0.60784912109375,0.42303466796875,0.064,-6.0,4.5,-23.625,9.04,0.02,moving,6
7.08,1673115.708003543,25,3,3,3,3,-755.0,38.03,-19.48,-3.76,28.99,-19.94,-41.35,-31.8125,-2.1875,591.4375,0.34747314453125,0.5966796875,0.43548583984375,0.064,-6.0,4.5,-23.6875,9.03,0.45,moving,6
7.08,1673115.719583336,25,3,3,3,3,-775.0,25.05,-5.86,-3.95,16.03,-6.44,-13.6,7.5,-9.4375,594.0625,0.3424072265625,0.59405517578125,0.43963623046875,0.064,-6.0,4.5,-23.75,9.01,0.58,moving,6
7.09,1673115.719583336,25,3,3,3,3,-773.0,23.15,-3.58,-3.95,14.11,-4.07,10.64,-9.125,19.3125,591.75,0.34710693359375,0.5955810546875,0.4368896484375,0.0654,-2.25,1.0,-23.5625,9.03,0.48,moving,6
7.1,1673115.735223188,25,3,3,3,3,-745.0,21.38,-1.71,-3.72,12.31,-1.97,22.24,2.1875,32.4375,586.0,0.35565185546875,0.5999755859375,0.43133544921875,0.0654,-2.25,1.0,-23.25,9.06,0.26,moving,6
7.11,1673115.735223188,25,3,3,3,3,-524.0,16.95,-0.15,-1.55,7.86,-0.18,21.64,33.5,25.6875,578.875,0.36248779296875,0.60589599609375,0.426513671875,0.0654,-2.25,1.0,-23.0,9.08,0.02,moving,6
7.12,1673115.750639977,25,3,3,3,3,-421.0,10.65,-0.44,-0.55,1.55,-0.29,14.82,54.6875,13.5,572.375,0.36572265625,0.611572265625,0.42401123046875,0.0654,-2.25,1.0,-22.875,9.09,-0.15,moving,6
7.13,1673115.750639977,25,3,3,3,3,-469.0,5.98,-0.52,-1.05,-3.12,-0.23,9.59,62.3125,13.5,566.4375,0.3670654296875,0.61639404296875,0.42340087890625,0.0654,-2.25,1.0,-22.6875,9.1,-0.28,moving,6
7.14,1673115.779466637,25,3,3,3,3,-449.0,2.63,-0.35,-0.86,-6.46,0.01,6.05,45.0625,6.875,562.4375,0.3675537109375,0.6197509765625,0.42315673828125,0.065,-3.6875,1.0,-22.625,9.1,-0.37,moving,6
7.15,1673115.779466637,25,3,3,3,3,-189.0,-2.32,0.2,1.72,-11.42,0.63,4.71,7.0,6.625,560.875,0.36907958984375,0.6209716796875,0.42205810546875,0.065,-3.6875,1.0,-22.5625,9.1,-0.42,moving,6
7.16,1673115.79685421,25,3,3,3,3,-32.0,-3.4,-0.31,3.27,-12.51,0.16,7.13,-30.875,8.9375,560.75,0.372802734375,0.620849609375,0.4190673828125,0.065,-3.6875,1.0,-22.5,9.1,-0.48,moving,6
7.17,1673115.79685421,25,3,3,3,3,133.0,-3.92,-0.48,4.93,-13.02,0.06,9.59,-52.9375,8.125,561.375,0.3780517578125,0.62030029296875,0.41448974609375,0.065,-3.6875,1.0,-22.4375,9.1,-0.54,moving,6
7.18,1673115.810584516,25,3,3,3,3,225.0,-4.32,-0.98,5.85,-13.42,-0.36,10.63,-49.5625,3.3125,561.75,0.3831787109375,0.62017822265625,0.40936279296875,0.065,-3.6875,1.0,-22.4375,9.1,-0.61,moving,6
7.19,1673115.810584516,25,3,3,3,3,262.0,-4.89,-1.52,6.22,-13.98,-0.8,11.39,-17.875,-4.625,560.4375,0.386962890625,0.62200927734375,0.4046630859375,0.0642,-5.875,4.0625,-22.5,9.09,-0.71,moving,6
7.2,1673115.840820804,25,3,3,3,3,181.0,-5.45,-0.87,5.42,-14.53,-0.02,11.22,31.6875,-5.5625,556.4375,0.388916015625,0.626220703125,0.40167236328125,0.0642,-5.875,4.0625,-22.5625,9.07,-0.85,moving,6
7.21,1673115.840820804,25,3,3,3,3,103.0,-5.62,-0.18,4.64,-14.69,0.8,9.83,67.5625,-1.8125,550.5625,0.38934326171875,0.63165283203125,0.40045166015625,0.0642,-5.875,4.0625,-22.5,9.06,-0.99,moving,6
7.22,1673115.855088748,25,3,3,3,3,54.0,-4.95,1.13,4.13,-14.0,2.27,9.22,91.25,-1.875,543.4375,0.38873291015625,0.63800048828125,0.4002685546875,0.0642,-5.875,4.0625,-22.375,9.05,-1.13,moving,6
7.23,1673115.855088748,25,3,3,3,3,-85.0,0.23,3.84,2.72,-8.8,5.11,8.36,80.125,-6.0,537.25,0.38800048828125,0.64373779296875,0.3997802734375,0.0642,-5.875,4.0625,-22.375,9.03,-1.27,moving,6
7.24,1673115.869465864,25,3,3,3,3,-115.0,1.45,5.02,2.42,-7.57,6.41,7.69,60.625,-3.375,532.25,0.38787841796875,0.64825439453125,0.39892578125,0.0646,-7.6875,4.5,-22.3125,9.02,-1.38,moving,6
7.25,1673115.869465864,25,3,3,3,3,-126.0,1.83,5.06,2.3,-7.18,6.52,5.04,29.375,2.5,529.3125,0.388427734375,0.650634765625,0.39825439453125,0.0646,-7.6875,4.5,-22.25,9.02,-1.45,moving,6
7.26,1673115.902382856,25,3,3,3,3,-140.0,2.16,4.48,2.14,-6.85,5.97,2.4,12.9375,5.3125,527.875,0.388916015625,0.65155029296875,0.3980712890625,0.0646,-7.6875,4.5,-22.1875,9.01,-1.48,moving,6
7.27,1673115.902382856,25,3,3,3,3,-172.0,1.71,2.93,1.8,-7.3,4.42,0.17,11.625,6.375,526.9375,0.388916015625,0.65191650390625,0.398681640625,0.0646,-7.6875,4.5,-22.0625,9.02,-1.49,moving,6
7.28,1673115.916099327,25,3,3,3,3,-151.0,1.39,2.04,2.0,-7.62,3.54,-0.64,12.3125,8.0625,526.0625,0.38873291015625,0.65203857421875,0.399658203125,0.0646,-7.6875,4.5,-22.0,9.02,-1.49,moving,6
7.29,1673115.916099327,25,3,3,3,3,-113.0,1.26,1.12,2.37,-7.76,2.62,-0.16,7.375,9.375,525.375,0.38897705078125,0.65203857421875,0.400390625,0.0655,-6.25,7.5,-21.875,9.03,-1.49,moving,6
7.3,1673115.929416385,25,3,3,3,3,-55.0,0.75,-0.38,2.93,-8.28,1.11,0.41,1.625,9.625,524.875,0.38958740234375,0.65185546875,0.4007568359375,0.0655,-6.25,7.5,-21.8125,9.03,-1.5,moving,6
7.31,1673115.929416385,25,3,3,3,3,-49.0,0.5,-0.93,2.97,-8.54,0.57,0.79,0.6875,8.5,524.375,0.3902587890625,0.65179443359375,0.40087890625,0.0655,-6.25,7.5,-21.6875,9.04,-1.51,moving,6
7.32,1673115.965236006,25,3,3,3,3,-52.0,0.31,-1.2,2.93,-8.72,0.32,1.42,3.1875,6.75,523.625,0.390869140625,0.65203857421875,0.4007568359375,0.0655,-6.25,7.5,-21.625,9.04,-1.52,moving,6
7.33,1673115.965236006,25,3,3,3,3,-56.0,0.23,-1.27,2.89,-8.8,0.27,2.22,7.9375,4.75,522.5,0.3914794921875,0.6527099609375,0.40045166015625,0.0655,-6.25,7.5,-21.5625,9.04,-1.55,moving,6
7.34,1673115.974906253,25,3,3,3,3,-37.0,0.18,-1.61,3.07,-8.85,-0.02,2.26,8.875,2.375,521.4375,0.3919677734375,0.65350341796875,0.4000244140625,0.0643,-7.0625,7.5,-21.5625,9.04,-1.58,moving,6
7.35,1673115.974906253,25,3,3,3,3,-34.0,0.24,-1.58,3.09,-8.79,0.03,2.36,17.5,1.1875,519.875,0.39202880859375,0.65478515625,0.39984130859375,0.0643,-7.0625,7.5,-21.5,9.03,-1.61,moving,6
7.36,1673115.991520104,25,3,3,3,3,-35.0,0.49,-1.54,3.09,-8.53,0.1,2.05,26.5,-1.75,517.9375,0.3916015625,0.65643310546875,0.39990234375,0.0643,-7.0625,7.5,-21.5,9.03,-1.65,moving,6
7.37,1673115.991520104,25,3,3,3,3,-35.0,0.49,-1.54,3.09,-8.53,0.1,2.05,26.5,-1.75,517.9375,0.3916015625,0.65643310546875,0.39990234375,0.0643,-7.0625,7.5,-21.5,9.03,-1.65,moving,6
7.38,1673116.005351606,25,3,3,3,3,-38.0,0.86,-1.42,3.05,-8.15,0.26,1.82,27.875,-4.4375,516.0625,0.39080810546875,0.65826416015625,0.4000244140625,0.0643,-7.0625,7.5,-21.4375,9.02,-1.68,moving,6
7.38,1673116.005351606,25,3,3,3,3,-119.0,2.99,-0.65,2.25,-6.02,1.06,1.7,26.5625,-7.3125,514.375,0.38995361328125,0.6600341796875,0.39996337890625,0.0643,-7.0625,7.5,-21.5,9.01,-1.71,moving,6
7.39,1673116.019644738,25,3,3,3,3,-229.0,5.44,0.2,1.15,-3.57,1.94,1.28,22.875,-10.5,513.125,0.38885498046875,0.66168212890625,0.3997802734375,0.064,-6.25,9.0625,-21.5625,9.01,-1.74,moving,6
7.4,1673116.019644738,25,3,3,3,3,-402.0,8.65,1.73,-0.55,-0.34,3.51,1.44,17.4375,-11.375,512.1875,0.38800048828125,0.66314697265625,0.39935302734375,0.064,-6.25,9.0625,-21.625,9.0,-1.77,moving,6
7.41,1673116.0508949,25,3,3,3,3,-621.0,13.25,5.06,-2.74,4.25,6.87,2.88,18.375,-3.3125,510.625,0.387939453125,0.6646728515625,0.3988037109375,0.064,-6.25,9.0625,-21.625,8.99,-1.81,moving,6
7.42,1673116.0508949,25,3,3,3,3,-1982.0,39.04,8.18,-16.36,30.05,10.03,2.03,20.5,5.75,508.8125,0.38812255859375,0.66583251953125,0.39898681640625,0.064,-6.25,9.0625,-21.5625,8.99,-1.84,moving,6
7.43,1673116.065307091,25,3,3,3,3,-1586.0,38.16,7.42,-12.32,29.15,8.97,-21.9,-119.625,-31.0625,521.6875,0.38446044921875,0.65679931640625,0.4014892578125,0.064,-6.25,9.0625,-22.0625,9.01,-1.55,moving,6
7.44,1673116.065307091,25,3,3,3,3,-1290.0,37.83,4.69,-9.21,28.79,5.68,-48.69,-139.9375,-74.875,542.875,0.371337890625,0.64215087890625,0.41070556640625,0.064,-4.5,8.6875,-23.0,9.03,-0.98,moving,6
7.45,1673116.095477379,25,3,3,3,3,-1598.0,39.04,-6.93,-12.22,29.99,-6.7,-68.06,-139.125,-41.375,566.0625,0.35406494140625,0.621337890625,0.42779541015625,0.064,-4.5,8.6875,-23.5,9.05,-0.22,moving,6
7.46,1673116.095477379,25,3,3,3,3,-1050.0,36.12,-22.59,-6.71,27.08,-22.93,-54.31,-36.0,-12.0,579.0,0.33819580078125,0.60699462890625,0.4443359375,0.064,-4.5,8.6875,-23.625,9.04,0.33,moving,6
7.47,1673116.110414676,25,3,3,3,3,-1199.0,25.01,-6.54,-8.13,16.01,-7.06,-23.37,69.25,-42.3125,581.3125,0.32598876953125,0.60595703125,0.45196533203125,0.064,-4.5,8.6875,-24.0625,9.0,0.52,moving,6
7.48,1673116.110414676,25,3,3,3,3,-917.0,22.38,-5.33,-5.29,13.38,-5.72,14.42,-16.8125,-13.625,580.125,0.33038330078125,0.6090087890625,0.446044921875,0.064,-4.5,8.6875,-24.1875,8.99,0.39,moving,6
7.49,1673116.124633792,25,3,3,3,3,-826.0,20.15,1.36,-4.39,11.13,1.27,32.36,-24.25,5.875,575.1875,0.341552734375,0.61541748046875,0.434814453125,0.0646,-1.875,5.875,-24.125,9.01,0.08,moving,6
7.5,1673116.124633792,25,3,3,3,3,-766.0,17.21,3.36,-3.78,8.21,3.58,28.28,41.5625,-7.25,567.75,0.34820556640625,0.62432861328125,0.4261474609375,0.0646,-1.875,5.875,-24.1875,9.0,-0.21,moving,6
7.51,1673116.140070967,25,3,3,3,3,-461.0,12.52,1.77,-0.71,3.53,2.17,16.31,32.0625,-16.0,563.375,0.35107421875,0.630126953125,0.4207763671875,0.0646,-1.875,5.875,-24.375,8.98,-0.39,moving,6
7.52,1673116.140070967,25,3,3,3,3,-423.0,11.98,0.03,-0.29,3.01,0.54,10.77,7.75,-26.0,561.8125,0.3525390625,0.63372802734375,0.416015625,0.0646,-1.875,5.875,-24.625,8.96,-0.5,moving,6
7.53,1673116.169746666,25,3,3,3,3,-192.0,4.32,-0.77,2.04,-4.62,-0.18,8.79,-13.125,-16.5625,561.4375,0.354736328125,0.6356201171875,0.41180419921875,0.0646,-1.875,5.875,-24.75,8.94,-0.58,moving,6
7.54,1673116.169746666,25,3,3,3,3,-105.0,1.61,-0.9,2.92,-7.31,-0.26,8.16,-32.125,-5.875,561.875,0.35797119140625,0.6361083984375,0.40765380859375,0.0646,-2.25,5.875,-24.875,8.93,-0.64,moving,6
7.55,1673116.184781945,25,3,3,3,3,11.0,-0.38,-0.98,4.1,-9.31,-0.26,10.77,-39.375,0.75,561.875,0.36260986328125,0.63653564453125,0.4027099609375,0.0646,-2.25,5.875,-24.875,8.93,-0.71,moving,6
7.56,1673116.184781945,25,3,3,3,3,158.0,-2.02,-1.39,5.57,-10.94,-0.57,13.28,-40.5,2.5,561.4375,0.3681640625,0.637451171875,0.39691162109375,0.0646,-2.25,5.875,-24.875,8.92,-0.82,moving,6
7.57,1673116.215976118,25,3,3,3,3,295.0,-3.76,-1.73,6.94,-12.67,-0.79,14.98,-29.6875,3.1875,559.875,0.37384033203125,0.63909912109375,0.39093017578125,0.0646,-2.25,5.875,-24.875,8.9,-0.94,moving,6
7.58,1673116.215976118,25,3,3,3,3,282.0,-4.79,-1.2,6.81,-13.68,-0.09,17.01,-10.6875,4.4375,556.8125,0.37945556640625,0.64208984375,0.38482666015625,0.0646,-2.25,5.875,-24.875,8.89,-1.1,moving,6
7.59,1673116.230818729,25,3,3,3,3,214.0,-5.43,-1.09,6.12,-14.3,0.2,18.57,12.3125,2.75,552.0,0.38470458984375,0.64642333984375,0.37884521484375,0.0646,-3.0,5.5625,-24.8125,8.87,-1.29,moving,6
7.6,1673116.230818729,25,3,3,3,3,144.0,-5.63,-0.62,5.4,-14.47,0.87,18.45,35.3125,0.9375,545.9375,0.38897705078125,0.65185546875,0.37353515625,0.0646,-3.0,5.5625,-24.75,8.84,-1.49,moving,6
7.61,1673116.244452314,25,3,3,3,3,-108.0,-4.67,1.17,2.84,-13.49,2.87,16.64,72.9375,7.5,537.8125,0.391845703125,0.6583251953125,0.37042236328125,0.0646,-3.0,5.5625,-24.5625,8.81,-1.7,moving,6
7.62,1673116.244452314,25,3,3,3,3,-145.0,-3.06,2.49,2.43,-11.86,4.37,11.23,100.625,8.6875,529.125,0.39227294921875,0.66485595703125,0.37017822265625,0.0646,-3.0,5.5625,-24.3125,8.8,-1.88,moving,6
7.63,1673116.275781619,25,3,3,3,3,-208.0,-1.05,3.8,1.77,-9.85,5.78,3.8,99.625,0.875,522.3125,0.39019775390625,0.67010498046875,0.37225341796875,0.0646,-3.0,5.5625,-24.0625,8.79,-1.98,moving,6
7.64,1673116.275781619,25,3,3,3,3,-259.0,0.6,5.82,1.23,-8.18,7.85,-0.73,72.125,2.1875,518.125,0.38775634765625,0.67303466796875,0.37506103515625,0.064,-3.0,6.6875,-23.875,8.79,-2.02,moving,6
7.65,1673116.294842654,25,3,3,3,3,-221.0,1.14,5.34,1.59,-7.66,7.36,-2.75,35.1875,5.3125,516.4375,0.3861083984375,0.673828125,0.37750244140625,0.064,-3.0,6.6875,-23.75,8.8,-2.02,moving,6
7.66,1673116.294842654,25,3,3,3,3,-221.0,1.14,5.34,1.59,-7.66,7.36,-2.75,35.1875,5.3125,516.4375,0.3861083984375,0.673828125,0.37750244140625,0.064,-3.0,6.6875,-23.75,8.8,-2.02,moving,6
7.66,1673116.306336917,25,3,3,3,3,-184.0,1.62,4.2,1.94,-7.18,6.21,-1.49,4.625,6.0625,516.25,0.38592529296875,0.67352294921875,0.37847900390625,0.064,-3.0,6.6875,-23.6875,8.81,-2.01,moving,6
7.67,1673116.306336917,25,3,3,3,3,-167.0,1.98,3.1,2.11,-6.83,5.12,0.59,-3.375,4.3125,516.25,0.38641357421875,0.67333984375,0.3782958984375,0.064,-3.0,6.6875,-23.6875,8.81,-2.01,moving,6
7.68,1673116.319371463,25,3,3,3,3,-51.0,1.99,0.79,3.27,-6.81,2.82,1.94,-1.8125,2.625,515.875,0.38714599609375,0.673583984375,0.37762451171875,0.064,-3.0,6.6875,-23.625,8.81,-2.03,moving,6
7.69,1673116.319371463,25,3,3,3,3,-12.0,1.56,-0.18,3.66,-7.24,1.86,2.47,-7.4375,2.625,515.6875,0.38818359375,0.6737060546875,0.3765869140625,0.064,-3.5,10.1875,-23.625,8.81,-2.05,moving,6
7.7,1673116.335087853,25,3,3,3,3,-1.0,1.05,-0.79,3.77,-7.75,1.26,2.53,-13.6875,1.8125,515.9375,0.38946533203125,0.67352294921875,0.37530517578125,0.064,-3.5,10.1875,-23.625,8.8,-2.06,moving,6
7.71,1673116.335087853,25,3,3,3,3,9.0,0.45,-1.32,3.89,-8.35,0.75,2.54,-21.9375,1.5625,516.6875,0.39093017578125,0.67303466796875,0.3736572265625,0.064,-3.5,10.1875,-23.6875,8.8,-2.07,moving,6
7.72,1673116.364340701,25,3,3,3,3,31.0,-0.03,-2.16,4.11,-8.82,-0.07,3.1,-26.875,2.0625,517.5625,0.39276123046875,0.67236328125,0.3717041015625,0.064,-3.5,10.1875,-23.75,8.79,-2.08,moving,6
7.73,1673116.364340701,25,3,3,3,3,19.0,0.21,-2.26,4.0,-8.57,-0.16,3.43,-25.625,1.8125,518.3125,0.3946533203125,0.671875,0.36962890625,0.064,-3.5,10.1875,-23.75,8.78,-2.1,moving,6
7.74,1673116.38082821,25,3,3,3,3,-33.0,0.98,-1.96,3.47,-7.79,0.15,2.96,-18.3125,0.9375,518.75,0.3961181640625,0.671630859375,0.36798095703125,0.0645,-3.0625,8.6875,-23.8125,8.78,-2.11,moving,6
7.75,1673116.38082821,25,3,3,3,3,-120.0,2.13,-1.25,2.6,-6.64,0.87,2.11,-3.6875,-0.4375,518.5,0.39678955078125,0.671875,0.3670654296875,0.0645,-3.0625,8.6875,-23.8125,8.77,-2.13,moving,6
7.76,1673116.396580692,25,3,3,3,3,-320.0,5.84,0.6,0.61,-2.92,2.75,1.06,10.9375,-1.25,517.6875,0.39666748046875,0.672607421875,0.36700439453125,0.0645,-3.0625,8.6875,-23.8125,8.77,-2.15,moving,6
7.77,1673116.396580692,25,3,3,3,3,-448.0,8.33,1.94,-0.67,-0.44,4.1,0.02,16.9375,-1.25,516.6875,0.39599609375,0.67340087890625,0.36749267578125,0.0645,-3.0625,8.6875,-23.8125,8.77,-2.16,moving,6
7.78,1673116.425467777,25,3,3,3,3,-585.0,11.53,3.81,-2.05,2.75,5.98,-0.6,17.0,1.25,515.8125,0.39532470703125,0.67401123046875,0.36834716796875,0.0645,-3.0625,8.6875,-23.75,8.77,-2.16,moving,6
7.79,1673116.425467777,25,3,3,3,3,-1389.0,31.21,4.52,-10.11,22.43,6.72,0.25,45.0,3.6875,512.9375,0.3941650390625,0.6759033203125,0.3699951171875,0.0635,-3.5,9.0625,-23.5625,8.77,-2.2,moving,6
7.8,1673116.455994998,25,3,3,3,3,-1274.0,29.86,6.04,-8.94,21.07,8.16,-7.56,-5.3125,-9.8125,515.25,0.39166259765625,0.6744384765625,0.3721923828125,0.0635,-3.5,9.0625,-23.6875,8.78,-2.12,moving,6
7.81,1673116.455994998,25,3,3,3,3,-1053.0,27.61,5.43,-6.66,18.8,7.29,-22.24,-68.5,-33.3125,525.375,0.38580322265625,0.66796875,0.37652587890625,0.0635,-3.5,9.0625,-24.1875,8.81,-1.86,moving,6
7.82,1673116.461172651,25,3,3,3,3,-1183.0,30.09,2.55,-7.9,21.23,4.01,-35.69,-89.5625,-24.4375,539.125,0.377197265625,0.65728759765625,0.38531494140625,0.0635,-3.5,9.0625,-24.5625,8.86,-1.45,moving,6
7.83,1673116.461172651,25,3,3,3,3,-866.0,32.9,-15.43,-4.69,23.98,-14.5,-46.18,-111.125,-5.9375,555.4375,0.3671875,0.64239501953125,0.3978271484375,0.0635,-3.5,9.0625,-24.75,8.91,-0.93,moving,6
7.84,1673116.486342288,25,3,3,3,3,-606.0,23.3,-14.8,-2.1,14.34,-14.28,-39.2,-35.25,7.8125,565.125,0.357177734375,0.6318359375,0.41070556640625,0.064,-1.5625,8.1875,-24.75,8.95,-0.52,moving,6
7.85,1673116.486342288,25,3,3,3,3,-809.0,18.51,-13.28,-4.12,9.55,-13.06,-32.65,21.0,-6.9375,570.625,0.34613037109375,0.6256103515625,0.4222412109375,0.064,-1.5625,8.1875,-24.8125,8.96,-0.21,moving,6
7.86,1673116.501090376,25,3,3,3,3,-786.0,15.59,-10.6,-3.88,6.62,-10.55,-16.83,4.125,-1.875,573.6875,0.3406982421875,0.6219482421875,0.427978515625,0.064,-1.5625,8.1875,-24.8125,8.96,-0.05,moving,6
7.87,1673116.501090376,25,3,3,3,3,-687.0,12.52,-5.63,-2.91,3.55,-5.6,-1.09,-24.875,10.375,574.9375,0.34185791015625,0.62017822265625,0.4281005859375,0.064,-1.5625,8.1875,-24.6875,8.97,-0.02,moving,6
7.88,1673116.522557905,25,3,3,3,3,-594.0,10.66,-3.46,-2.0,1.68,-3.34,8.49,11.4375,15.6875,572.0625,0.3448486328125,0.62225341796875,0.4263916015625,0.064,-1.5625,8.1875,-24.5625,8.98,-0.12,moving,6
7.89,1673116.522557905,25,3,3,3,3,-546.0,9.67,-1.06,-1.55,0.69,-0.77,13.68,50.875,11.0,566.125,0.34771728515625,0.6275634765625,0.42376708984375,0.0646,-1.5,6.6875,-24.4375,8.98,-0.28,moving,6
7.9,1673116.530223188,25,3,3,3,3,-360.0,6.63,-2.48,0.29,-2.35,-2.03,14.29,31.9375,12.9375,561.0625,0.3515625,0.6319580078125,0.42047119140625,0.0646,-1.5,6.6875,-24.3125,8.98,-0.45,moving,6
7.91,1673116.530223188,25,3,3,3,3,-360.0,6.63,-2.48,0.29,-2.35,-2.03,14.29,31.9375,12.9375,561.0625,0.3515625,0.6319580078125,0.42047119140625,0.0646,-1.5,6.6875,-24.3125,8.98,-0.45,moving,6
7.92,1673116.545230716,25,3,3,3,3,-266.0,5.45,-1.51,1.21,-3.53,-0.93,10.68,33.4375,6.375,556.875,0.3538818359375,0.63580322265625,0.4180908203125,0.0646,-1.5,6.6875,-24.1875,8.98,-0.57,moving,6
7.92,1673116.545230716,25,3,3,3,3,-231.0,4.12,-0.78,1.54,-4.86,-0.11,7.2,40.0,11.375,552.75,0.35516357421875,0.63897705078125,0.4173583984375,0.0646,-1.5,6.6875,-24.0625,8.99,-0.67,moving,6
7.93,1673116.559727298,25,3,3,3,3,-157.0,3.45,-0.71,2.26,-5.53,0.04,6.01,34.375,9.0625,549.25,0.356201171875,0.6417236328125,0.416748046875,0.0646,-1.5,6.6875,-23.9375,8.99,-0.75,stop,6
7.94,1673116.559727298,25,3,3,3,3,-101.0,3.03,-0.22,2.8,-5.96,0.62,7.07,34.0,10.1875,545.5,0.3575439453125,0.64459228515625,0.415771484375,0.0654,-1.875,7.0625,-23.8125,8.99,-0.85,stop,6
7.95,1673116.590608809,25,3,3,3,3,-47.0,2.58,0.25,3.32,-6.4,1.21,8.61,35.1875,8.75,541.375,0.3592529296875,0.64788818359375,0.41424560546875,0.0654,-1.875,7.0625,-23.6875,8.98,-0.95,stop,6
7.96,1673116.590608809,25,3,3,3,3,-59.0,2.5,0.37,3.18,-6.47,1.44,9.22,35.4375,6.1875,537.25,0.36102294921875,0.65142822265625,0.41241455078125,0.0654,-1.875,7.0625,-23.625,8.98,-1.07,stop,6
7.97,1673116.606155643,25,3,3,3,3,-114.0,2.75,0.38,2.63,-6.21,1.56,8.22,34.9375,2.9375,533.4375,0.36224365234375,0.65478515625,0.41070556640625,0.0654,-1.875,7.0625,-23.5625,8.97,-1.17,stop,6
7.98,1673116.606155643,25,3,3,3,3,-314.0,3.65,0.61,0.62,-5.3,1.87,6.2,30.3125,-1.3125,530.5,0.36285400390625,0.6575927734375,0.40936279296875,0.0654,-1.875,7.0625,-23.5,8.96,-1.25,stop,6
7.99,1673116.634951175,25,3,3,3,3,-378.0,4.84,0.57,0.0,-4.1,1.88,4.51,19.875,-7.4375,528.6875,0.36297607421875,0.65972900390625,0.40802001953125,0.0643,-3.375,9.375,-23.5625,8.95,-1.31,stop,6
8.0,1673116.634951175,25,3,3,3,3,-409.0,6.11,0.32,-0.3,-2.82,1.67,3.77,7.6875,-11.625,527.875,0.36309814453125,0.6612548828125,0.4063720703125,0.0643,-3.375,9.375,-23.6875,8.94,-1.35,stop,6
8.01,1673116.649518477,25,3,3,3,3,-440.0,7.45,0.05,-0.59,-1.47,1.44,3.44,2.875,-14.5,527.5625,0.36309814453125,0.66265869140625,0.40460205078125,0.0643,-3.375,9.375,-23.8125,8.92,-1.39,stop,6
8.02,1673116.649518477,25,3,3,3,3,-533.0,10.78,-0.98,-1.49,1.87,0.44,3.49,8.0625,-15.4375,526.9375,0.3629150390625,0.66424560546875,0.40289306640625,0.0643,-3.375,9.375,-23.9375,8.91,-1.43,stop,6
8.03,1673116.664407067,25,3,3,3,3,-590.0,13.45,-1.06,-2.05,4.55,0.4,2.99,17.125,-15.3125,525.8125,0.36224365234375,0.66619873046875,0.401611328125,0.0643,-3.375,9.375,-24.0625,8.89,-1.47,stop,6
8.04,1673116.664407067,25,3,3,3,3,-601.0,14.67,-0.92,-2.14,5.79,0.57,1.76,17.125,-9.4375,524.8125,0.361572265625,0.6676025390625,0.401123046875,0.0632,-2.5625,10.1875,-24.125,8.88,-1.49,stop,6
8.05,1673116.694500492,25,3,3,3,3,-491.0,13.94,-0.93,-1.04,5.06,0.56,-0.23,3.875,-4.1875,524.8125,0.361083984375,0.66790771484375,0.401123046875,0.0632,-2.5625,10.1875,-24.1875,8.88,-1.49,stop,6
8.06,1673116.694500492,25,3,3,3,3,-375.0,11.23,-2.27,0.12,2.34,-0.8,-2.51,-6.0,-3.9375,525.8125,0.3603515625,0.66717529296875,0.40167236328125,0.0632,-2.5625,10.1875,-24.25,8.88,-1.47,stop,6
8.07,1673116.709522139,25,3,3,3,3,-378.0,10.39,-2.38,0.09,1.49,-0.96,-4.91,-7.0625,-1.875,527.3125,0.359130859375,0.66583251953125,0.40313720703125,0.0632,-2.5625,10.1875,-24.25,8.89,-1.41,stop,6
8.08,1673116.709522139,25,3,3,3,3,-354.0,9.49,-2.21,0.33,0.59,-0.85,-6.43,-6.3125,-0.875,529.0,0.35748291015625,0.6641845703125,0.40521240234375,0.0632,-2.5625,10.1875,-24.25,8.9,-1.35,stop,6
8.09,1673116.730301558,25,3,3,3,3,-343.0,8.74,-1.87,0.45,-0.16,-0.58,-6.7,-7.25,-0.875,530.8125,0.35577392578125,0.66241455078125,0.40740966796875,0.0646,-0.75,11.6875,-24.3125,8.9,-1.28,stop,6
8.1,1673116.730301558,25,3,3,3,3,-363.0,7.82,-1.55,0.26,-1.09,-0.34,-6.3,-14.0625,-1.625,532.9375,0.35443115234375,0.660400390625,0.40911865234375,0.0646,-0.75,11.6875,-24.3125,8.91,-1.21,stop,6
8.11,1673116.73972502,25,3,3,3,3,-372.0,7.95,-1.73,0.17,-0.96,-0.58,-4.78,-21.0625,-2.4375,535.25,0.3536376953125,0.658447265625,0.41009521484375,0.0646,-0.75,11.6875,-24.375,8.92,-1.14,stop,6
8.12,1673116.73972502,25,3,3,3,3,-374.0,8.21,-1.94,0.16,-0.71,-0.83,-3.13,-22.4375,-2.625,537.25,0.3533935546875,0.65679931640625,0.410400390625,0.0646,-0.75,11.6875,-24.4375,8.92,-1.1,stop,6
8.13,1673116.773845584,25,3,3,3,3,-384.0,8.32,-1.89,0.08,-0.6,-0.81,-1.64,-17.0625,-2.625,538.6875,0.3533935546875,0.65570068359375,0.41033935546875,0.0646,-0.75,11.6875,-24.5,8.92,-1.07,stop,6
8.14,1673116.773845584,25,3,3,3,3,-411.0,8.05,-1.43,-0.19,-0.86,-0.36,-0.13,-8.875,-2.125,539.3125,0.353515625,0.65533447265625,0.4100341796875,0.0643,-0.5,11.0,-24.5,8.92,-1.06,stop,6
8.15,1673116.784597212,25,3,3,3,3,-399.0,8.38,-1.77,-0.06,-0.52,-0.7,1.14,-7.0,-2.625,539.625,0.35394287109375,0.6553955078125,0.40924072265625,0.0643,-0.5,11.0,-24.5625,8.91,-1.07,stop,6
8.16,1673116.784597212,25,3,3,3,3,-387.0,8.25,-1.23,0.05,-0.66,-0.14,1.2,-2.9375,0.3125,539.5625,0.35443115234375,0.655517578125,0.40875244140625,0.0643,-0.5,11.0,-24.5625,8.91,-1.08,stop,6
8.17,1673116.814978316,25,3,3,3,3,-376.0,8.81,-1.09,0.16,-0.1,0.0,1.1,-1.125,1.25,539.375,0.3548583984375,0.6556396484375,0.40838623046875,0.0643,-0.5,11.0,-24.5625,8.91,-1.09,stop,6
8.18,1673116.814978316,25,3,3,3,3,-384.0,8.91,-1.17,0.08,0.0,-0.07,0.56,-2.4375,2.5625,539.3125,0.355224609375,0.65557861328125,0.408203125,0.0643,-0.5,11.0,-24.5,8.91,-1.09,stop,6
8.19,1673116.829175378,25,3,3,3,3,-396.0,8.85,-1.3,-0.04,-0.06,-0.2,-0.19,-0.625,3.3125,539.25,0.35540771484375,0.6553955078125,0.40838623046875,0.064,-0.0625,10.1875,-24.5,8.92,-1.09,stop,6
8.2,1673116.829175378,25,3,3,3,3,-387.0,8.93,-1.38,0.03,0.01,-0.28,-0.27,2.5625,4.75,539.0,0.35546875,0.65533447265625,0.4088134765625,0.064,-0.0625,10.1875,-24.4375,8.92,-1.09,stop,6
8.21,1673116.860688317,25,3,3,3,3,-378.0,9.26,-1.7,0.12,0.33,-0.61,-0.27,3.4375,5.5,538.625,0.3555908203125,0.6552734375,0.40924072265625,0.064,-0.0625,10.1875,-24.375,8.92,-1.09,stop,6
8.22,1673116.860688317,25,3,3,3,3,-387.0,9.31,-1.71,0.01,0.38,-0.61,-0.29,3.875,6.5,538.25,0.355712890625,0.6551513671875,0.4097900390625,0.064,-0.0625,10.1875,-24.3125,8.93,-1.09,stop,6
8.23,1673116.866376712,25,3,3,3,3,-403.0,9.34,-1.57,-0.14,0.41,-0.47,-0.33,4.0625,6.25,537.8125,0.3558349609375,0.65509033203125,0.4102783203125,0.064,-0.0625,10.1875,-24.25,8.93,-1.09,stop,6
8.24,1673116.866376712,25,3,3,3,3,-417.0,9.3,-1.54,-0.3,0.36,-0.44,-0.21,2.3125,5.6875,537.5625,0.35601806640625,0.65496826171875,0.41070556640625,0.0637,-0.5,9.75,-24.1875,8.94,-1.09,stop,6
8.25,1673116.889632002,25,3,3,3,3,-425.0,9.08,-1.56,-0.38,0.13,-0.46,-0.05,0.75,4.625,537.3125,0.35626220703125,0.6549072265625,0.41094970703125,0.0637,-0.5,9.75,-24.125,8.94,-1.09,stop,6
8.26,1673116.889632002,25,3,3,3,3,-421.0,9.01,-1.66,-0.35,0.06,-0.56,0.2,0.125,3.8125,537.125,0.3565673828125,0.65478515625,0.4110107421875,0.0637,-0.5,9.75,-24.125,8.94,-1.09,stop,6
8.27,1673116.904900272,25,3,3,3,3,-409.0,8.94,-1.66,-0.24,0.0,-0.55,0.62,0.5,2.9375,536.9375,0.35687255859375,0.65484619140625,0.41094970703125,0.0637,-0.5,9.75,-24.0625,8.94,-1.1,stop,6
8.28,1673116.904900272,25,3,3,3,3,-386.0,8.83,-1.38,0.0,-0.11,-0.27,0.97,1.375,2.625,536.5625,0.3572998046875,0.65509033203125,0.4107666015625,0.0637,-0.5,9.75,-24.0625,8.94,-1.11,stop,6
8.29,1673116.934838952,25,3,3,3,3,-371.0,8.83,-1.28,0.13,-0.11,-0.16,1.22,1.5,2.625,536.125,0.35772705078125,0.65533447265625,0.41046142578125,0.0637,-1.5,12.0625,-24.0,8.94,-1.12,stop,6
8.3,1673116.934838952,25,3,3,3,3,-362.0,8.84,-1.22,0.21,-0.09,-0.08,1.28,1.8125,2.75,535.625,0.358154296875,0.6556396484375,0.41021728515625,0.0637,-1.5,12.0625,-24.0,8.94,-1.13,stop,6
8.31,1673116.950680301,25,3,3,3,3,-362.0,8.8,-1.1,0.21,-0.14,0.04,1.08,2.3125,2.875,535.1875,0.35858154296875,0.6558837890625,0.4100341796875,0.0637,-1.5,12.0625,-23.9375,8.94,-1.15,stop,6
8.32,1673116.950680301,25,3,3,3,3,-369.0,8.72,-1.14,0.13,-0.22,0.01,0.84,2.625,3.1875,534.75,0.35888671875,0.65606689453125,0.409912109375,0.0637,-1.5,12.0625,-23.9375,8.95,-1.16,stop,6
8.33,1673116.964822269,25,3,3,3,3,-375.0,8.74,-1.21,0.07,-0.2,-0.05,0.42,2.375,3.4375,534.375,0.359130859375,0.65618896484375,0.4100341796875,0.0637,-1.5,12.0625,-23.875,8.95,-1.16,stop,6
8.34,1673116.964822269,25,3,3,3,3,-378.0,8.77,-1.31,0.03,-0.18,-0.14,-0.05,1.9375,3.25,534.125,0.3592529296875,0.65618896484375,0.41021728515625,0.0651,-1.5,11.0,-23.875,8.95,-1.16,stop,6
8.35,1673116.995783573,25,3,3,3,3,-371.0,8.8,-1.49,0.08,-0.12,-0.1,-0.45,1.25,3.0625,527.0625,0.36309814453125,0.66241455078125,0.40557861328125,0.0651,-1.5,11.0,-23.6875,8.93,-1.38,stop,6
8.36,1673116.995783573,25,3,3,3,3,-362.0,8.88,-1.59,0.16,-0.05,-0.21,-0.68,1.5625,3.0,527.0,0.36297607421875,0.6622314453125,0.406005859375,0.0651,-1.5,11.0,-23.6875,8.93,-1.37,stop,6
8.37,1673117.010290734,25,3,3,3,3,-354.0,8.99,-1.46,0.23,0.05,-0.08,-0.66,3.0625,3.25,526.8125,0.3629150390625,0.662109375,0.406494140625,0.0651,-1.5,11.0,-23.625,8.94,-1.37,stop,6
8.38,1673117.010290734,25,3,3,3,3,-347.0,9.06,-1.35,0.3,0.11,0.01,-0.52,3.3125,3.375,526.5625,0.36279296875,0.66204833984375,0.406982421875,0.0651,-1.5,11.0,-23.625,8.94,-1.37,stop,6
8.39,1673117.025611169,25,3,3,3,3,-347.0,9.06,-1.29,0.3,0.11,0.07,-0.32,3.1875,3.5625,526.3125,0.36279296875,0.6619873046875,0.4073486328125,0.0647,-1.875,9.75,-23.5625,8.94,-1.37,stop,6
8.4,1673117.025611169,25,3,3,3,3,-360.0,9.08,-1.23,0.16,0.13,0.13,-0.16,2.625,3.4375,526.0625,0.3629150390625,0.66192626953125,0.40765380859375,0.0647,-1.875,9.75,-23.5,8.94,-1.37,stop,6
8.41,1673117.055332604,25,3,3,3,3,-366.0,9.14,-1.25,0.09,0.19,0.11,-0.04,1.5625,3.375,525.8125,0.36309814453125,0.661865234375,0.407958984375,0.0647,-1.875,9.75,-23.5,8.95,-1.37,stop,6
8.42,1673117.055332604,25,3,3,3,3,-369.0,9.28,-1.23,0.06,0.33,0.13,0.01,0.4375,3.25,525.6875,0.36328125,0.6617431640625,0.40814208984375,0.0647,-1.875,9.75,-23.4375,8.95,-1.37,stop,6
8.43,1673117.069455244,25,3,3,3,3,-375.0,9.36,-1.28,0.0,0.4,0.08,0.07,-0.375,3.25,525.5625,0.363525390625,0.66156005859375,0.40838623046875,0.0647,-1.875,9.75,-23.375,8.95,-1.36,stop,6
8.44,1673117.069455244,25,3,3,3,3,-375.0,9.27,-1.41,0.0,0.31,-0.04,0.26,-1.0,3.25,525.4375,0.36383056640625,0.66143798828125,0.40838623046875,0.0647,-2.25,10.5625,-23.375,8.96,-1.37,stop,6
8.45,1673117.085431237,25,3,3,3,3,-365.0,9.19,-1.45,0.08,0.23,-0.07,0.49,-1.125,3.625,525.25,0.3642578125,0.661376953125,0.40838623046875,0.0647,-2.25,10.5625,-23.3125,8.96,-1.37,stop,6
8.46,1673117.085431237,25,3,3,3,3,-358.0,9.12,-1.46,0.14,0.16,-0.08,0.7,-0.9375,3.875,525.0,0.36468505859375,0.661376953125,0.40826416015625,0.0647,-2.25,10.5625,-23.3125,8.96,-1.38,stop,6
8.47,1673117.114738041,25,3,3,3,3,-344.0,9.06,-1.44,0.27,0.09,-0.06,0.85,-0.9375,4.125,524.6875,0.36529541015625,0.661376953125,0.40814208984375,0.0647,-2.25,10.5625,-23.25,8.96,-1.38,stop,6
8.48,1673117.114738041,25,3,3,3,3,-343.0,9.04,-1.36,0.27,0.07,0.02,0.88,-0.875,4.25,524.375,0.3658447265625,0.661376953125,0.4080810546875,0.0647,-2.25,10.5625,-23.1875,8.96,-1.39,stop,6
8.49,1673117.131251265,25,3,3,3,3,-345.0,8.94,-1.25,0.24,-0.02,0.14,0.85,-1.4375,4.4375,524.125,0.366455078125,0.66131591796875,0.407958984375,0.0643,-3.0,11.0,-23.125,8.96,-1.4,stop,6
8.5,1673117.131251265,25,3,3,3,3,-349.0,8.88,-1.2,0.2,-0.08,0.2,0.7,-2.5625,4.1875,523.9375,0.36700439453125,0.66119384765625,0.4078369140625,0.0643,-3.0,11.0,-23.0625,8.97,-1.4,stop,6
8.51,1673117.144831709,25,3,3,3,3,-360.0,8.73,-1.19,0.08,-0.23,0.21,0.51,-3.3125,4.0625,523.875,0.36749267578125,0.6610107421875,0.40777587890625,0.0643,-3.0,11.0,-23.0625,8.97,-1.41,stop,6
8.52,1673117.144831709,25,3,3,3,3,-359.0,8.62,-1.19,0.09,-0.35,0.21,0.29,-3.5,3.625,523.9375,0.367919921875,0.66082763671875,0.40771484375,0.0643,-3.0,11.0,-23.0,8.97,-1.41,stop,6
8.53,1673117.176349084,25,3,3,3,3,-357.0,8.61,-1.19,0.1,-0.35,0.21,0.02,-3.5625,3.4375,524.0,0.36822509765625,0.6605224609375,0.40771484375,0.0643,-3.0,11.0,-23.0,8.97,-1.41,stop,6
8.54,1673117.176349084,25,3,3,3,3,-361.0,8.61,-1.14,0.06,-0.36,0.25,-0.19,-3.875,3.0,524.1875,0.3685302734375,0.66021728515625,0.4078369140625,0.0651,-2.25,10.5625,-23.0,8.98,-1.4,stop,6
8.55,1673117.191203495,25,3,3,3,3,-366.0,8.67,-1.14,0.01,-0.31,0.25,-0.32,-4.25,2.625,524.375,0.36871337890625,0.65985107421875,0.40789794921875,0.0651,-2.25,10.5625,-22.9375,8.98,-1.39,stop,6
8.56,1673117.191203495,25,3,3,3,3,-365.0,8.67,-1.13,0.01,-0.31,0.25,-0.45,-4.5,2.4375,524.625,0.368896484375,0.65948486328125,0.40802001953125,0.0651,-2.25,10.5625,-22.9375,8.98,-1.39,stop,6
8.57,1673117.205471032,25,3,3,3,3,-372.0,8.75,-1.17,-0.05,-0.23,0.2,-0.67,-5.25,1.9375,525.0625,0.36895751953125,0.65899658203125,0.408203125,0.0651,-2.25,10.5625,-22.9375,8.98,-1.38,stop,6
8.58,1673117.205471032,25,3,3,3,3,-376.0,8.95,-1.15,-0.09,-0.02,0.2,-1.04,-6.125,1.4375,525.6875,0.368896484375,0.658447265625,0.408447265625,0.0651,-2.25,10.5625,-22.9375,8.98,-1.36,stop,6
8.59,1673117.236976973,25,3,3,3,3,-379.0,9.2,-1.15,-0.11,0.21,0.19,-1.28,-5.875,1.125,526.25,0.36883544921875,0.6578369140625,0.40875244140625,0.0651,-3.0,11.375,-22.9375,8.99,-1.34,stop,6
8.6,1673117.236976973,25,3,3,3,3,-380.0,9.28,-1.22,-0.13,0.28,0.1,-1.32,-4.6875,1.25,526.75,0.36871337890625,0.65728759765625,0.4091796875,0.0651,-3.0,11.375,-22.9375,8.99,-1.33,stop,6
8.61,1673117.25091899,25,3,3,3,3,-377.0,9.26,-1.29,-0.1,0.26,0.02,-1.23,-3.25,1.1875,527.125,0.3685302734375,0.6568603515625,0.4095458984375,0.0651,-3.0,11.375,-22.9375,8.99,-1.31,stop,6
8.62,1673117.25091899,25,3,3,3,3,-368.0,9.18,-1.32,-0.01,0.18,-0.01,-1.17,-1.625,1.375,527.4375,0.36834716796875,0.65643310546875,0.40997314453125,0.0651,-3.0,11.375,-22.875,8.99,-1.3,stop,6
8.63,1673117.265019698,25,3,3,3,3,-367.0,9.24,-1.28,0.0,0.23,0.01,-1.14,-0.25,1.625,527.625,0.36810302734375,0.6561279296875,0.41046142578125,0.0651,-3.0,11.375,-22.875,9.0,-1.29,stop,6
8.64,1673117.265019698,25,3,3,3,3,-362.0,9.34,-1.13,0.03,0.33,0.15,-1.13,0.5625,1.75,527.75,0.367919921875,0.6558837890625,0.41094970703125,0.0651,-3.0,9.375,-22.875,9.0,-1.28,stop,6
8.65,1673117.29717668,25,3,3,3,3,-360.0,9.4,-1.01,0.05,0.39,0.26,-1.0,1.125,2.0,527.8125,0.36767578125,0.65557861328125,0.4114990234375,0.0651,-3.0,9.375,-22.8125,9.0,-1.27,stop,6
8.66,1673117.29717668,25,3,3,3,3,-352.0,9.26,-0.93,0.13,0.24,0.33,-0.79,2.625,2.0625,527.8125,0.36749267578125,0.65533447265625,0.412109375,0.0651,-3.0,9.375,-22.8125,9.01,-1.26,stop,6
8.67,1673117.310347985,25,3,3,3,3,-358.0,9.22,-0.97,0.06,0.2,0.29,-0.52,4.25,2.25,527.5625,0.3673095703125,0.65533447265625,0.41253662109375,0.0651,-3.0,9.375,-22.8125,9.01,-1.26,stop,6
8.68,1673117.310347985,25,3,3,3,3,-353.0,9.15,-1.0,0.11,0.13,0.25,-0.37,4.875,2.4375,527.25,0.3671875,0.6553955078125,0.41290283203125,0.0651,-3.0,9.375,-22.75,9.01,-1.26,stop,6
8.69,1673117.324153365,25,3,3,3,3,-350.0,9.08,-1.04,0.13,0.06,0.22,-0.28,5.0625,2.25,526.9375,0.3670654296875,0.65545654296875,0.41326904296875,0.0651,-3.375,11.0,-22.75,9.01,-1.26,stop,6
8.7,1673117.324153365,25,3,3,3,3,-351.0,8.97,-0.89,0.12,-0.04,0.36,-0.25,5.8125,2.0,526.6875,0.36688232421875,0.655517578125,0.41375732421875,0.0651,-3.375,11.0,-22.6875,9.02,-1.26,stop,6
8.71,1673117.355828047,25,3,3,3,3,-352.0,8.97,-0.86,0.1,-0.04,0.39,-0.17,5.25,1.875,526.4375,0.36669921875,0.65545654296875,0.41424560546875,0.0651,-3.375,11.0,-22.625,9.02,-1.25,stop,6
8.72,1673117.355828047,25,3,3,3,3,-348.0,8.97,-0.81,0.14,-0.05,0.44,-0.17,4.5625,1.5,526.25,0.36651611328125,0.65545654296875,0.4146728515625,0.0651,-3.375,11.0,-22.625,9.02,-1.25,stop,6
8.73,1673117.369725142,25,3,3,3,3,-347.0,8.9,-0.84,0.14,-0.12,0.4,-0.33,3.4375,1.0,526.1875,0.3663330078125,0.6552734375,0.41510009765625,0.0651,-3.375,11.0,-22.625,9.02,-1.24,stop,6
8.75,1673117.369725142,25,3,3,3,3,-342.0,8.72,-0.93,0.18,-0.29,0.3,-0.47,3.1875,0.75,526.1875,0.3660888671875,0.65521240234375,0.41552734375,0.0645,-2.25,10.1875,-22.5625,9.02,-1.24,stop,6
8.75,1673117.384722212,25,3,3,3,3,-340.0,8.73,-0.89,0.21,-0.29,0.33,-0.48,3.875,0.8125,526.0625,0.3658447265625,0.65509033203125,0.416015625,0.0645,-2.25,10.1875,-22.5625,9.03,-1.23,stop,6
8.76,1673117.384722212,25,3,3,3,3,-342.0,8.8,-0.84,0.18,-0.22,0.38,-0.36,4.25,0.625,526.0,0.3656005859375,0.655029296875,0.41644287109375,0.0645,-2.25,10.1875,-22.5625,9.03,-1.23,stop,6
8.77,1673117.414918339,25,3,3,3,3,-344.0,9.03,-0.83,0.16,0.0,0.39,-0.23,3.8125,0.75,525.875,0.36541748046875,0.65496826171875,0.41680908203125,0.0645,-2.25,10.1875,-22.5625,9.03,-1.22,stop,6
8.78,1673117.414918339,25,3,3,3,3,-344.0,9.13,-0.9,0.15,0.09,0.31,-0.13,2.75,0.5625,525.8125,0.36529541015625,0.6549072265625,0.41717529296875,0.0645,-2.25,10.1875,-22.5,9.03,-1.22,stop,6
8.81,1673117.44513717,25,3,3,3,3,-364.0,9.2,-0.98,-0.04,0.16,0.24,0.0,1.625,1.375,525.375,0.36529541015625,0.655029296875,0.41748046875,0.0651,-3.6875,10.5625,-22.5,9.03,-1.22,stop,6
8.82,1673117.44513717,25,3,3,3,3,-359.0,9.08,-0.91,0.0,0.04,0.3,0.0,1.5625,1.0625,525.25,0.36529541015625,0.655029296875,0.41754150390625,0.0651,-3.6875,10.5625,-22.4375,9.03,-1.22,stop,6
8.83,1673117.477088301,25,3,3,3,3,-353.0,8.96,-0.86,0.06,-0.07,0.35,-0.06,1.6875,0.8125,525.125,0.365234375,0.65509033203125,0.41766357421875,0.0651,-3.6875,10.5625,-22.4375,9.04,-1.22,stop,6
8.84,1673117.477088301,25,3,3,3,3,-348.0,8.91,-0.8,0.11,-0.12,0.41,-0.13,1.5,0.875,525.1875,0.36517333984375,0.65496826171875,0.41790771484375,0.0651,-4.0625,10.5625,-22.4375,9.04,-1.22,stop,6
8.85,1673117.490211348,25,3,3,3,3,-345.0,9.08,-0.65,0.13,0.04,0.55,-0.29,0.9375,0.6875,525.3125,0.36505126953125,0.65472412109375,0.41827392578125,0.0651,-4.0625,10.5625,-22.4375,9.04,-1.21,stop,6
8.86,1673117.490211348,25,3,3,3,3,-352.0,9.18,-0.7,0.06,0.13,0.49,-0.45,0.0,0.375,525.5625,0.36480712890625,0.65435791015625,0.418701171875,0.0651,-4.0625,10.5625,-22.4375,9.04,-1.2,stop,6
8.87,1673117.505344242,25,3,3,3,3,-360.0,9.16,-0.78,-0.01,0.11,0.4,-0.56,-0.8125,0.25,525.9375,0.3646240234375,0.65399169921875,0.4190673828125,0.0651,-4.0625,10.5625,-22.4375,9.04,-1.18,stop,6
8.88,1673117.505344242,25,3,3,3,3,-365.0,9.12,-0.88,-0.06,0.07,0.29,-0.61,-1.1875,0.375,526.25,0.36444091796875,0.65362548828125,0.4193115234375,0.0651,-4.0625,10.5625,-22.4375,9.04,-1.17,stop,6
8.89,1673117.535485274,25,3,3,3,3,-366.0,9.17,-0.95,-0.07,0.12,0.21,-0.56,-0.625,0.5,526.5,0.3642578125,0.65338134765625,0.41961669921875,0.0643,-4.0625,10.1875,-22.4375,9.05,-1.16,stop,6
8.9,1673117.535485274,25,3,3,3,3,-357.0,9.15,-0.94,0.01,0.1,0.22,-0.41,0.0625,0.75,526.625,0.3641357421875,0.6531982421875,0.41986083984375,0.0643,-4.0625,10.1875,-22.375,9.05,-1.16,stop,6
8.92,1673117.550178145,25,3,3,3,3,-347.0,9.09,-0.89,0.11,0.04,0.25,-0.36,1.0625,0.625,526.625,0.364013671875,0.653076171875,0.42010498046875,0.0643,-4.0625,10.1875,-22.375,9.05,-1.15,stop,6
8.92,1673117.550178145,25,3,3,3,3,-339.0,9.06,-0.87,0.18,0.01,0.27,-0.31,1.375,0.75,526.625,0.3638916015625,0.6529541015625,0.42041015625,0.0643,-4.0625,10.1875,-22.375,9.05,-1.15,stop,6
8.93,1673117.567088545,25,3,3,3,3,-320.0,8.99,-0.86,0.38,-0.06,0.27,-0.39,0.5,0.6875,526.6875,0.36383056640625,0.65283203125,0.42059326171875,0.0643,-4.0625,10.1875,-22.375,9.05,-1.14,stop,6
8.94,1673117.567088545,25,3,3,3,3,-321.0,8.96,-0.88,0.36,-0.09,0.25,-0.51,0.0625,0.75,526.8125,0.36376953125,0.65264892578125,0.4207763671875,0.0658,-3.6875,11.0,-22.375,9.05,-1.14,stop,6
8.95,1673117.596093265,25,3,3,3,3,-328.0,8.99,-0.89,0.29,-0.06,0.24,-0.54,-0.375,0.9375,526.875,0.3636474609375,0.65252685546875,0.4210205078125,0.0658,-3.6875,11.0,-22.375,9.05,-1.13,stop,6
8.96,1673117.596093265,25,3,3,3,3,-352.0,9.02,-0.77,0.05,-0.03,0.35,-0.53,-0.6875,0.6875,527.0,0.36358642578125,0.65234375,0.4212646484375,0.0658,-3.6875,11.0,-22.375,9.05,-1.13,stop,6
8.97,1673117.613241215,25,3,3,3,3,-358.0,9.03,-0.68,0.0,-0.02,0.43,-0.42,-0.75,0.75,527.125,0.363525390625,0.65216064453125,0.42138671875,0.0658,-3.6875,11.0,-22.3125,9.06,-1.12,stop,6
8.99,1673117.613241215,25,3,3,3,3,-364.0,9.08,-0.71,-0.06,0.02,0.41,-0.28,-1.6875,0.5625,527.25,0.363525390625,0.6519775390625,0.4215087890625,0.0658,-3.6875,11.0,-22.3125,9.06,-1.12,stop,6
9.0,1673117.62498035,25,3,3,3,3,-366.0,9.11,-0.79,-0.08,0.05,0.32,-0.21,-2.3125,0.1875,527.4375,0.363525390625,0.65185546875,0.4215087890625,0.0655,-3.6875,11.0,-22.3125,9.06,-1.11,stop,6
9.0,1673117.62498035,25,3,3,3,3,-363.0,9.08,-1.05,-0.05,0.02,0.05,-0.13,-2.0,0.0,527.5625,0.36358642578125,0.6517333984375,0.4215087890625,0.0655,-3.6875,11.0,-22.3125,9.06,-1.11,stop,6
9.01,1673117.65553459,25,3,3,3,3,-359.0,9.01,-1.14,-0.01,-0.04,-0.03,-0.09,-1.0,-0.25,527.625,0.36358642578125,0.651611328125,0.4215087890625,0.0655,-3.6875,11.0,-22.3125,9.06,-1.11,stop,6
9.02,1673117.65553459,25,3,3,3,3,-355.0,9.03,-1.18,0.02,-0.03,-0.07,0.0,0.0,-0.375,527.625,0.36358642578125,0.651611328125,0.4215087890625,0.0655,-3.6875,11.0,-22.3125,9.06,-1.11,stop,6
9.03,1673117.669141158,25,3,3,3,3,-348.0,9.11,-1.2,0.09,0.05,-0.08,0.15,0.125,-0.5,527.625,0.3636474609375,0.65167236328125,0.42144775390625,0.0655,-3.6875,11.0,-22.3125,9.06,-1.11,stop,6
9.05,1673117.669141158,25,3,3,3,3,-353.0,9.18,-1.03,0.04,0.12,0.08,0.42,0.125,-0.625,527.5625,0.36370849609375,0.65179443359375,0.4212646484375,0.0651,-3.375,10.1875,-22.375,9.06,-1.11,stop,6
9.06,1673117.685460127,25,3,3,3,3,-358.0,9.18,-0.99,0.0,0.13,0.12,0.72,0.0,-0.875,527.4375,0.3638916015625,0.6519775390625,0.42095947265625,0.0651,-3.375,10.1875,-22.375,9.05,-1.12,stop,6
9.07,1673117.685460127,25,3,3,3,3,-363.0,9.17,-0.98,-0.04,0.11,0.15,1.05,-0.25,-0.9375,527.3125,0.36407470703125,0.6522216796875,0.42059326171875,0.0651,-3.375,10.1875,-22.375,9.05,-1.13,stop,6
9.08,1673117.715472823,25,3,3,3,3,-368.0,9.18,-1.03,-0.1,0.12,0.11,1.22,-0.3125,-1.125,527.125,0.3643798828125,0.65252685546875,0.42010498046875,0.0651,-3.375,10.1875,-22.375,9.05,-1.14,stop,6
9.08,1673117.715472823,25,3,3,3,3,-375.0,9.1,-1.09,-0.16,0.05,0.06,1.28,-0.3125,-1.25,526.9375,0.3646240234375,0.65283203125,0.41961669921875,0.0651,-3.375,10.1875,-22.375,9.05,-1.15,stop,6
9.09,1673117.730224532,25,3,3,3,3,-374.0,9.14,-1.03,-0.15,0.09,0.13,1.25,0.0,-1.1875,526.75,0.3648681640625,0.65313720703125,0.41912841796875,0.0643,-4.0625,10.5625,-22.4375,9.05,-1.17,stop,6
9.1,1673117.730224532,25,3,3,3,3,-378.0,9.23,-0.97,-0.19,0.18,0.2,1.21,0.0,-1.1875,526.625,0.3651123046875,0.6534423828125,0.41864013671875,0.0643,-4.0625,10.5625,-22.4375,9.04,-1.18,stop,6
9.11,1673117.745059045,25,3,3,3,3,-369.0,9.27,-0.98,-0.1,0.22,0.2,1.25,0.0,-1.4375,526.4375,0.3653564453125,0.6536865234375,0.41815185546875,0.0643,-4.0625,10.5625,-22.4375,9.04,-1.19,stop,6
9.12,1673117.745059045,25,3,3,3,3,-364.0,9.19,-1.01,-0.04,0.15,0.19,1.35,0.3125,-1.4375,526.3125,0.3656005859375,0.654052734375,0.41766357421875,0.0643,-4.0625,10.5625,-22.4375,9.04,-1.2,stop,6
9.14,1673117.775147546,25,3,3,3,3,-362.0,9.06,-0.99,-0.02,0.02,0.21,1.44,1.3125,-1.5625,526.0,0.3658447265625,0.6544189453125,0.4171142578125,0.0643,-4.0625,10.5625,-22.5,9.04,-1.21,stop,6
9.15,1673117.775147546,25,3,3,3,3,-361.0,8.95,-0.95,-0.01,-0.08,0.27,1.5,1.625,-1.625,525.75,0.3660888671875,0.65484619140625,0.4166259765625,0.0651,-3.375,11.0,-22.5,9.03,-1.23,stop,6
9.16,1673117.788973311,25,3,3,3,3,-358.0,8.78,-0.93,0.01,-0.24,0.31,1.44,1.6875,-1.75,525.4375,0.3663330078125,0.6552734375,0.41607666015625,0.0651,-3.375,11.0,-22.5,9.03,-1.24,stop,6
9.17,1673117.788973311,25,3,3,3,3,-358.0,8.74,-0.93,0.02,-0.28,0.32,1.29,1.1875,-1.75,525.125,0.3665771484375,0.65570068359375,0.41558837890625,0.0651,-3.375,11.0,-22.5,9.03,-1.26,stop,6
9.17,1673117.804151371,25,3,3,3,3,-361.0,8.73,-0.98,0.0,-0.28,0.28,1.13,1.0,-2.0625,524.9375,0.36669921875,0.65606689453125,0.41510009765625,0.0651,-3.375,11.0,-22.5625,9.02,-1.27,stop,6
9.18,1673117.804151371,25,3,3,3,3,-362.0,8.77,-1.06,-0.01,-0.25,0.22,0.92,0.25,-2.1875,524.8125,0.3668212890625,0.65631103515625,0.4146728515625,0.0651,-3.375,11.0,-22.5625,9.02,-1.28,stop,6
9.19,1673117.83568197,25,3,3,3,3,-370.0,8.87,-1.13,-0.08,-0.14,0.15,0.8,-0.1875,-2.5,524.75,0.366943359375,0.6566162109375,0.414306640625,0.0655,-4.0625,11.0,-22.5625,9.02,-1.28,stop,6
9.2,1673117.83568197,25,3,3,3,3,-376.0,8.92,-1.05,-0.14,-0.09,0.23,0.75,0.0,-2.75,524.6875,0.366943359375,0.6568603515625,0.4139404296875,0.0655,-4.0625,11.0,-22.625,9.02,-1.29,stop,6
9.22,1673117.851205611,25,3,3,3,3,-374.0,8.9,-0.98,-0.11,-0.11,0.31,0.8,0.5625,-3.0625,524.75,0.36688232421875,0.6571044921875,0.41351318359375,0.0655,-4.0625,11.0,-22.625,9.01,-1.3,stop,6
9.23,1673117.851205611,25,3,3,3,3,-371.0,8.88,-0.95,-0.08,-0.13,0.35,0.91,1.25,-3.5,524.75,0.3668212890625,0.65740966796875,0.41314697265625,0.0655,-4.0625,11.0,-22.6875,9.01,-1.3,stop,6
9.24,1673117.864108117,25,3,3,3,3,-362.0,8.83,-1.0,0.02,-0.17,0.3,0.89,1.25,-3.9375,524.75,0.36669921875,0.65771484375,0.4127197265625,0.0655,-4.0625,11.0,-22.75,9.0,-1.31,stop,6
9.25,1673117.864108117,25,3,3,3,3,-358.0,8.78,-1.06,0.06,-0.21,0.25,0.71,0.3125,-4.0625,524.8125,0.36663818359375,0.657958984375,0.41229248046875,0.0651,-3.375,11.0,-22.75,9.0,-1.32,stop,6
9.25,1673117.895413863,25,3,3,3,3,-353.0,8.77,-1.12,0.12,-0.22,0.19,0.48,-0.3125,-4.0,524.9375,0.36651611328125,0.65814208984375,0.4119873046875,0.0651,-3.375,11.0,-22.8125,9.0,-1.32,stop,6
9.26,1673117.895413863,25,3,3,3,3,-358.0,8.88,-1.13,0.07,-0.11,0.19,0.38,-0.8125,-3.75,525.0625,0.36639404296875,0.65826416015625,0.41168212890625,0.0651,-3.375,11.0,-22.875,9.0,-1.32,stop,6
9.27,1673117.909485152,25,3,3,3,3,-364.0,8.96,-1.1,0.02,-0.03,0.21,0.31,-0.625,-3.5625,525.25,0.36627197265625,0.65838623046875,0.41143798828125,0.0651,-3.375,11.0,-22.875,8.99,-1.32,stop,6
9.29,1673117.909485152,25,3,3,3,3,-365.0,9.0,-1.09,0.01,0.01,0.23,0.26,-0.625,-3.125,525.375,0.3662109375,0.658447265625,0.41119384765625,0.0651,-3.375,11.0,-22.9375,8.99,-1.32,stop,6
9.3,1673117.925977136,25,3,3,3,3,-364.0,9.06,-1.13,0.02,0.06,0.18,0.2,-0.5625,-2.9375,525.5,0.3660888671875,0.65850830078125,0.41107177734375,0.0645,-3.6875,11.6875,-22.9375,8.99,-1.32,stop,6
9.31,1673117.925977136,25,3,3,3,3,-362.0,8.97,-1.11,0.06,-0.01,0.2,0.1,-0.5,-2.625,525.625,0.365966796875,0.6585693359375,0.41094970703125,0.0645,-3.6875,11.6875,-23.0,8.99,-1.32,stop,6
9.32,1673117.955952641,25,3,3,3,3,-371.0,8.92,-1.15,-0.03,-0.06,0.17,0.01,0.0,-2.375,525.75,0.36578369140625,0.65863037109375,0.410888671875,0.0645,-3.6875,11.6875,-23.0,8.99,-1.32,stop,6
9.33,1673117.955952641,25,3,3,3,3,-380.0,8.9,-1.19,-0.11,-0.08,0.13,-0.02,0.1875,-2.25,525.875,0.36566162109375,0.65869140625,0.4107666015625,0.0645,-3.6875,11.6875,-23.0,8.98,-1.32,stop,6
9.33,1673117.970060388,25,3,3,3,3,-381.0,8.87,-1.27,-0.12,-0.1,0.04,-0.1,-0.375,-2.125,526.0,0.365478515625,0.65869140625,0.41070556640625,0.0645,-3.6875,11.6875,-23.0625,8.98,-1.32,stop,6
9.34,1673117.970060388,25,3,3,3,3,-381.0,8.88,-1.33,-0.11,-0.1,-0.01,-0.16,-0.3125,-1.9375,526.125,0.36529541015625,0.65869140625,0.41070556640625,0.0655,-2.25,10.5625,-23.0625,8.98,-1.32,stop,6
9.36,1673118.001552047,25,3,3,3,3,-380.0,8.84,-1.32,-0.1,-0.14,-0.01,-0.15,0.125,-1.9375,526.25,0.3651123046875,0.65875244140625,0.41064453125,0.0655,-2.25,10.5625,-23.0625,8.98,-1.31,stop,6
9.37,1673118.001552047,25,3,3,3,3,-384.0,8.86,-1.31,-0.13,-0.11,0.0,-0.09,0.4375,-1.875,526.375,0.36492919921875,0.6588134765625,0.41058349609375,0.0655,-2.25,10.5625,-23.125,8.98,-1.31,stop,6
9.38,1673118.014864465,25,3,3,3,3,-387.0,8.99,-1.27,-0.17,0.01,0.04,-0.05,0.375,-1.6875,526.5,0.36480712890625,0.65887451171875,0.41046142578125,0.0655,-2.25,10.5625,-23.125,8.98,-1.31,stop,6
9.39,1673118.014864465,25,3,3,3,3,-383.0,9.07,-1.39,-0.12,0.09,-0.07,-0.1,0.625,-1.875,526.5625,0.3646240234375,0.658935546875,0.41046142578125,0.0655,-2.25,10.5625,-23.125,8.98,-1.31,stop,6
9.4,1673118.030090906,25,3,3,3,3,-384.0,9.09,-1.47,-0.13,0.11,-0.16,-0.18,0.6875,-1.625,526.625,0.36444091796875,0.65899658203125,0.41046142578125,0.0647,-2.5625,10.1875,-23.1875,8.98,-1.31,stop,6
9.41,1673118.030090906,25,3,3,3,3,-384.0,9.09,-1.49,-0.13,0.11,-0.17,-0.2,1.625,-1.3125,526.625,0.3642578125,0.6590576171875,0.41046142578125,0.0647,-2.5625,10.1875,-23.1875,8.98,-1.31,stop,6
9.42,1673118.046022139,25,3,3,3,3,-384.0,9.06,-1.45,-0.12,0.08,-0.13,-0.11,2.875,-1.0625,526.5,0.36407470703125,0.65924072265625,0.4105224609375,0.0647,-2.5625,10.1875,-23.1875,8.97,-1.31,stop,6
9.42,1673118.046022139,25,3,3,3,3,-376.0,9.02,-1.33,-0.05,0.04,-0.01,-0.04,3.4375,-0.6875,526.3125,0.3638916015625,0.659423828125,0.41064453125,0.0647,-2.5625,10.1875,-23.1875,8.97,-1.31,stop,6
9.44,1673118.077033004,25,3,3,3,3,-372.0,8.99,-1.32,0.0,0.01,0.0,-0.01,3.6875,-0.5625,526.125,0.36370849609375,0.65960693359375,0.41070556640625,0.0647,-2.5625,10.1875,-23.1875,8.97,-1.32,stop,6
9.45,1673118.077033004,25,3,3,3,3,-370.0,8.95,-1.29,0.0,-0.01,0.03,-0.03,3.4375,-0.25,525.9375,0.36358642578125,0.65972900390625,0.41082763671875,0.0651,-2.5625,11.0,-23.1875,8.97,-1.32,stop,6
9.46,1673118.090072148,25,3,3,3,3,-362.0,8.96,-1.33,0.08,-0.01,-0.01,-0.12,2.9375,-0.125,525.75,0.3634033203125,0.65985107421875,0.41094970703125,0.0651,-2.5625,11.0,-23.1875,8.97,-1.32,stop,6
9.47,1673118.090072148,25,3,3,3,3,-364.0,9.05,-1.3,0.06,0.07,0.01,-0.2,2.8125,0.0,525.625,0.36328125,0.659912109375,0.4111328125,0.0651,-2.5625,11.0,-23.1875,8.97,-1.32,stop,6
9.48,1673118.105704838,25,3,3,3,3,-364.0,9.11,-1.26,0.06,0.13,0.05,-0.24,2.375,0.3125,525.5625,0.36309814453125,0.65997314453125,0.41131591796875,0.0651,-2.5625,11.0,-23.1875,8.97,-1.32,stop,6
9.49,1673118.105704838,25,3,3,3,3,-368.0,9.11,-1.25,0.02,0.13,0.06,-0.22,1.875,0.5,525.5,0.36297607421875,0.65997314453125,0.41143798828125,0.0651,-2.5625,11.0,-23.1875,8.97,-1.32,stop,6
9.5,1673118.135533614,25,3,3,3,3,-368.0,8.99,-1.26,0.02,0.01,0.05,-0.17,1.75,0.75,525.375,0.3629150390625,0.65997314453125,0.41162109375,0.064,-2.25,11.0,-23.1875,8.98,-1.32,stop,6
9.5,1673118.135533614,25,3,3,3,3,-368.0,8.96,-1.29,0.02,-0.01,0.02,-0.12,1.25,1.0,525.3125,0.3629150390625,0.65997314453125,0.4117431640625,0.064,-2.25,11.0,-23.125,8.98,-1.31,stop,6
9.51,1673118.149709884,25,3,3,3,3,-366.0,8.93,-1.3,0.04,-0.04,0.01,-0.15,1.1875,1.0625,525.25,0.36285400390625,0.65997314453125,0.41192626953125,0.064,-2.25,11.0,-23.125,8.98,-1.31,stop,6
9.53,1673118.149709884,25,3,3,3,3,-364.0,8.93,-1.25,0.06,-0.05,0.05,-0.14,0.6875,1.0625,525.1875,0.36285400390625,0.659912109375,0.41204833984375,0.064,-2.25,11.0,-23.125,8.98,-1.31,stop,6
9.54,1673118.16496025,25,3,3,3,3,-355.0,8.91,-1.26,0.14,-0.06,0.04,-0.13,-0.125,1.25,525.1875,0.3629150390625,0.65985107421875,0.41217041015625,0.064,-2.25,11.0,-23.125,8.98,-1.31,stop,6
9.55,1673118.16496025,25,3,3,3,3,-355.0,8.87,-1.29,0.14,-0.11,0.01,-0.07,-0.8125,1.5,525.1875,0.363037109375,0.65972900390625,0.4122314453125,0.0643,-2.5625,10.5625,-23.125,8.98,-1.31,stop,6
9.56,1673118.19467192,25,3,3,3,3,-355.0,8.89,-1.32,0.14,-0.08,-0.01,-0.02,-1.375,1.375,525.1875,0.3631591796875,0.65960693359375,0.4122314453125,0.0643,-2.5625,10.5625,-23.0625,8.98,-1.31,stop,6
9.57,1673118.19467192,25,3,3,3,3,-358.0,8.91,-1.3,0.1,-0.07,0.0,0.01,-2.1875,1.4375,525.25,0.36334228515625,0.65948486328125,0.4122314453125,0.0643,-2.5625,10.5625,-23.0625,8.98,-1.31,stop,6
9.58,1673118.21025745,25,3,3,3,3,-365.0,8.95,-1.28,0.03,-0.02,0.02,0.02,-2.4375,1.1875,525.375,0.36346435546875,0.6593017578125,0.4122314453125,0.0643,-2.5625,10.5625,-23.0625,8.98,-1.31,stop,6
9.58,1673118.21025745,25,3,3,3,3,-370.0,9.0,-1.22,-0.01,0.01,0.08,0.09,-2.5,1.3125,525.4375,0.36370849609375,0.6591796875,0.41217041015625,0.0643,-2.5625,10.5625,-23.0625,8.98,-1.31,stop,6
9.59,1673118.224906498,25,3,3,3,3,-370.0,9.01,-1.23,0.0,0.02,0.07,0.14,-2.3125,1.375,525.5,0.3638916015625,0.6590576171875,0.412109375,0.0655,-2.25,10.5625,-23.0625,8.98,-1.3,stop,6
9.61,1673118.224906498,25,3,3,3,3,-374.0,9.07,-1.31,-0.05,0.08,0.0,0.15,-1.6875,1.4375,525.5625,0.36407470703125,0.65899658203125,0.412109375,0.0655,-2.25,10.5625,-23.0625,8.99,-1.31,stop,6
9.62,1673118.254542647,25,3,3,3,3,-373.0,9.1,-1.29,-0.04,0.11,0.01,0.1,-0.8125,1.375,525.5,0.36419677734375,0.658935546875,0.412109375,0.0655,-2.25,10.5625,-23.0,8.99,-1.31,stop,6
9.63,1673118.254542647,25,3,3,3,3,-373.0,9.08,-1.29,-0.04,0.09,0.01,0.08,-0.5625,1.5,525.5,0.36431884765625,0.6588134765625,0.412109375,0.0655,-2.25,10.5625,-23.0,8.99,-1.3,stop,6
9.64,1673118.269936161,25,3,3,3,3,-376.0,9.12,-1.23,-0.08,0.12,0.07,0.12,-0.3125,1.75,525.4375,0.36444091796875,0.6588134765625,0.41217041015625,0.0655,-2.25,10.5625,-23.0,8.99,-1.31,stop,6
9.65,1673118.269936161,25,3,3,3,3,-382.0,9.03,-1.3,-0.14,0.03,0.0,0.17,0.0,1.875,525.3125,0.3646240234375,0.65875244140625,0.41217041015625,0.0651,-2.5625,10.5625,-23.0,8.99,-1.31,stop,6
9.66,1673118.284199874,25,3,3,3,3,-380.0,9.02,-1.29,-0.12,0.03,0.02,0.25,0.875,1.5,525.1875,0.36468505859375,0.6588134765625,0.41217041015625,0.0651,-2.5625,10.5625,-22.9375,8.99,-1.31,stop,6
9.67,1673118.284199874,25,3,3,3,3,-377.0,9.0,-1.3,-0.1,0.0,0.01,0.33,2.0625,1.625,524.9375,0.36480712890625,0.658935546875,0.4122314453125,0.0651,-2.5625,10.5625,-22.9375,8.99,-1.31,stop,6
9.68,1673118.314285242,25,3,3,3,3,-375.0,9.0,-1.25,-0.07,0.0,0.07,0.42,2.75,1.4375,524.625,0.3648681640625,0.65911865234375,0.4122314453125,0.0651,-2.5625,10.5625,-22.9375,8.99,-1.32,stop,6
9.69,1673118.314285242,25,3,3,3,3,-361.0,8.96,-1.2,0.05,-0.02,0.13,0.5,3.375,1.5,524.3125,0.364990234375,0.6593017578125,0.4122314453125,0.0651,-2.5625,10.5625,-22.9375,8.99,-1.33,stop,6
9.7,1673118.32889482,25,3,3,3,3,-361.0,8.95,-1.14,0.05,-0.04,0.19,0.56,3.875,1.5,523.9375,0.3651123046875,0.6595458984375,0.4122314453125,0.0647,-3.375,10.5625,-22.875,8.99,-1.33,stop,6
9.71,1673118.32889482,25,3,3,3,3,-364.0,8.96,-1.1,0.02,-0.03,0.23,0.53,3.875,1.6875,523.5625,0.36517333984375,0.6597900390625,0.4122314453125,0.0647,-3.375,10.5625,-22.875,8.99,-1.34,stop,6
9.72,1673118.344214889,25,3,3,3,3,-362.0,8.95,-1.1,0.03,-0.04,0.24,0.42,3.625,1.875,523.25,0.365234375,0.659912109375,0.412353515625,0.0647,-3.375,10.5625,-22.8125,8.99,-1.35,stop,6
9.73,1673118.344214889,25,3,3,3,3,-368.0,8.95,-1.09,-0.02,-0.03,0.25,0.3,3.3125,2.25,522.9375,0.36529541015625,0.6600341796875,0.4124755859375,0.0647,-3.375,10.5625,-22.8125,8.99,-1.35,stop,6
9.74,1673118.377980961,25,3,3,3,3,-368.0,8.92,-1.09,-0.03,-0.07,0.26,0.16,3.5,2.625,522.625,0.3653564453125,0.66009521484375,0.41265869140625,0.0647,-3.375,10.5625,-22.8125,9.0,-1.35,stop,6
9.75,1673118.377980961,25,3,3,3,3,-369.0,8.9,-1.08,-0.05,-0.09,0.27,0.1,3.4375,2.8125,522.375,0.3653564453125,0.66009521484375,0.41290283203125,0.0655,-2.25,11.375,-22.75,9.0,-1.35,stop,6
9.76,1673118.389939946,25,3,3,3,3,-356.0,8.81,-1.07,0.07,-0.18,0.28,0.03,3.1875,2.9375,522.125,0.36541748046875,0.66009521484375,0.4132080078125,0.0655,-2.25,11.375,-22.75,9.0,-1.35,stop,6
9.77,1673118.389939946,25,3,3,3,3,-350.0,8.79,-1.08,0.13,-0.21,0.27,-0.07,3.0,2.875,521.9375,0.36541748046875,0.66009521484375,0.4134521484375,0.0655,-2.25,11.375,-22.6875,9.0,-1.35,stop,6
9.78,1673118.405002608,25,3,3,3,3,-346.0,8.78,-1.11,0.16,-0.22,0.23,-0.19,2.375,2.75,521.75,0.36541748046875,0.6600341796875,0.41375732421875,0.0655,-2.25,11.375,-22.6875,9.0,-1.35,stop,6
9.79,1673118.405002608,25,3,3,3,3,-344.0,8.81,-1.16,0.17,-0.19,0.19,-0.3,1.5625,2.6875,521.6875,0.36541748046875,0.659912109375,0.41412353515625,0.0655,-2.25,11.375,-22.625,9.01,-1.35,stop,6
9.8,1673118.435974776,25,3,3,3,3,-348.0,8.89,-1.19,0.13,-0.12,0.15,-0.32,0.5625,2.625,521.625,0.365478515625,0.65972900390625,0.41436767578125,0.0651,-2.5625,11.375,-22.625,9.01,-1.34,stop,6
9.81,1673118.435974776,25,3,3,3,3,-357.0,8.95,-1.2,0.03,-0.06,0.14,-0.24,0.0625,2.625,521.625,0.36553955078125,0.6595458984375,0.41461181640625,0.0651,-2.5625,11.375,-22.5625,9.01,-1.34,stop,6
9.82,1673118.448991825,25,3,3,3,3,-362.0,8.97,-1.24,0.0,-0.03,0.09,-0.14,0.0,2.625,521.5625,0.36566162109375,0.659423828125,0.414794921875,0.0651,-2.5625,11.375,-22.5625,9.01,-1.34,stop,6
9.83,1673118.448991825,25,3,3,3,3,-364.0,9.03,-1.2,-0.03,0.01,0.13,-0.05,0.25,2.625,521.5,0.36578369140625,0.6593017578125,0.4149169921875,0.0651,-2.5625,11.375,-22.5,9.01,-1.34,stop,6
9.84,1673118.464374719,25,3,3,3,3,-366.0,9.19,-1.2,-0.06,0.17,0.14,0.0,0.625,2.25,521.375,0.3658447265625,0.65924072265625,0.41510009765625,0.0651,-2.5625,11.375,-22.5,9.02,-1.34,stop,6
9.85,1673118.464374719,25,3,3,3,3,-366.0,9.19,-1.23,-0.06,0.17,0.1,0.04,0.9375,2.25,521.25,0.365966796875,0.6591796875,0.41522216796875,0.0651,-4.375,11.375,-22.5,9.02,-1.34,stop,6
9.86,1673118.495241866,25,3,3,3,3,-365.0,9.23,-1.29,-0.05,0.21,0.05,0.07,1.375,1.9375,521.125,0.36602783203125,0.6591796875,0.41534423828125,0.0651,-4.375,11.375,-22.4375,9.02,-1.34,stop,6
9.87,1673118.495241866,25,3,3,3,3,-365.0,9.23,-1.37,-0.05,0.2,-0.02,0.14,1.875,1.5,520.875,0.3660888671875,0.65924072265625,0.41546630859375,0.0651,-4.375,11.375,-22.4375,9.02,-1.34,stop,6
9.88,1673118.510042729,25,3,3,3,3,-360.0,9.22,-1.44,-0.01,0.19,-0.09,0.26,2.1875,1.1875,520.6875,0.36614990234375,0.65936279296875,0.41546630859375,0.0651,-4.375,11.375,-22.4375,9.02,-1.35,stop,6
9.89,1673118.510042729,25,3,3,3,3,-357.0,9.18,-1.4,0.01,0.15,-0.05,0.45,2.625,1.125,520.375,0.3662109375,0.6595458984375,0.41546630859375,0.0651,-4.375,11.375,-22.375,9.02,-1.35,stop,6
9.9,1673118.526024622,25,3,3,3,3,-352.0,9.08,-1.39,0.06,0.06,-0.03,0.64,3.0,1.0,520.0625,0.3663330078125,0.6597900390625,0.41534423828125,0.0655,-3.6875,10.5625,-22.375,9.02,-1.36,stop,6
9.91,1673118.526024622,25,3,3,3,3,-353.0,8.99,-1.31,0.04,-0.02,0.06,0.76,3.9375,0.9375,519.625,0.366455078125,0.66009521484375,0.415283203125,0.0655,-3.6875,10.5625,-22.375,9.02,-1.37,stop,6
9.92,1673118.555715336,25,3,3,3,3,-351.0,8.95,-1.17,0.06,-0.06,0.2,0.8,4.1875,0.75,519.1875,0.3665771484375,0.66046142578125,0.4151611328125,0.0655,-3.6875,10.5625,-22.375,9.02,-1.38,stop,6
9.93,1673118.555715336,25,3,3,3,3,-353.0,8.88,-1.13,0.04,-0.13,0.25,0.7,4.5625,0.8125,518.75,0.36663818359375,0.6607666015625,0.41510009765625,0.0655,-3.6875,10.5625,-22.3125,9.02,-1.39,stop,6
9.94,1673118.570166305,25,3,3,3,3,-355.0,8.88,-1.1,0.01,-0.13,0.29,0.5,4.8125,0.8125,518.375,0.36663818359375,0.6610107421875,0.4151611328125,0.0655,-3.6875,10.5625,-22.3125,9.02,-1.39,stop,6
9.95,1673118.570166305,25,3,3,3,3,-357.0,8.88,-1.16,0.0,-0.13,0.23,0.21,4.4375,0.9375,518.125,0.3665771484375,0.66119384765625,0.41534423828125,0.0655,-3.375,11.6875,-22.3125,9.02,-1.4,stop,6
9.96,1673118.584927454,25,3,3,3,3,-353.0,8.87,-1.14,0.04,-0.15,0.25,-0.16,3.9375,0.5625,517.9375,0.36639404296875,0.6612548828125,0.41558837890625,0.0655,-3.375,11.6875,-22.3125,9.02,-1.4,stop,6
9.97,1673118.584927454,25,3,3,3,3,-356.0,8.95,-1.13,0.0,-0.07,0.26,-0.47,3.8125,0.6875,517.8125,0.36614990234375,0.6612548828125,0.41595458984375,0.0655,-3.375,11.6875,-22.3125,9.02,-1.39,stop,6
9.98,1673118.614397018,25,3,3,3,3,-357.0,9.0,-1.19,0.0,-0.01,0.2,-0.52,3.9375,0.4375,517.75,0.36578369140625,0.6612548828125,0.416259765625,0.0655,-3.375,11.6875,-22.3125,9.02,-1.39,stop,6
9.99,1673118.614397018,25,3,3,3,3,-340.0,9.03,-1.28,0.16,0.0,0.1,-0.49,3.3125,0.5,517.6875,0.36553955078125,0.6612548828125,0.4166259765625,0.0655,-3.375,11.6875,-22.25,9.02,-1.39,stop,6
10.0,1673118.631378707,25,3,3,3,3,-342.0,9.02,-1.27,0.13,0.0,0.11,-0.4,3.3125,0.5,517.5625,0.36529541015625,0.6612548828125,0.4168701171875,0.0647,-4.0625,11.375,-22.25,9.02,-1.38,stop,6
10.01,1673118.631378707,25,3,3,3,3,-343.0,9.01,-1.18,0.13,-0.01,0.19,-0.35,3.0625,0.25,517.5,0.3651123046875,0.6612548828125,0.41717529296875,0.0647,-4.0625,11.375,-22.25,9.02,-1.38,stop,6
10.02,1673118.645618697,25,3,3,3,3,-345.0,9.0,-1.2,0.1,-0.02,0.17,-0.35,2.0625,0.0625,517.4375,0.36492919921875,0.6612548828125,0.41741943359375,0.0647,-4.0625,11.375,-22.25,9.03,-1.38,stop,6
10.03,1673118.645618697,25,3,3,3,3,-349.0,8.98,-1.16,0.07,-0.04,0.21,-0.29,1.1875,0.0,517.4375,0.36480712890625,0.66119384765625,0.4176025390625,0.0647,-4.0625,11.375,-22.25,9.03,-1.37,stop,6
10.04,1673118.675062952,25,3,3,3,3,-349.0,8.98,-1.2,0.07,-0.04,0.16,-0.29,1.0,-0.3125,517.5,0.36468505859375,0.6611328125,0.41778564453125,0.0647,-4.0625,11.375,-22.25,9.03,-1.37,stop,6
10.05,1673118.675062952,25,3,3,3,3,-348.0,8.97,-1.23,0.07,-0.05,0.13,-0.29,0.4375,-0.1875,517.5625,0.36456298828125,0.6610107421875,0.41790771484375,0.0643,-4.0625,12.5625,-22.25,9.03,-1.37,stop,6
10.06,1673118.689663172,25,3,3,3,3,-350.0,8.99,-1.21,0.06,-0.03,0.14,-0.27,0.5625,0.0,517.625,0.364501953125,0.66094970703125,0.4180908203125,0.0643,-4.0625,12.5625,-22.25,9.03,-1.36,stop,6
10.07,1673118.689663172,25,3,3,3,3,-347.0,8.98,-1.27,0.09,-0.05,0.08,-0.25,0.8125,0.0625,517.625,0.3643798828125,0.660888671875,0.418212890625,0.0643,-4.0625,12.5625,-22.25,9.03,-1.36,stop,6
10.08,1673118.704857589,25,3,3,3,3,-341.0,8.96,-1.34,0.14,-0.06,0.01,-0.31,0.875,0.0625,517.625,0.3642578125,0.660888671875,0.41839599609375,0.0643,-4.0625,12.5625,-22.25,9.03,-1.36,stop,6
10.09,1673118.704857589,25,3,3,3,3,-344.0,8.9,-1.35,0.11,-0.12,0.0,-0.4,0.75,-0.0625,517.6875,0.3641357421875,0.66082763671875,0.4185791015625,0.0643,-4.0625,12.5625,-22.25,9.03,-1.35,stop,6
10.1,1673118.736059737,25,3,3,3,3,-344.0,8.84,-1.37,0.11,-0.18,-0.01,-0.51,0.625,0.0,517.75,0.36395263671875,0.66070556640625,0.41876220703125,0.0645,-3.6875,12.0625,-22.25,9.03,-1.35,stop,6
10.11,1673118.736059737,25,3,3,3,3,-341.0,8.79,-1.37,0.14,-0.24,-0.02,-0.57,-0.0625,-0.0625,517.875,0.36383056640625,0.66058349609375,0.41900634765625,0.0645,-3.6875,12.0625,-22.25,9.03,-1.34,stop,6
10.12,1673118.749749679,25,3,3,3,3,-338.0,8.73,-1.38,0.17,-0.29,-0.04,-0.55,-0.5,0.0,517.9375,0.3636474609375,0.66046142578125,0.419189453125,0.0645,-3.6875,12.0625,-22.25,9.03,-1.34,stop,6
10.13,1673118.749749679,25,3,3,3,3,-335.0,8.71,-1.38,0.2,-0.32,-0.04,-0.52,-0.75,0.0,518.0625,0.36358642578125,0.6602783203125,0.41937255859375,0.0645,-3.6875,12.0625,-22.25,9.03,-1.33,stop,6
10.14,1673118.764344853,25,3,3,3,3,-339.0,8.56,-1.39,0.16,-0.47,-0.06,-0.5,-1.1875,0.0,518.25,0.36346435546875,0.66015625,0.41949462890625,0.0645,-3.6875,12.0625,-22.25,9.03,-1.33,stop,6
10.15,1673118.764344853,25,3,3,3,3,-344.0,8.53,-1.41,0.11,-0.5,-0.08,-0.56,-1.25,0.0,518.4375,0.36334228515625,0.65997314453125,0.41961669921875,0.0637,-4.0625,12.0625,-22.25,9.03,-1.32,stop,6
10.16,1673118.795573246,25,3,3,3,3,-347.0,8.62,-1.38,0.08,-0.41,-0.06,-0.71,-1.8125,0.0,518.6875,0.36322021484375,0.65972900390625,0.4197998046875,0.0637,-4.0625,12.0625,-22.25,9.04,-1.31,stop,6
10.17,1673118.795573246,25,3,3,3,3,-353.0,8.75,-1.4,0.03,-0.28,-0.09,-0.86,-1.9375,-0.125,518.9375,0.36309814453125,0.65948486328125,0.4200439453125,0.0637,-4.0625,12.0625,-22.25,9.04,-1.3,stop,6
10.17,1673118.800751957,25,3,3,3,3,-353.0,8.75,-1.4,0.03,-0.28,-0.09,-0.86,-1.9375,-0.125,518.9375,0.36309814453125,0.65948486328125,0.4200439453125,0.0637,-4.0625,12.0625,-22.25,9.04,-1.3,stop,6
10.18,1673118.800751957,25,3,3,3,3,-363.0,9.12,-1.5,-0.06,0.07,-0.2,-0.98,-2.4375,-0.0625,519.25,0.3629150390625,0.6591796875,0.4202880859375,0.0637,-4.0625,12.0625,-22.25,9.04,-1.29,stop,6
10.19,1673118.825570602,25,3,3,3,3,-370.0,9.3,-1.61,-0.13,0.25,-0.33,-1.1,-3.125,-0.125,519.6875,0.36273193359375,0.65875244140625,0.42059326171875,0.0637,-4.0625,12.0625,-22.25,9.04,-1.28,stop,6
10.2,1673118.825570602,25,3,3,3,3,-375.0,9.4,-1.73,-0.18,0.36,-0.46,-1.21,-3.4375,0.0,520.125,0.36248779296875,0.6583251953125,0.4208984375,0.0643,-3.6875,11.6875,-22.25,9.04,-1.27,stop,6
10.21,1673118.839880701,25,3,3,3,3,-377.0,9.44,-1.8,-0.2,0.39,-0.54,-1.2,-3.625,0.0,520.625,0.3623046875,0.65789794921875,0.42120361328125,0.0643,-3.6875,11.6875,-22.25,9.04,-1.25,stop,6
10.22,1673118.839880701,25,3,3,3,3,-375.0,9.36,-1.89,-0.18,0.31,-0.65,-1.17,-3.5,0.25,521.0625,0.36212158203125,0.657470703125,0.42156982421875,0.0643,-3.6875,11.6875,-22.25,9.04,-1.24,stop,6
10.23,1673118.856508915,25,3,3,3,3,-370.0,9.23,-1.88,-0.13,0.18,-0.65,-1.19,-2.9375,0.375,521.4375,0.36187744140625,0.65704345703125,0.421875,0.0643,-3.6875,11.6875,-22.25,9.05,-1.22,stop,6
10.24,1673118.856508915,25,3,3,3,3,-363.0,9.1,-1.78,-0.06,0.05,-0.57,-1.22,-2.1875,0.25,521.8125,0.36163330078125,0.65667724609375,0.4222412109375,0.0643,-3.6875,11.6875,-22.25,9.05,-1.21,stop,6
10.25,1673118.884837732,25,3,3,3,3,-344.0,8.86,-1.64,0.11,-0.19,-0.43,-1.26,-1.5,0.5625,522.1875,0.36138916015625,0.65631103515625,0.42266845703125,0.0637,-3.6875,12.0625,-22.25,9.05,-1.2,stop,6
10.26,1673118.884837732,25,3,3,3,3,-343.0,8.79,-1.56,0.12,-0.25,-0.37,-1.29,-0.3125,0.5,522.4375,0.36102294921875,0.656005859375,0.42315673828125,0.0637,-3.6875,12.0625,-22.25,9.05,-1.18,stop,6
10.27,1673118.899360112,25,3,3,3,3,-335.0,8.71,-1.52,0.2,-0.34,-0.35,-1.45,0.0625,0.75,522.6875,0.36065673828125,0.6556396484375,0.4237060546875,0.0637,-3.6875,12.0625,-22.25,9.05,-1.17,stop,6
10.28,1673118.899360112,25,3,3,3,3,-332.0,8.65,-1.49,0.23,-0.4,-0.33,-1.62,0.1875,0.875,523.0,0.3602294921875,0.6552734375,0.42431640625,0.0637,-3.6875,12.0625,-22.25,9.06,-1.15,stop,6
10.29,1673118.914361048,25,3,3,3,3,-341.0,8.65,-1.48,0.15,-0.4,-0.34,-1.81,0.0625,0.875,523.3125,0.35980224609375,0.65478515625,0.42498779296875,0.0637,-3.6875,12.0625,-22.25,9.06,-1.14,stop,6
10.3,1673118.914361048,25,3,3,3,3,-346.0,8.61,-1.53,0.09,-0.44,-0.41,-2.03,0.125,1.0,523.6875,0.35931396484375,0.654296875,0.42578125,0.0643,-3.6875,11.6875,-22.25,9.06,-1.12,stop,6
10.31,1673118.946924117,25,3,3,3,3,-352.0,8.59,-1.54,0.04,-0.47,-0.43,-2.13,0.375,0.6875,524.0625,0.35870361328125,0.65374755859375,0.42657470703125,0.0643,-3.6875,11.6875,-22.25,9.07,-1.1,stop,6
10.32,1673118.946924117,25,3,3,3,3,-359.0,8.62,-1.52,-0.03,-0.44,-0.44,-2.17,0.6875,0.5625,524.4375,0.358154296875,0.65325927734375,0.4273681640625,0.0643,-3.6875,11.6875,-22.25,9.07,-1.07,stop,6
10.33,1673118.959846969,25,3,3,3,3,-365.0,8.58,-1.41,-0.09,-0.49,-0.34,-2.17,1.0625,0.375,524.625,0.3575439453125,0.65313720703125,0.4278564453125,0.0643,-3.6875,11.6875,-22.25,9.07,-1.06,moving,6
10.34,1673118.959846969,25,3,3,3,3,-362.0,8.51,-1.33,-0.05,-0.55,-0.28,-2.17,1.4375,0.0,524.875,0.35687255859375,0.65301513671875,0.42840576171875,0.0643,-3.6875,11.6875,-22.25,9.07,-1.05,moving,6
10.35,1673118.975476648,25,3,3,3,3,-364.0,8.45,-1.2,-0.07,-0.62,-0.16,-2.19,1.75,-0.5,525.125,0.35614013671875,0.65277099609375,0.42901611328125,0.0647,-3.6875,11.375,-22.25,9.07,-1.03,moving,6
10.36,1673118.975476648,25,3,3,3,3,-360.0,8.31,-1.13,-0.03,-0.76,-0.11,-2.3,1.6875,-1.0625,525.5625,0.3553466796875,0.65234375,0.4298095703125,0.0647,-3.6875,11.375,-22.3125,9.07,-1.01,moving,6
10.37,1673119.005187016,25,3,3,3,3,-343.0,7.57,-1.23,0.13,-1.5,-0.24,-2.52,2.0,-1.375,526.0,0.3544921875,0.65191650390625,0.43072509765625,0.0647,-3.6875,11.375,-22.3125,9.07,-0.99,moving,6
10.38,1673119.005187016,25,3,3,3,3,-340.0,7.07,-1.35,0.17,-2.0,-0.38,-2.99,2.6875,-2.1875,526.5,0.35345458984375,0.6513671875,0.4317626953125,0.0647,-3.6875,11.375,-22.3125,9.08,-0.96,moving,6
10.39,1673119.021215418,25,3,3,3,3,-336.0,6.61,-1.51,0.21,-2.46,-0.58,-3.87,4.125,-2.875,527.125,0.35205078125,0.6507568359375,0.43310546875,0.0647,-3.6875,11.375,-22.3125,9.08,-0.93,moving,6
10.4,1673119.021215418,25,3,3,3,3,-336.0,6.37,-1.68,0.21,-2.7,-0.8,-5.09,4.75,-4.0,528.0,0.3502197265625,0.64990234375,0.43487548828125,0.0651,-3.6875,12.0625,-22.375,9.08,-0.88,moving,6
10.41,1673119.050245569,25,3,3,3,3,-342.0,7.27,-2.12,0.16,-1.81,-1.3,-6.39,3.5625,-5.4375,529.25,0.34796142578125,0.64874267578125,0.43701171875,0.0651,-3.6875,12.0625,-22.4375,9.08,-0.82,moving,6
10.42,1673119.050245569,25,3,3,3,3,-351.0,8.19,-2.35,0.09,-0.89,-1.6,-7.44,3.4375,-7.1875,530.75,0.34527587890625,0.6473388671875,0.43939208984375,0.0651,-3.6875,12.0625,-22.5,9.08,-0.75,moving,6
10.43,1673119.065516647,25,3,3,3,3,-413.0,9.98,-2.39,-0.52,0.89,-1.72,-7.72,4.125,-8.625,532.375,0.34246826171875,0.64593505859375,0.44183349609375,0.0651,-3.6875,12.0625,-22.5625,9.08,-0.67,moving,6
10.44,1673119.065516647,25,3,3,3,3,-727.0,17.33,-0.98,-3.64,8.25,-0.37,-7.18,3.75,-10.375,533.875,0.3397216796875,0.6446533203125,0.44403076171875,0.0651,-3.6875,12.0625,-22.6875,9.08,-0.6,moving,6
10.45,1673119.079885055,25,3,3,3,3,-727.0,17.33,-0.98,-3.64,8.25,-0.37,-7.18,3.75,-10.375,533.875,0.3397216796875,0.6446533203125,0.44403076171875,0.0651,-3.6875,12.0625,-22.6875,9.08,-0.6,moving,6
10.45,1673119.079885055,25,3,3,3,3,-805.0,21.44,-0.23,-4.4,12.35,0.3,-6.1,-0.6875,-12.5,535.625,0.3372802734375,0.6435546875,0.445556640625,0.0647,-4.375,11.6875,-22.8125,9.08,-0.54,moving,6
10.46,1673119.094812423,25,3,3,3,3,-763.0,24.84,-0.36,-3.95,15.77,0.13,-4.64,-8.25,-15.1875,537.5625,0.33544921875,0.6424560546875,0.44622802734375,0.0647,-4.375,11.6875,-22.9375,9.07,-0.49,moving,6
10.47,1673119.094812423,25,3,3,3,3,-719.0,27.5,-1.43,-3.49,18.43,-0.97,-2.98,-16.75,-12.8125,539.5625,0.33453369140625,0.641357421875,0.44622802734375,0.0647,-4.375,11.6875,-23.125,9.07,-0.45,moving,6
10.48,1673119.10967192,25,3,3,3,3,-623.0,25.84,-1.69,-2.51,16.77,-1.26,-1.32,-14.3125,-9.5625,541.0,0.33416748046875,0.64068603515625,0.44580078125,0.0647,-4.375,11.6875,-23.1875,9.06,-0.43,moving,6
10.49,1673119.10967192,25,3,3,3,3,-620.0,23.01,-0.39,-2.48,13.95,0.07,2.45,6.9375,-0.6875,540.1875,0.33453369140625,0.6416015625,0.44512939453125,0.0647,-4.375,11.6875,-23.1875,9.06,-0.46,moving,6
10.5,1673119.141134038,25,3,3,3,3,-510.0,20.69,0.83,-1.4,11.62,1.35,5.42,1.0625,11.125,538.625,0.33673095703125,0.64263916015625,0.44378662109375,0.0647,-3.375,11.375,-23.0625,9.06,-0.51,moving,6
10.51,1673119.141134038,25,3,3,3,3,-438.0,16.79,1.28,-0.7,7.71,1.83,4.61,-21.0625,14.625,538.375,0.33966064453125,0.642333984375,0.44219970703125,0.0647,-3.375,11.375,-22.9375,9.07,-0.54,moving,6
10.52,1673119.155300623,25,3,3,3,3,-503.0,10.13,1.29,-1.38,1.04,1.84,2.46,-37.375,17.9375,539.375,0.34283447265625,0.64068603515625,0.4410400390625,0.0647,-3.375,11.375,-22.8125,9.08,-0.54,moving,6
10.53,1673119.155300623,25,3,3,3,3,-578.0,7.49,1.58,-2.16,-1.6,2.12,1.19,-32.25,23.375,540.0625,0.34576416015625,0.6387939453125,0.44073486328125,0.0647,-3.375,11.375,-22.5625,9.09,-0.54,moving,6
10.54,1673119.169666386,25,3,3,3,3,-669.0,5.09,2.09,-3.11,-4.02,2.66,2.8,-1.25,26.5,538.5625,0.34808349609375,0.63861083984375,0.44097900390625,0.0647,-3.375,11.375,-22.3125,9.11,-0.56,moving,6
10.55,1673119.169666386,25,3,3,3,3,-689.0,3.08,2.39,-3.35,-6.04,3.02,4.53,23.875,25.75,535.25,0.34991455078125,0.6400146484375,0.4412841796875,0.0634,-4.375,10.1875,-22.0625,9.12,-0.62,moving,6
10.56,1673119.185830367,25,3,3,3,3,-464.0,1.73,1.36,-1.14,-7.4,2.05,4.82,23.0,21.25,532.1875,0.3515625,0.64154052734375,0.4412841796875,0.0634,-4.375,10.1875,-21.8125,9.13,-0.68,moving,6
10.57,1673119.185830367,25,3,3,3,3,-322.0,0.69,0.79,0.24,-8.44,1.52,4.27,8.9375,16.8125,530.1875,0.35333251953125,0.6424560546875,0.44085693359375,0.0634,-4.375,10.1875,-21.625,9.14,-0.73,moving,6
10.58,1673119.214956019,25,3,3,3,3,-223.0,-0.52,0.27,1.21,-9.66,1.05,3.54,-0.375,13.125,528.9375,0.3551025390625,0.64288330078125,0.440185546875,0.0634,-4.375,10.1875,-21.5,9.14,-0.77,moving,6
10.59,1673119.214956019,25,3,3,3,3,-37.0,-1.64,-0.89,3.05,-10.79,-0.09,2.83,-5.625,12.0,528.25,0.35675048828125,0.6429443359375,0.4395751953125,0.0634,-4.375,10.1875,-21.375,9.15,-0.79,moving,6
10.6,1673119.229959111,25,3,3,3,3,71.0,-1.84,-1.13,4.13,-11.0,-0.32,2.07,-7.5625,9.875,527.875,0.35821533203125,0.642822265625,0.43902587890625,0.0634,-6.25,11.375,-21.3125,9.15,-0.81,moving,6
10.61,1673119.229959111,25,3,3,3,3,152.0,-2.2,-1.29,4.92,-11.36,-0.45,2.05,-0.5,9.9375,527.0625,0.35931396484375,0.64300537109375,0.43878173828125,0.0634,-6.25,11.375,-21.1875,9.16,-0.83,moving,6
10.62,1673119.277312708,25,3,3,3,3,186.0,-2.92,-0.98,5.24,-12.08,-0.12,2.17,5.5,11.5,525.875,0.3603515625,0.64337158203125,0.438720703125,0.0634,-6.25,11.375,-21.125,9.16,-0.85,moving,6
10.63,1673119.277312708,25,3,3,3,3,180.0,-3.16,-0.52,5.16,-12.33,0.37,3.62,9.1875,9.9375,524.25,0.361572265625,0.64434814453125,0.43817138671875,0.0634,-6.25,11.375,-21.0,9.16,-0.9,moving,6
10.64,1673119.282533004,25,3,3,3,3,136.0,-2.12,-0.18,4.7,-11.29,0.77,5.1,12.125,10.375,522.125,0.36309814453125,0.645751953125,0.43719482421875,0.0634,-6.25,11.375,-20.875,9.16,-0.95,moving,6
10.65,1673119.282533004,25,3,3,3,3,91.0,-1.34,-0.72,4.23,-10.51,0.3,5.56,13.875,10.0,519.8125,0.36468505859375,0.64739990234375,0.43609619140625,0.064,-7.0625,9.375,-20.75,9.16,-1.02,moving,6
10.66,1673119.292192143,25,3,3,3,3,-25.0,0.02,-0.53,3.06,-9.13,0.54,4.86,18.625,3.3125,517.625,0.365478515625,0.6492919921875,0.43511962890625,0.064,-7.0625,9.375,-20.6875,9.16,-1.08,moving,6
10.67,1673119.292192143,25,3,3,3,3,-155.0,2.39,0.76,1.76,-6.76,1.89,4.02,25.3125,-5.9375,515.5625,0.36529541015625,0.65155029296875,0.43426513671875,0.064,-7.0625,9.375,-20.75,9.15,-1.13,moving,6
10.68,1673119.320344324,25,3,3,3,3,-108.0,2.41,0.55,2.23,-6.73,1.73,3.95,12.3125,-3.5625,514.125,0.36572265625,0.65313720703125,0.43310546875,0.064,-7.0625,9.375,-20.75,9.14,-1.18,moving,6
10.69,1673119.320344324,25,3,3,3,3,-64.0,2.57,0.39,2.68,-6.57,1.62,4.17,-0.625,0.25,513.375,0.36688232421875,0.65411376953125,0.43157958984375,0.064,-7.0625,9.375,-20.75,9.14,-1.22,moving,6
10.7,1673119.335319585,25,3,3,3,3,-21.0,2.47,0.15,3.11,-6.66,1.41,4.45,-7.125,1.9375,512.75,0.36846923828125,0.65478515625,0.4298095703125,0.0619,-7.75,10.1875,-20.75,9.13,-1.26,moving,6
10.7,1673119.335319585,25,3,3,3,3,-21.0,2.47,0.15,3.11,-6.66,1.41,4.45,-7.125,1.9375,512.75,0.36846923828125,0.65478515625,0.4298095703125,0.0619,-7.75,10.1875,-20.75,9.13,-1.26,moving,6
10.71,1673119.340961756,25,3,3,3,3,64.0,2.24,-0.4,3.96,-6.88,0.91,5.75,-11.5,3.3125,512.125,0.37066650390625,0.655517578125,0.42755126953125,0.0619,-7.75,10.1875,-20.75,9.13,-1.31,moving,6
10.72,1673119.340961756,25,3,3,3,3,120.0,2.15,-0.85,4.52,-6.96,0.53,7.59,-16.75,5.875,511.3125,0.37371826171875,0.65631103515625,0.424560546875,0.0619,-7.75,10.1875,-20.6875,9.12,-1.38,moving,6
10.73,1673119.365133021,25,3,3,3,3,132.0,2.24,-1.09,4.63,-6.87,0.35,8.49,-19.75,8.5625,510.375,0.377197265625,0.65716552734375,0.4212646484375,0.0619,-7.75,10.1875,-20.625,9.11,-1.45,moving,6
10.74,1673119.365133021,25,3,3,3,3,44.0,3.03,-1.45,3.74,-6.07,0.06,8.04,-22.0,10.9375,509.5625,0.380859375,0.65765380859375,0.4180908203125,0.0619,-7.75,10.1875,-20.5625,9.11,-1.52,moving,6
10.75,1673119.380537155,25,3,3,3,3,-24.0,3.74,-1.32,3.03,-5.36,0.24,6.33,-27.125,11.4375,509.375,0.38421630859375,0.65753173828125,0.4154052734375,0.0623,-7.0625,10.1875,-20.5,9.1,-1.56,moving,6
10.76,1673119.380537155,25,3,3,3,3,-130.0,5.23,-0.75,1.97,-3.86,0.84,4.66,-31.9375,9.3125,509.875,0.38714599609375,0.6568603515625,0.4130859375,0.0623,-7.0625,10.1875,-20.4375,9.1,-1.59,moving,6
10.77,1673119.410764043,25,3,3,3,3,-300.0,8.46,0.54,0.26,-0.63,2.16,4.01,-38.6875,8.1875,511.0,0.39013671875,0.65582275390625,0.41070556640625,0.0623,-7.0625,10.1875,-20.4375,9.1,-1.61,moving,6
10.78,1673119.410764043,25,3,3,3,3,-868.0,22.79,5.47,-5.4,13.69,7.1,3.93,-54.8125,10.0,513.0,0.39373779296875,0.65399169921875,0.4078369140625,0.0623,-7.0625,10.1875,-20.4375,9.09,-1.62,moving,6
10.79,1673119.425147099,25,3,3,3,3,-1652.0,38.3,6.69,-13.24,29.2,8.3,3.56,-74.9375,15.6875,516.0,0.39825439453125,0.65093994140625,0.40472412109375,0.0623,-7.0625,10.1875,-20.4375,9.1,-1.61,moving,6
10.8,1673119.425147099,25,3,3,3,3,-2106.0,39.04,8.22,-17.77,29.92,9.72,-5.45,-109.25,9.375,523.1875,0.401123046875,0.64453125,0.40325927734375,0.063,-6.6875,7.875,-20.5,9.11,-1.49,moving,6
10.81,1673119.439978154,25,3,3,3,3,-1861.0,38.99,5.12,-15.31,29.83,6.27,-28.27,-109.375,5.25,535.5625,0.39727783203125,0.63311767578125,0.4095458984375,0.063,-6.6875,7.875,-20.625,9.16,-1.15,moving,6
10.82,1673119.439978154,25,3,3,3,3,-1474.0,39.04,-19.68,-11.4,29.84,-19.08,-50.9,-61.1875,-15.3125,550.6875,0.38397216796875,0.6192626953125,0.42413330078125,0.063,-6.6875,7.875,-20.8125,9.2,-0.6,moving,6
10.83,1673119.455148727,25,3,3,3,3,-1147.0,37.12,-13.99,-8.11,27.91,-13.86,-47.79,14.0,-14.875,560.5625,0.36846923828125,0.609130859375,0.43988037109375,0.063,-6.6875,7.875,-21.0,9.21,-0.13,moving,6
10.84,1673119.455148727,25,3,3,3,3,-573.0,25.7,-8.7,-2.34,16.5,-8.79,-25.82,67.8125,-17.8125,562.8125,0.357177734375,0.606689453125,0.44976806640625,0.063,-6.6875,7.875,-21.125,9.2,0.08,moving,6
10.85,1673119.501619593,25,3,3,3,3,-383.0,19.37,-4.62,-0.44,10.17,-4.56,14.75,-0.25,-0.125,559.875,0.361572265625,0.61029052734375,0.44482421875,0.063,-4.875,4.0,-21.125,9.2,-0.06,moving,6
10.86,1673119.501619593,25,3,3,3,3,-530.0,12.31,2.37,-1.93,3.1,2.77,33.93,-14.0625,13.75,553.1875,0.37286376953125,0.6173095703125,0.4337158203125,0.063,-4.875,4.0,-21.0,9.2,-0.39,moving,6
10.87,1673119.507835535,25,3,3,3,3,-391.0,8.65,1.01,-0.55,-0.52,1.73,32.77,-9.4375,2.625,546.6875,0.38299560546875,0.6243896484375,0.42242431640625,0.063,-4.875,4.0,-21.0,9.18,-0.71,moving,6
10.88,1673119.507835535,25,3,3,3,3,-276.0,5.54,1.04,0.61,-3.61,2.0,25.51,-11.4375,-6.5625,542.0625,0.39044189453125,0.6298828125,0.41302490234375,0.063,-4.875,4.0,-21.0625,9.15,-0.96,moving,6
10.89,1673119.514173914,25,3,3,3,3,-134.0,1.98,0.29,2.05,-7.14,1.4,15.16,-13.1875,-10.375,539.875,0.39471435546875,0.633056640625,0.4068603515625,0.063,-4.875,4.0,-21.1875,9.13,-1.1,moving,6
10.9,1673119.514173914,25,3,3,3,3,14.0,-1.68,-0.3,3.55,-10.79,0.9,10.89,-5.8125,-8.8125,538.125,0.39752197265625,0.63543701171875,0.4024658203125,0.0634,-6.0,5.875,-21.3125,9.11,-1.21,moving,6
10.91,1673119.545947759,25,3,3,3,3,106.0,-2.74,-0.49,4.48,-11.84,0.83,11.79,-1.6875,-4.1875,535.75,0.40069580078125,0.63812255859375,0.39813232421875,0.0634,-6.0,5.875,-21.3125,9.09,-1.32,moving,6
10.92,1673119.545947759,25,3,3,3,3,193.0,-3.52,-0.52,5.36,-12.59,0.91,12.8,-18.375,-4.5,534.0625,0.40472412109375,0.64019775390625,0.392822265625,0.0634,-6.0,5.875,-21.4375,9.07,-1.44,moving,6
10.93,1673119.560198206,25,3,3,3,3,241.0,-5.19,-0.71,5.86,-14.24,0.85,14.02,-33.1875,-7.25,533.0625,0.409423828125,0.64190673828125,0.38641357421875,0.0634,-6.0,5.875,-21.5625,9.04,-1.56,moving,6
10.94,1673119.560198206,25,3,3,3,3,215.0,-5.14,-0.47,5.64,-14.15,1.2,13.44,-29.3125,-16.1875,532.1875,0.413330078125,0.64398193359375,0.37994384765625,0.0634,-6.0,5.875,-21.75,9.01,-1.67,moving,6
10.95,1673119.574413172,25,3,3,3,3,212.0,-4.84,-0.18,5.62,-13.82,1.58,8.15,24.9375,-14.125,529.375,0.41400146484375,0.64727783203125,0.3773193359375,0.064,-6.6875,5.1875,-21.8125,8.98,-1.77,moving,6
10.96,1673119.574413172,25,3,3,3,3,156.0,-3.63,0.17,5.08,-12.59,2.04,8.15,24.9375,-14.125,526.5,0.4146728515625,0.65057373046875,0.37469482421875,0.064,-6.6875,5.1875,-21.9375,8.96,-1.86,moving,6
10.96,1673119.589457199,25,3,3,3,3,156.0,-3.63,0.17,5.08,-12.59,2.04,8.15,24.9375,-14.125,526.5,0.4146728515625,0.65057373046875,0.37469482421875,0.064,-6.6875,5.1875,-21.9375,8.96,-1.86,moving,6
10.97,1673119.589457199,25,3,3,3,3,-93.0,-1.88,1.54,2.55,-10.83,3.48,3.64,57.9375,-2.6875,522.375,0.41363525390625,0.654052734375,0.3753662109375,0.064,-6.6875,5.1875,-21.8125,8.95,-1.93,moving,6
10.98,1673119.620494267,25,3,3,3,3,-190.0,-1.72,2.33,1.56,-10.68,4.29,-2.32,68.25,0.25,518.9375,0.4107666015625,0.65655517578125,0.378662109375,0.064,-6.6875,5.1875,-21.6875,8.95,-1.95,moving,6
10.99,1673119.620494267,25,3,3,3,3,-285.0,-0.99,2.63,0.6,-9.96,4.56,-5.88,58.875,-3.875,516.9375,0.40692138671875,0.6580810546875,0.3826904296875,0.064,-6.6875,5.1875,-21.625,8.96,-1.93,moving,6
11.0,1673119.635455937,25,3,3,3,3,-301.0,-0.1,2.67,0.43,-9.09,4.55,-7.9,25.375,-2.25,517.3125,0.40374755859375,0.65765380859375,0.38629150390625,0.0643,-6.6875,7.0625,-21.5625,8.98,-1.87,moving,6
11.01,1673119.635455937,25,3,3,3,3,-189.0,1.01,2.41,1.56,-7.98,4.22,-7.9,25.375,-2.25,517.6875,0.40057373046875,0.65716552734375,0.38995361328125,0.0643,-6.6875,7.0625,-21.5625,8.99,-1.81,moving,6
11.02,1673119.650357508,25,3,3,3,3,-209.0,1.51,2.46,1.35,-7.49,4.21,-7.26,12.75,-2.4375,518.6875,0.39801025390625,0.65625,0.39288330078125,0.0643,-6.6875,7.0625,-21.5625,9.01,-1.74,moving,6
11.03,1673119.650357508,25,3,3,3,3,-192.0,1.64,1.97,1.53,-7.37,3.67,-5.9,3.8125,-4.6875,519.9375,0.39593505859375,0.65533447265625,0.3948974609375,0.0643,-6.6875,7.0625,-21.5625,9.01,-1.69,moving,6
11.04,1673119.680347824,25,3,3,3,3,-140.0,1.68,1.26,2.06,-7.33,2.91,-3.91,-4.75,-5.125,521.3125,0.39471435546875,0.6544189453125,0.39593505859375,0.0643,-6.6875,7.0625,-21.625,9.02,-1.64,moving,6
11.05,1673119.680347824,25,3,3,3,3,-70.0,1.76,-0.13,2.77,-7.25,1.51,0.41,-13.625,-7.0,522.25,0.3948974609375,0.6541748046875,0.39495849609375,0.0637,-7.5,9.0625,-21.75,9.01,-1.64,moving,6
11.06,1673119.695160527,25,3,3,3,3,-41.0,1.27,-0.87,3.08,-7.73,0.76,0.41,-13.625,-7.0,523.25,0.39508056640625,0.65386962890625,0.39404296875,0.0637,-7.5,9.0625,-21.8125,9.01,-1.64,moving,6
11.07,1673119.695160527,25,3,3,3,3,-35.0,0.82,-1.18,3.16,-8.17,0.46,1.77,-16.625,-7.75,524.125,0.39569091796875,0.65380859375,0.39251708984375,0.0637,-7.5,9.0625,-21.9375,9.0,-1.64,moving,6
11.08,1673119.710165288,25,3,3,3,3,-14.0,0.0,-1.44,3.38,-9.0,0.22,3.54,-9.625,-8.625,524.1875,0.396484375,0.6544189453125,0.3905029296875,0.0637,-7.5,9.0625,-22.0625,8.99,-1.67,moving,6
11.09,1673119.710165288,25,3,3,3,3,0.0,-0.26,-1.44,3.55,-9.24,0.26,4.59,-4.9375,-9.625,523.8125,0.39739990234375,0.655517578125,0.38824462890625,0.0637,-7.5,9.0625,-22.1875,8.97,-1.71,moving,6
11.1,1673119.742208419,25,3,3,3,3,17.0,-0.37,-1.59,3.73,-9.33,0.17,5.02,4.0,-10.6875,522.875,0.39801025390625,0.6571044921875,0.3861083984375,0.064,-6.25,7.875,-22.25,8.96,-1.76,moving,6
11.11,1673119.742208419,25,3,3,3,3,10.0,-0.35,-1.67,3.68,-9.3,0.13,3.88,5.25,-10.75,522.0625,0.3983154296875,0.65850830078125,0.3843994140625,0.064,-6.25,7.875,-22.375,8.94,-1.81,moving,6
11.12,1673119.772353724,25,3,3,3,3,-29.0,0.62,-1.77,3.29,-8.3,0.06,2.48,5.125,-10.875,521.625,0.398193359375,0.65966796875,0.38323974609375,0.064,-6.25,7.875,-22.4375,8.93,-1.83,moving,6
11.13,1673119.772353724,25,3,3,3,3,-91.0,2.06,-1.34,2.7,-6.85,0.5,1.11,5.5625,-10.8125,521.375,0.39764404296875,0.6605224609375,0.38250732421875,0.064,-6.25,7.875,-22.5625,8.92,-1.85,moving,6
11.14,1673119.785040288,25,3,3,3,3,-193.0,4.46,-0.6,1.69,-4.45,1.24,0.01,7.25,-12.1875,521.375,0.396728515625,0.6612548828125,0.3822021484375,0.064,-6.25,7.875,-22.625,8.91,-1.85,moving,6
11.15,1673119.785040288,25,3,3,3,3,-364.0,8.3,1.17,0.0,-0.6,3.02,-0.67,4.8125,-9.625,521.625,0.39581298828125,0.66168212890625,0.3822021484375,0.0637,-5.25,7.875,-22.75,8.91,-1.85,moving,6
11.16,1673119.800118128,25,3,3,3,3,-1439.0,30.43,8.54,-10.77,21.51,10.42,0.28,32.3125,5.3125,519.4375,0.39508056640625,0.6629638671875,0.38348388671875,0.0637,-5.25,7.875,-22.625,8.91,-1.87,moving,6
11.17,1673119.800118128,25,3,3,3,3,-2321.0,39.04,10.68,-19.53,30.1,12.36,-15.08,-81.875,-16.4375,528.1875,0.39263916015625,0.65673828125,0.38531494140625,0.0637,-5.25,7.875,-22.9375,8.93,-1.67,moving,6
11.18,1673119.815418258,25,3,3,3,3,-2516.0,38.93,16.16,-21.36,29.96,17.28,-44.92,-178.4375,-53.25,550.125,0.38275146484375,0.64080810546875,0.39276123046875,0.0637,-5.25,7.875,-23.75,8.96,-1.12,moving,6
11.19,1673119.815418258,25,3,3,3,3,-1812.0,39.04,11.45,-14.18,30.07,11.74,-71.41,-186.5625,-75.8125,578.25,0.3636474609375,0.61871337890625,0.40753173828125,0.0637,-5.25,7.875,-24.625,8.97,-0.29,moving,6
11.2,1673119.829658656,25,3,3,3,3,-2346.0,39.04,-29.04,-19.53,30.06,-29.39,-63.59,-26.75,9.25,592.0,0.34527587890625,0.6025390625,0.4283447265625,0.0643,-3.5,5.5,-24.5625,8.97,0.34,moving,6
11.21,1673119.829658656,25,3,3,3,3,-1059.0,37.12,-27.31,-6.62,28.18,-27.99,-40.78,103.6875,-20.125,594.9375,0.32733154296875,0.59869384765625,0.4437255859375,0.0643,-3.5,5.5,-24.8125,8.94,0.67,moving,6
11.22,1673119.846161422,25,3,3,3,3,-1001.0,22.41,-11.2,-6.0,13.49,-11.92,-6.93,42.5,-21.875,594.8125,0.32232666015625,0.59979248046875,0.446044921875,0.0643,-3.5,5.5,-25.0625,8.91,0.71,moving,6
11.22,1673119.846161422,25,3,3,3,3,-1001.0,22.41,-11.2,-6.0,13.49,-11.92,-6.93,42.5,-21.875,594.8125,0.32232666015625,0.59979248046875,0.446044921875,0.0643,-3.5,5.5,-25.0625,8.91,0.71,moving,6
11.23,1673119.860448979,25,3,3,3,3,-736.0,18.4,-2.61,-3.39,9.45,-3.11,23.37,-14.4375,25.5625,590.3125,0.33160400390625,0.60400390625,0.43927001953125,0.0643,-3.5,5.5,-24.8125,8.95,0.49,moving,6
11.24,1673119.860448979,25,3,3,3,3,-369.0,13.81,-0.63,0.23,4.83,-0.86,28.32,-14.25,27.6875,584.6875,0.34246826171875,0.60919189453125,0.43084716796875,0.0643,-3.5,5.5,-24.5,8.98,0.22,moving,6
11.25,1673119.889596685,25,3,3,3,3,-289.0,10.64,-0.02,1.0,1.64,0.0,24.72,21.125,18.5,578.0625,0.35028076171875,0.61541748046875,0.42413330078125,0.064,0.1875,4.25,-24.3125,8.99,-0.02,moving,6
11.26,1673119.889596685,25,3,3,3,3,-226.0,6.81,0.77,1.6,-2.19,1.0,17.93,34.4375,18.4375,571.9375,0.35546875,0.62066650390625,0.4200439453125,0.064,0.1875,4.25,-24.1875,9.0,-0.22,moving,6
11.27,1673119.905308639,25,3,3,3,3,-168.0,0.0,0.7,2.16,-9.01,1.11,16.51,31.5,17.1875,566.25,0.36029052734375,0.62542724609375,0.416259765625,0.064,0.1875,4.25,-24.0,9.01,-0.41,moving,6
11.28,1673119.905308639,25,3,3,3,3,-9.0,-2.2,0.05,3.72,-11.21,0.66,18.07,21.375,13.5625,560.875,0.36566162109375,0.630126953125,0.411376953125,0.064,0.1875,4.25,-23.8125,9.01,-0.6,moving,6
11.29,1673119.919633428,25,3,3,3,3,110.0,-3.65,0.3,4.91,-12.66,1.07,16.87,2.8125,6.1875,557.0,0.37091064453125,0.63385009765625,0.40594482421875,0.064,0.1875,4.25,-23.75,9.0,-0.77,moving,6
11.3,1673119.919633428,25,3,3,3,3,201.0,-4.7,0.71,5.83,-13.69,1.63,16.09,-16.0625,-4.375,554.75,0.3759765625,0.63677978515625,0.39959716796875,0.0643,-3.0625,3.5625,-23.8125,8.98,-0.91,moving,6
11.31,1673119.950489588,25,3,3,3,3,359.0,-5.25,-0.16,7.43,-14.21,0.9,16.12,-8.0,-13.625,552.3125,0.3802490234375,0.64031982421875,0.39306640625,0.0643,-3.0625,3.5625,-24.0,8.95,-1.07,moving,6
11.32,1673119.950489588,25,3,3,3,3,311.0,-5.25,0.36,6.97,-14.19,1.57,12.08,32.5625,-15.5,548.375,0.38177490234375,0.64495849609375,0.38916015625,0.0643,-3.0625,3.5625,-24.125,8.93,-1.21,moving,6
11.33,1673119.964416956,25,3,3,3,3,139.0,-5.93,1.2,5.24,-14.85,2.54,7.8,81.5625,-4.875,542.1875,0.3809814453125,0.65057373046875,0.38885498046875,0.0643,-3.0625,3.5625,-24.0625,8.91,-1.34,moving,6
11.34,1673119.964416956,25,3,3,3,3,-39.0,-5.8,1.94,3.43,-14.71,3.38,3.68,105.0625,-2.25,535.375,0.37835693359375,0.65631103515625,0.39093017578125,0.0643,-3.0625,3.5625,-23.875,8.91,-1.44,moving,6
11.35,1673119.980391973,25,3,3,3,3,-317.0,-1.92,4.06,0.63,-10.83,5.56,-0.36,85.375,-3.8125,530.5625,0.37506103515625,0.66021728515625,0.3936767578125,0.0651,-5.25,4.25,-23.8125,8.9,-1.5,moving,6
11.36,1673119.980391973,25,3,3,3,3,-347.0,-0.65,4.53,0.32,-9.56,6.06,-1.3,52.75,-0.125,527.75,0.37286376953125,0.66229248046875,0.3958740234375,0.0651,-5.25,4.25,-23.6875,8.91,-1.52,moving,6
11.37,1673120.010772588,25,3,3,3,3,-308.0,0.37,4.19,0.7,-8.54,5.71,-2.07,20.6875,0.75,526.9375,0.37158203125,0.66278076171875,0.39727783203125,0.0651,-5.25,4.25,-23.6875,8.91,-1.51,moving,6
11.38,1673120.010772588,25,3,3,3,3,-223.0,1.01,3.42,1.55,-7.9,4.92,-2.05,0.1875,1.5625,527.3125,0.37109375,0.66229248046875,0.3980712890625,0.0651,-5.25,4.25,-23.6875,8.91,-1.49,moving,6
11.39,1673120.024976242,25,3,3,3,3,-95.0,1.56,2.01,2.83,-7.36,3.5,-0.61,-9.375,4.625,527.875,0.37152099609375,0.66162109375,0.398193359375,0.0651,-5.25,4.25,-23.625,8.92,-1.48,moving,6
11.4,1673120.024976242,25,3,3,3,3,-37.0,1.71,1.37,3.4,-7.21,2.85,0.8,-16.0625,7.125,528.4375,0.3726806640625,0.66082763671875,0.397705078125,0.0634,-6.0,7.75,-23.625,8.92,-1.48,moving,6
11.41,1673120.041051925,25,3,3,3,3,3.0,1.92,0.84,3.8,-7.0,2.33,1.97,-21.0625,9.625,528.9375,0.37451171875,0.65997314453125,0.396728515625,0.0634,-6.0,7.75,-23.5625,8.92,-1.48,moving,6
11.42,1673120.041051925,25,3,3,3,3,40.0,1.73,-0.08,4.16,-7.19,1.41,2.76,-21.3125,11.25,529.25,0.37664794921875,0.65924072265625,0.3955078125,0.0634,-6.0,7.75,-23.5,8.93,-1.49,moving,6
11.43,1673120.07026327,25,3,3,3,3,18.0,1.39,-0.13,3.93,-7.53,1.38,3.51,-17.875,11.625,529.125,0.37890625,0.6588134765625,0.3941650390625,0.0634,-6.0,7.75,-23.375,8.93,-1.52,moving,6
11.44,1673120.07026327,25,3,3,3,3,-2.0,0.88,-0.16,3.7,-8.04,1.38,4.07,-13.25,11.375,528.6875,0.381103515625,0.65869140625,0.39276123046875,0.0634,-6.0,7.75,-23.3125,8.93,-1.55,moving,6
11.45,1673120.084829269,25,3,3,3,3,-10.0,0.29,-0.24,3.61,-8.64,1.34,4.12,-7.25,9.875,527.875,0.38311767578125,0.658935546875,0.3914794921875,0.064,-6.0,7.0,-23.25,8.93,-1.58,moving,6
11.46,1673120.084829269,25,3,3,3,3,-44.0,-0.65,-0.42,3.26,-9.58,1.19,3.84,-1.1875,7.9375,526.875,0.3846435546875,0.659423828125,0.39044189453125,0.064,-6.0,7.0,-23.125,8.93,-1.62,moving,6
11.47,1673120.100326706,25,3,3,3,3,-45.0,-0.92,-0.61,3.24,-9.85,1.04,3.29,2.5,6.0,525.875,0.38580322265625,0.6600341796875,0.38958740234375,0.064,-6.0,7.0,-23.0625,8.92,-1.65,moving,6
11.48,1673120.100326706,25,3,3,3,3,-35.0,-0.96,-1.03,3.34,-9.89,0.65,2.51,3.0625,4.25,525.0,0.38665771484375,0.66058349609375,0.38897705078125,0.064,-6.0,7.0,-23.0625,8.92,-1.68,moving,6
11.49,1673120.130387863,25,3,3,3,3,-34.0,-0.86,-1.61,3.34,-9.78,0.09,2.21,8.8125,3.0625,523.875,0.38714599609375,0.66131591796875,0.38861083984375,0.064,-6.0,7.0,-23.0,8.92,-1.71,moving,6
11.5,1673120.130387863,25,3,3,3,3,-34.0,-0.86,-1.61,3.34,-9.78,0.09,2.21,8.8125,3.0625,523.875,0.38714599609375,0.66131591796875,0.38861083984375,0.064,-6.0,7.0,-23.0,8.92,-1.71,moving,6
11.5,1673120.135814051,25,3,3,3,3,-56.0,0.22,-1.85,3.11,-8.69,-0.11,2.22,11.875,0.6875,522.6875,0.38739013671875,0.66229248046875,0.38818359375,0.0634,-5.1875,6.5625,-23.0,8.92,-1.74,moving,6
11.51,1673120.135814051,25,3,3,3,3,-104.0,1.58,-1.62,2.64,-7.33,0.13,1.8,9.4375,-2.5,521.875,0.38739013671875,0.6632080078125,0.38775634765625,0.0634,-5.1875,6.5625,-23.0,8.91,-1.76,moving,6
11.52,1673120.162160812,25,3,3,3,3,-178.0,3.44,-0.94,1.91,-5.46,0.82,0.68,2.5,-6.75,521.8125,0.3870849609375,0.6636962890625,0.38726806640625,0.0634,-5.1875,6.5625,-23.0625,8.91,-1.77,moving,6
11.53,1673120.162160812,25,3,3,3,3,-295.0,5.86,0.42,0.75,-3.04,2.18,-0.19,-11.5,-6.1875,522.75,0.38702392578125,0.66339111328125,0.38665771484375,0.0634,-5.1875,6.5625,-23.125,8.9,-1.76,moving,6
11.54,1673120.17551974,25,3,3,3,3,-664.0,15.3,6.78,-2.94,6.39,8.53,-0.85,-3.3125,4.8125,523.0,0.38714599609375,0.662841796875,0.3870849609375,0.0634,-5.1875,6.5625,-23.125,8.91,-1.75,moving,6
11.55,1673120.17551974,25,3,3,3,3,-1825.0,38.22,5.77,-14.53,29.3,7.42,-8.37,-17.6875,-7.1875,526.125,0.385009765625,0.6605224609375,0.38916015625,0.0634,-4.375,5.0625,-23.1875,8.92,-1.65,moving,6
11.56,1673120.189461919,25,3,3,3,3,-2034.0,39.04,10.51,-16.53,30.09,11.74,-33.27,-161.8125,-36.5,544.0,0.37896728515625,0.64727783203125,0.39398193359375,0.0634,-4.375,5.0625,-23.8125,8.94,-1.22,moving,6
11.57,1673120.189461919,25,3,3,3,3,-1865.0,39.04,-3.87,-14.79,30.04,-3.34,-61.15,-148.8125,-15.125,565.75,0.365234375,0.6273193359375,0.40966796875,0.0634,-4.375,5.0625,-24.125,8.99,-0.52,moving,6
11.58,1673120.221090663,25,3,3,3,3,-1437.0,39.04,-36.3,-10.54,30.01,-36.52,-72.26,-45.75,24.6875,581.6875,0.34613037109375,0.60772705078125,0.43377685546875,0.0634,-4.375,5.0625,-23.875,9.02,0.21,moving,6
11.59,1673120.221090663,25,3,3,3,3,-1537.0,38.68,-23.65,-11.54,29.66,-24.18,-42.35,151.6875,4.25,581.3125,0.327392578125,0.60491943359375,0.452392578125,0.0634,-4.375,5.0625,-23.875,9.01,0.52,moving,6
11.6,1673120.235360763,25,3,3,3,3,-1027.0,28.47,-9.09,-6.44,19.45,-9.52,6.82,39.25,2.5625,577.8125,0.32806396484375,0.60845947265625,0.45135498046875,0.0637,0.375,5.5,-23.875,9.01,0.43,moving,6
11.61,1673120.235360763,25,3,3,3,3,-773.0,17.77,-1.19,-3.95,8.73,-1.3,30.73,32.625,30.25,569.125,0.3377685546875,0.61669921875,0.44354248046875,0.0637,0.375,5.5,-23.625,9.04,0.1,moving,6
11.62,1673120.250768641,25,3,3,3,3,-741.0,13.14,2.99,-3.67,4.07,3.23,31.99,43.125,30.5625,559.375,0.347412109375,0.62554931640625,0.4354248046875,0.0637,0.375,5.5,-23.3125,9.06,-0.23,moving,6
11.63,1673120.250768641,25,3,3,3,3,-521.0,9.35,2.74,-1.51,0.28,3.23,26.03,2.875,23.125,553.25,0.35626220703125,0.631103515625,0.42767333984375,0.0637,0.375,5.5,-23.0625,9.06,-0.49,moving,6
11.64,1673120.279990646,25,3,3,3,3,-305.0,7.86,0.94,0.63,-1.2,1.53,10.65,-11.25,8.5,551.375,0.36029052734375,0.6328125,0.42401123046875,0.0637,0.375,5.5,-23.0,9.06,-0.59,moving,6
11.65,1673120.279990646,25,3,3,3,3,-311.0,3.11,1.98,0.55,-5.95,2.61,4.22,-6.0625,9.5,550.5625,0.36224365234375,0.63323974609375,0.42279052734375,0.0643,-2.5,5.75,-22.9375,9.07,-0.63,moving,6
11.66,1673120.295248296,25,3,3,3,3,-238.0,0.49,1.39,1.27,-8.57,2.08,6.8,-15.5,7.25,549.75,0.36517333984375,0.63385009765625,0.4202880859375,0.0643,-2.5,5.75,-22.875,9.07,-0.68,moving,6
11.67,1673120.295248296,25,3,3,3,3,-155.0,-1.01,0.75,2.11,-10.07,1.51,9.57,-28.125,2.375,549.3125,0.369140625,0.6346435546875,0.4161376953125,0.0643,-2.5,5.75,-22.875,9.06,-0.76,moving,6
