timestamp,android_nano_timestamp,temperature,calib_mag,calib_accel,calib_gyro,calib_sys,acc_x,acc_y,acc_z,lacc_x,lacc_y,lacc_z,gyro_x,gyro_y,gyro_z,quat_w,quat_x,quat_y,quat_z,mag_x,mag_y,mag_z,gravity_x,gravity_y,gravity_z,label,person
5.85,1848041.288485079,23,3,3,0,0,8.15,0.23,-0.86,-1.02,-3.2,-0.85,-0.8125,-36.6875,51.75,0.63983154296875,0.505615234375,-0.49505615234375,0.2996826171875,-45.0,33.1875,-31.875,9.18,3.43,-0.01,moving,3
5.85,1848041.288485079,23,3,3,0,0,10.59,0.5,-1.55,1.37,-2.8,-1.33,19.0,-121.875,74.5,0.63177490234375,0.50665283203125,-0.504638671875,0.29925537109375,-45.0,33.1875,-31.875,9.22,3.31,-0.22,moving,3
5.86,1848041.318724012,23,3,3,0,0,13.39,1.12,-1.87,4.12,-2.02,-1.27,49.75,-219.6875,100.6875,0.61712646484375,0.51055908203125,-0.519775390625,0.2972412109375,-45.0,33.1875,-31.875,9.26,3.14,-0.6,moving,3
5.87,1848041.318724012,23,3,3,0,0,19.81,5.1,-0.67,10.52,2.15,0.42,69.0625,-286.0,117.5625,0.59783935546875,0.51617431640625,-0.53839111328125,0.2938232421875,-44.25,33.875,-33.75,9.28,2.94,-1.1,moving,3
5.88,1848041.343834648,23,3,3,0,0,22.91,8.02,-0.52,13.62,5.26,1.01,50.1875,-253.25,111.0,0.58062744140625,0.5198974609375,-0.55511474609375,0.29046630859375,-44.25,33.875,-33.75,9.28,2.75,-1.53,moving,3
5.89,1848041.343834648,23,3,3,0,0,22.94,7.53,-4.1,13.66,4.89,-2.34,3.3125,-134.0,75.25,0.572021484375,0.519775390625,-0.565185546875,0.288330078125,-44.25,33.875,-33.75,9.28,2.63,-1.75,moving,3
5.9,1848041.347399305,23,3,3,0,0,20.53,3.37,-6.99,11.25,0.78,-5.16,-3.875,-46.5,26.875,0.56927490234375,0.5194091796875,-0.56878662109375,0.287353515625,-44.25,33.875,-33.75,9.27,2.59,-1.83,moving,3
5.91,1848041.347399305,23,3,3,0,0,19.28,2.6,-5.69,10.0,0.0,-3.85,0.625,-4.8125,-5.3125,0.56915283203125,0.51983642578125,-0.56878662109375,0.28692626953125,-44.25,33.875,-33.75,9.27,2.6,-1.83,moving,3
5.92,1848041.366138929,23,3,3,0,0,18.47,1.91,-4.8,9.2,-0.72,-3.03,-30.25,33.875,-16.1875,0.57257080078125,0.518310546875,-0.567138671875,0.2861328125,-46.375,37.0625,-25.0,9.27,2.63,-1.77,moving,3
5.93,1848041.366138929,23,3,3,0,0,17.49,1.15,-3.7,8.21,-1.52,-2.02,-75.375,37.0625,-9.0625,0.57806396484375,0.5140380859375,-0.56671142578125,0.28363037109375,-46.375,37.0625,-25.0,9.28,2.67,-1.67,moving,3
5.94,1848041.379510144,23,3,3,0,0,16.21,1.14,-1.79,6.92,-1.55,-0.2,-102.0625,22.25,-1.8125,0.583740234375,0.5084228515625,-0.5679931640625,0.27947998046875,-46.375,37.0625,-25.0,9.29,2.7,-1.59,moving,3
5.95,1848041.379510144,23,3,3,0,0,15.67,1.44,-1.0,6.37,-1.29,0.5,-97.8125,24.4375,-0.3125,0.58929443359375,0.5028076171875,-0.56915283203125,0.27569580078125,-46.375,37.0625,-25.0,9.29,2.73,-1.5,moving,3
5.96,1848041.391544406,23,3,3,0,0,14.73,1.85,-0.4,5.43,-0.9,1.01,-71.9375,33.5,-6.3125,0.59423828125,0.49859619140625,-0.56884765625,0.27325439453125,-46.375,37.0625,-25.0,9.3,2.76,-1.41,moving,3
5.97,1848041.391544406,23,3,3,0,0,13.6,2.28,-0.18,4.29,-0.51,1.16,-43.375,29.75,-16.25,0.59796142578125,0.4964599609375,-0.567626953125,0.27154541015625,-47.6875,38.1875,-25.0,9.3,2.79,-1.34,moving,3
5.98,1848041.421853243,23,3,3,0,0,11.11,2.72,-0.16,1.81,-0.11,1.15,-23.875,8.75,-24.4375,0.60003662109375,0.4962158203125,-0.566650390625,0.26953125,-47.6875,38.1875,-25.0,9.29,2.84,-1.32,moving,3
5.99,1848041.421853243,23,3,3,0,0,10.16,2.77,-0.39,0.88,-0.12,0.94,-15.125,-15.125,-30.1875,0.60064697265625,0.49725341796875,-0.5665283203125,0.26654052734375,-47.6875,38.1875,-25.0,9.27,2.89,-1.33,moving,3
6.0,1848041.439203016,23,3,3,0,0,9.35,2.65,-0.58,0.11,-0.3,0.78,-12.375,-27.5625,-38.4375,0.6007080078125,0.4991455078125,-0.56658935546875,0.2626953125,-47.6875,38.1875,-25.0,9.24,2.96,-1.37,moving,3
6.01,1848041.439203016,23,3,3,0,0,8.56,2.43,-0.79,-0.64,-0.6,0.61,-13.5625,-27.3125,-48.375,0.60107421875,0.50140380859375,-0.56622314453125,0.25830078125,-47.6875,38.1875,-25.0,9.21,3.04,-1.41,moving,3
6.02,1848041.45602874,23,3,3,0,0,6.28,1.8,-0.76,-2.89,-1.33,0.67,-20.5625,-23.0,-54.5625,0.60205078125,0.5035400390625,-0.56549072265625,0.25341796875,-47.6875,38.1875,-24.25,9.18,3.13,-1.43,moving,3
6.03,1848041.45602874,23,3,3,0,0,4.98,1.42,-0.39,-4.16,-1.8,1.04,-34.375,-13.9375,-57.125,0.6041259765625,0.5048828125,-0.564453125,0.24810791015625,-47.6875,38.1875,-24.25,9.14,3.23,-1.44,moving,3
6.04,1848041.481824191,23,3,3,0,0,3.82,1.26,-0.2,-5.28,-2.07,1.19,-52.75,5.875,-58.25,0.60797119140625,0.50482177734375,-0.56268310546875,0.24273681640625,-47.6875,38.1875,-24.25,9.11,3.34,-1.4,moving,3
6.05,1848041.481824191,23,3,3,0,0,2.04,1.33,0.3,-7.04,-2.12,1.62,-69.5625,25.625,-62.75,0.61358642578125,0.50360107421875,-0.56005859375,0.23712158203125,-47.6875,38.1875,-24.25,9.08,3.45,-1.31,moving,3
6.06,1848041.501198011,23,3,3,0,0,1.44,1.14,0.78,-7.6,-2.43,1.98,-80.5625,41.0,-71.4375,0.62060546875,0.50189208984375,-0.55633544921875,0.23114013671875,-47.6875,38.1875,-24.25,9.04,3.58,-1.2,moving,3
6.07,1848041.501198011,23,3,3,0,0,0.74,1.16,1.2,-8.25,-2.56,2.25,-89.0,62.4375,-80.4375,0.62908935546875,0.49969482421875,-0.55120849609375,0.2252197265625,-48.6875,36.375,-22.25,9.0,3.73,-1.04,moving,3
6.08,1848041.514523735,23,3,3,0,0,0.21,1.39,1.34,-8.75,-2.48,2.18,-98.8125,90.6875,-88.6875,0.63946533203125,0.4967041015625,-0.54425048828125,0.21954345703125,-48.6875,36.375,-22.25,8.96,3.88,-0.84,moving,3
6.09,1848041.514523735,23,3,3,0,0,-0.9,1.65,1.18,-9.81,-2.39,1.77,-112.0625,115.9375,-94.6875,0.65155029296875,0.49261474609375,-0.53570556640625,0.21392822265625,-48.6875,36.375,-22.25,8.91,4.04,-0.58,moving,3
6.1,1848041.532366549,23,3,3,0,0,-1.42,1.76,1.03,-10.27,-2.44,1.31,-129.0,134.4375,-98.25,0.66510009765625,0.4873046875,-0.52618408203125,0.20806884765625,-48.6875,36.375,-22.25,8.85,4.2,-0.28,moving,3
6.11,1848041.532366549,23,3,3,0,0,-1.42,1.76,1.03,-10.27,-2.44,1.31,-129.0,134.4375,-98.25,0.66510009765625,0.4873046875,-0.52618408203125,0.20806884765625,-48.6875,36.375,-22.25,8.85,4.2,-0.28,moving,3
6.11,1848041.545363945,23,3,3,0,0,-1.76,1.84,0.86,-10.54,-2.52,0.8,-150.1875,144.9375,-101.625,0.67987060546875,0.48052978515625,-0.51605224609375,0.201416015625,-48.6875,36.375,-22.25,8.77,4.36,0.05,moving,3
6.12,1848041.545363945,23,3,3,0,0,-1.86,1.83,0.58,-10.55,-2.69,0.16,-170.625,151.0,-107.0,0.695556640625,0.472412109375,-0.5054931640625,0.19366455078125,-50.875,34.5625,-23.5,8.69,4.52,0.41,moving,3
6.13,1848041.57391021,23,3,3,0,0,-0.94,1.92,-0.67,-9.52,-2.74,-1.46,-183.75,151.4375,-111.4375,0.71148681640625,0.4635009765625,-0.49468994140625,0.18499755859375,-50.875,34.5625,-23.5,8.58,4.67,0.79,moving,3
6.14,1848041.57391021,23,3,3,0,0,0.28,1.86,-1.88,-8.18,-2.94,-3.02,-185.125,130.9375,-110.125,0.72625732421875,0.45452880859375,-0.4849853515625,0.1754150390625,-50.875,34.5625,-23.5,8.47,4.8,1.14,moving,3
6.15,1848041.595255872,23,3,3,0,0,2.16,2.4,-3.64,-6.21,-2.49,-5.03,-171.8125,65.1875,-92.5625,0.73712158203125,0.446533203125,-0.47967529296875,0.16485595703125,-50.875,34.5625,-23.5,8.37,4.9,1.38,moving,3
6.16,1848041.595255872,23,3,3,0,0,4.48,3.48,-5.72,-3.86,-1.46,-7.11,-129.5625,-71.1875,-53.25,0.7398681640625,0.44140625,-0.4840087890625,0.1531982421875,-50.875,34.5625,-23.5,8.35,4.95,1.39,moving,3
6.17,1848041.603291272,23,3,3,0,0,10.16,5.88,-9.09,1.74,0.94,-10.11,-42.75,-278.125,7.0625,0.7294921875,0.44189453125,-0.502685546875,0.14111328125,-50.0625,32.75,-25.0,8.41,4.93,1.02,moving,3
6.18,1848041.603291272,23,3,3,0,0,13.49,7.09,-12.04,4.95,2.27,-12.18,93.6875,-536.4375,78.0,0.7005615234375,0.4505615234375,-0.53802490234375,0.12933349609375,-50.0625,32.75,-25.0,8.53,4.82,0.14,moving,3
6.19,1848041.639692558,23,3,3,0,0,18.1,7.96,-13.93,9.54,3.35,-12.63,269.625,-823.375,128.0625,0.64801025390625,0.46893310546875,-0.588623046875,0.11712646484375,-50.0625,32.75,-25.0,8.55,4.6,-1.3,moving,3
6.2,1848041.639692558,23,3,3,0,0,26.11,10.4,-11.34,17.8,6.13,-8.37,397.625,-927.375,126.9375,0.58050537109375,0.492431640625,-0.6396484375,0.10638427734375,-50.0625,32.75,-25.0,8.31,4.27,-2.97,moving,3
6.21,1848041.652467217,23,3,3,0,0,39.07,15.18,-9.24,31.06,11.26,-5.15,307.5625,-625.3125,113.0,0.53033447265625,0.506591796875,-0.67205810546875,0.1021728515625,-50.0625,32.75,-25.0,8.0,3.92,-4.08,moving,3
6.22,1848041.652467217,23,3,3,0,0,34.82,17.83,-2.53,26.84,13.99,1.68,35.4375,-75.4375,38.1875,0.52398681640625,0.50665283203125,-0.67694091796875,0.1026611328125,-52.25,33.1875,-11.5625,7.97,3.84,-4.21,moving,3
6.23,1848041.661708834,23,3,3,0,0,23.36,12.48,-7.76,15.1,8.44,-4.35,-144.25,498.875,-71.3125,0.559814453125,0.499267578125,-0.651611328125,0.11285400390625,-52.25,33.1875,-11.5625,8.25,4.04,-3.4,moving,3
6.24,1848041.661708834,23,3,3,0,0,10.33,8.11,-1.52,1.85,3.86,0.95,-64.4375,606.25,-121.5625,0.597412109375,0.496337890625,-0.616455078125,0.12945556640625,-52.25,33.1875,-11.5625,8.48,4.25,-2.47,moving,3
6.25,1848041.698946261,23,3,3,0,0,8.91,10.48,0.68,0.37,6.05,2.57,-30.1875,382.1875,-116.5625,0.62017822265625,0.49639892578125,-0.5914306640625,0.13818359375,-52.25,33.1875,-11.5625,8.54,4.43,-1.88,moving,3
6.26,1848041.698946261,23,3,3,0,0,8.6,10.12,0.15,0.05,5.59,1.79,-50.875,137.125,-51.3125,0.6300048828125,0.49462890625,-0.5823974609375,0.13873291015625,-52.25,33.1875,-11.5625,8.54,4.52,-1.64,moving,3
6.27,1848041.714778048,23,3,3,0,0,9.46,8.59,1.0,0.9,4.08,2.58,18.125,52.5,5.75,0.6318359375,0.49468994140625,-0.57952880859375,0.1422119140625,-52.5625,36.0625,-6.6875,8.56,4.51,-1.57,moving,3
6.28,1848041.714778048,23,3,3,0,0,8.55,4.46,1.28,-0.02,-0.01,2.87,101.0,47.8125,2.25,0.62982177734375,0.49951171875,-0.57568359375,0.14947509765625,-52.5625,36.0625,-6.6875,8.57,4.48,-1.58,moving,3
6.29,1848041.726093803,23,3,3,0,0,6.69,3.0,0.68,-1.89,-1.46,2.26,155.9375,81.375,-16.4375,0.62725830078125,0.5078125,-0.56842041015625,0.159912109375,-52.5625,36.0625,-6.6875,8.58,4.46,-1.58,moving,3
6.3,1848041.726093803,23,3,3,0,0,4.56,2.05,0.28,-4.03,-2.39,1.83,185.4375,123.6875,-24.3125,0.62542724609375,0.517333984375,-0.557861328125,0.1732177734375,-52.5625,36.0625,-6.6875,8.6,4.45,-1.54,moving,3
6.31,1848041.757811984,23,3,3,0,0,2.59,1.36,0.18,-6.03,-3.05,1.63,186.375,160.5625,-15.875,0.62493896484375,0.5257568359375,-0.54541015625,0.18865966796875,-52.5625,36.0625,-6.6875,8.63,4.42,-1.44,moving,3
6.32,1848041.757811984,23,3,3,0,0,-0.26,-0.48,0.81,-8.94,-4.88,2.1,162.4375,192.4375,-2.625,0.62652587890625,0.53143310546875,-0.531982421875,0.2049560546875,-53.6875,32.75,-15.0,8.67,4.39,-1.28,moving,3
6.33,1848041.771851738,23,3,3,0,0,-1.05,-1.36,1.12,-9.78,-5.72,2.16,116.1875,220.9375,6.3125,0.631103515625,0.533447265625,-0.51800537109375,0.22088623046875,-53.6875,32.75,-15.0,8.72,4.35,-1.03,moving,3
6.34,1848041.771851738,23,3,3,0,0,-1.24,-2.19,1.5,-10.01,-6.52,2.2,52.5625,248.5625,10.5625,0.63958740234375,0.53094482421875,-0.503662109375,0.2353515625,-53.6875,32.75,-15.0,8.76,4.33,-0.69,moving,3
6.35,1848041.781884249,23,3,3,0,0,-0.69,-3.03,1.73,-9.49,-7.34,1.99,-20.625,275.75,12.75,0.65216064453125,0.52337646484375,-0.4891357421875,0.24786376953125,-53.6875,32.75,-15.0,8.8,4.31,-0.25,moving,3
6.36,1848041.781884249,23,3,3,0,0,0.36,-2.67,0.73,-8.45,-6.95,0.43,-88.0,320.625,22.3125,0.66912841796875,0.51031494140625,-0.4736328125,0.2598876953125,-53.6875,32.75,-15.0,8.81,4.28,0.29,moving,3
6.37,1848041.798593681,23,3,3,0,0,0.36,-2.67,0.73,-8.45,-6.95,0.43,-88.0,320.625,22.3125,0.66912841796875,0.51031494140625,-0.4736328125,0.2598876953125,-53.6875,32.75,-15.0,8.81,4.28,0.29,moving,3
6.38,1848041.798593681,23,3,3,0,0,0.62,-1.37,-2.09,-8.18,-5.57,-3.06,-123.3125,378.875,41.625,0.68890380859375,0.49249267578125,-0.45587158203125,0.27392578125,-51.5625,30.5625,-28.0625,8.8,4.2,0.97,moving,3
6.38,1848041.816903659,23,3,3,0,0,0.68,-0.21,-5.25,-8.09,-4.29,-6.85,-110.0,355.1875,66.4375,0.705810546875,0.4744873046875,-0.4398193359375,0.28863525390625,-51.5625,30.5625,-28.0625,8.77,4.07,1.59,moving,3
6.39,1848041.816903659,23,3,3,0,0,1.35,1.58,-7.93,-7.42,-2.34,-9.86,-37.5,200.9375,93.3125,0.71258544921875,0.46343994140625,-0.43212890625,0.30120849609375,-51.5625,30.5625,-28.0625,8.77,3.92,1.93,moving,3
6.4,1848041.848957695,23,3,3,0,0,1.77,1.45,-6.97,-7.08,-2.31,-8.84,89.0625,0.0,120.1875,0.70574951171875,0.46441650390625,-0.43463134765625,0.31201171875,-51.5625,30.5625,-28.0625,8.85,3.76,1.87,moving,3
6.41,1848041.848957695,23,3,3,0,0,2.63,1.28,-6.44,-6.36,-2.32,-7.94,214.875,-148.875,143.25,0.687255859375,0.47613525390625,-0.443603515625,0.32281494140625,-51.5625,30.5625,-28.0625,8.99,3.6,1.5,moving,3
6.42,1848041.861833509,23,3,3,0,0,3.71,1.47,-6.81,-5.42,-1.94,-7.71,300.5,-259.5,157.4375,0.65985107421875,0.4949951171875,-0.4569091796875,0.3328857421875,-40.6875,34.1875,-38.5,9.14,3.42,0.9,moving,3
6.43,1848041.861833509,23,3,3,0,0,7.62,1.86,-7.38,-1.64,-1.34,-7.46,350.5,-386.4375,150.625,0.62420654296875,0.51983642578125,-0.4749755859375,0.33843994140625,-40.6875,34.1875,-38.5,9.26,3.21,0.08,moving,3
6.44,1848041.878057793,23,3,3,0,0,10.74,1.81,-7.35,1.45,-1.17,-6.4,382.6875,-509.375,118.375,0.581298828125,0.5499267578125,-0.49603271484375,0.33709716796875,-40.6875,34.1875,-38.5,9.29,2.99,-0.95,moving,3
6.45,1848041.878057793,23,3,3,0,0,14.71,1.76,-8.09,5.53,-0.99,-6.04,390.625,-560.75,80.625,0.534912109375,0.58172607421875,-0.51593017578125,0.33056640625,-40.6875,34.1875,-38.5,9.18,2.75,-2.05,moving,3
6.46,1848041.909433281,23,3,3,0,0,19.23,2.26,-8.37,10.24,-0.23,-5.37,342.125,-499.375,66.0625,0.49249267578125,0.6082763671875,-0.531982421875,0.3232421875,-40.6875,34.1875,-38.5,8.99,2.5,-3.0,moving,3
6.47,1848041.909433281,23,3,3,0,0,24.28,5.26,-2.75,15.41,3.01,0.75,194.8125,-277.0,87.125,0.466552734375,0.6201171875,-0.54278564453125,0.3211669921875,-43.25,32.0625,-35.75,8.87,2.25,-3.51,moving,3
6.48,1848041.923374362,23,3,3,0,0,24.59,8.74,0.9,15.64,6.67,4.31,-40.0625,55.25,136.9375,0.46746826171875,0.61041259765625,-0.54901123046875,0.32781982421875,-43.25,32.0625,-35.75,8.95,2.06,-3.41,moving,3
6.49,1848041.923374362,23,3,3,0,0,23.37,11.38,-5.43,14.2,9.42,-2.58,-338.875,279.1875,182.9375,0.4931640625,0.57940673828125,-0.55657958984375,0.3336181640625,-43.25,32.0625,-35.75,9.17,1.96,-2.85,moving,3
6.5,1848041.936471774,23,3,3,0,0,28.99,13.63,5.18,19.66,11.73,7.53,-453.3125,216.75,168.3125,0.5211181640625,0.54486083984375,-0.568359375,0.32940673828125,-43.25,32.0625,-35.75,9.32,1.89,-2.35,moving,3
6.51,1848041.936471774,23,3,3,0,0,20.45,0.1,1.05,10.98,-1.76,2.78,-390.375,297.6875,102.75,0.55096435546875,0.512939453125,-0.5704345703125,0.32855224609375,-43.25,32.0625,-35.75,9.46,1.86,-1.73,moving,3
6.52,1848041.966442152,23,3,3,0,0,15.89,-3.17,-2.28,6.34,-5.13,-1.24,-242.9375,373.8125,-25.875,0.58074951171875,0.49151611328125,-0.55780029296875,0.33172607421875,-49.5,30.1875,-28.75,9.55,1.96,-1.03,moving,3
6.53,1848041.966442152,23,3,3,0,0,13.19,-2.36,-3.66,3.65,-4.51,-3.03,-84.375,229.0625,-103.125,0.59832763671875,0.4854736328125,-0.54412841796875,0.33209228515625,-49.5,30.1875,-28.75,9.54,2.15,-0.62,moving,3
6.54,1848041.985366102,23,3,3,0,0,10.46,1.71,-2.44,0.95,-0.57,-1.78,44.0625,-9.4375,-86.625,0.59844970703125,0.49212646484375,-0.5396728515625,0.3292236328125,-49.5,30.1875,-28.75,9.51,2.29,-0.65,moving,3
6.55,1848041.985366102,23,3,3,0,0,11.78,4.13,2.16,2.33,1.76,3.23,128.125,-218.5,-62.8125,0.5843505859375,0.5079345703125,-0.5445556640625,0.322509765625,-49.5,30.1875,-28.75,9.45,2.37,-1.06,moving,3
6.56,1848041.995610527,23,3,3,0,0,14.45,6.12,4.16,5.09,3.66,5.73,104.25,-278.5,-68.0,0.56817626953125,0.524169921875,-0.5526123046875,0.31158447265625,-49.5,30.1875,-28.75,9.36,2.46,-1.57,moving,3
6.57,1848041.995610527,23,3,3,0,0,13.82,6.13,1.52,4.53,3.54,3.32,-8.875,-141.25,-72.875,0.563720703125,0.531005859375,-0.55645751953125,0.301025390625,-42.0,38.875,-32.25,9.28,2.58,-1.79,moving,3
6.58,1848042.029614718,23,3,3,0,0,8.56,1.79,-0.02,-0.69,-0.93,1.68,-90.75,25.0,-74.125,0.571044921875,0.52947998046875,-0.55413818359375,0.29412841796875,-42.0,38.875,-32.25,9.26,2.73,-1.71,moving,3
6.59,1848042.029614718,23,3,3,0,0,6.93,0.55,0.18,-2.31,-2.34,1.63,-142.3125,122.125,-80.875,0.58551025390625,0.5230712890625,-0.54791259765625,0.288818359375,-42.0,38.875,-32.25,9.25,2.9,-1.44,moving,3
6.6,1848042.040314832,23,3,3,0,0,5.58,0.46,0.17,-3.65,-2.62,1.24,-184.4375,170.5,-88.0625,0.6041259765625,0.513427734375,-0.5396728515625,0.283203125,-42.0,38.875,-32.25,9.24,3.08,-1.07,moving,3
6.61,1848042.040314832,23,3,3,0,0,4.34,0.77,0.46,-4.86,-2.5,1.12,-202.3125,188.5625,-101.375,0.62432861328125,0.502685546875,-0.530029296875,0.2767333984375,-42.0,38.875,-32.25,9.21,3.27,-0.65,moving,3
6.62,1848042.057497775,23,3,3,0,0,1.53,0.98,1.65,-7.62,-2.5,1.86,-201.3125,207.625,-123.4375,0.6455078125,0.49224853515625,-0.5179443359375,0.2696533203125,-47.375,35.0,-27.25,9.16,3.49,-0.2,moving,3
6.63,1848042.057497775,23,3,3,0,0,1.53,0.98,1.65,-7.62,-2.5,1.86,-201.3125,207.625,-123.4375,0.6455078125,0.49224853515625,-0.5179443359375,0.2696533203125,-47.375,35.0,-27.25,9.16,3.49,-0.2,moving,3
6.63,1848042.069623996,23,3,3,0,0,1.03,0.99,1.71,-8.03,-2.72,1.37,-183.5,267.5,-145.5,0.6685791015625,0.48193359375,-0.500732421875,0.26458740234375,-47.375,35.0,-27.25,9.06,3.72,0.33,moving,3
6.64,1848042.069623996,23,3,3,0,0,0.54,1.27,1.55,-8.38,-2.66,0.58,-162.1875,337.0625,-155.0,0.6932373046875,0.47119140625,-0.47802734375,0.262451171875,-47.375,35.0,-27.25,8.92,3.94,0.97,moving,3
6.65,1848042.084458631,23,3,3,0,0,-0.58,1.5,0.96,-9.31,-2.63,-0.67,-147.4375,365.8125,-152.1875,0.71759033203125,0.45989990234375,-0.45269775390625,0.261962890625,-47.375,35.0,-27.25,8.73,4.14,1.63,moving,3
6.66,1848042.084458631,23,3,3,0,0,-2.82,1.69,-2.03,-11.33,-2.61,-4.31,-153.8125,346.6875,-145.6875,0.74029541015625,0.44781494140625,-0.42840576171875,0.260498046875,-47.375,35.0,-27.25,8.5,4.31,2.27,moving,3
6.67,1848042.117220065,23,3,3,0,0,-3.11,1.3,-3.48,-11.4,-3.11,-6.29,-181.75,274.125,-131.0625,0.76025390625,0.4345703125,-0.40948486328125,0.255859375,-46.25,35.0,-31.5,8.28,4.42,2.81,moving,3
6.68,1848042.117220065,23,3,3,0,0,-2.15,0.67,-4.31,-10.27,-3.8,-7.52,-214.8125,160.375,-113.375,0.77642822265625,0.420654296875,-0.39923095703125,0.24664306640625,-46.25,35.0,-31.5,8.11,4.47,3.21,moving,3
6.69,1848042.126202243,23,3,3,0,0,-0.69,0.16,-4.73,-8.72,-4.31,-8.16,-225.9375,28.5625,-91.625,0.7874755859375,0.4078369140625,-0.398681640625,0.23358154296875,-46.25,35.0,-31.5,8.02,4.47,3.42,moving,3
6.7,1848042.126202243,23,3,3,0,0,2.57,0.63,-4.89,-5.47,-3.8,-8.31,-195.5625,-115.25,-63.3125,0.79156494140625,0.39886474609375,-0.40826416015625,0.21826171875,-46.25,35.0,-31.5,8.04,4.44,3.41,moving,3
6.71,1848042.141487399,23,3,3,0,0,3.74,0.97,-4.44,-4.42,-3.44,-7.58,-119.1875,-265.375,-30.9375,0.78662109375,0.39666748046875,-0.4276123046875,0.20257568359375,-46.25,35.0,-31.5,8.17,4.42,3.13,moving,3
6.72,1848042.141487399,23,3,3,0,0,4.87,1.35,-4.41,-3.5,-3.05,-6.98,-17.375,-396.5625,2.1875,0.77191162109375,0.40216064453125,-0.4549560546875,0.188232421875,-40.875,35.0,-36.5,8.37,4.4,2.57,moving,3
6.73,1848042.178261976,23,3,3,0,0,7.76,2.55,-5.47,-0.82,-1.84,-7.21,92.1875,-516.375,33.3125,0.746826171875,0.41510009765625,-0.4888916015625,0.17584228515625,-40.875,35.0,-36.5,8.59,4.39,1.73,moving,3
6.74,1848042.178261976,23,3,3,0,0,9.94,3.36,-5.79,1.17,-0.99,-6.41,204.9375,-635.375,55.3125,0.71026611328125,0.43511962890625,-0.52825927734375,0.1649169921875,-40.875,35.0,-36.5,8.76,4.35,0.62,moving,3
6.75,1848042.191325737,23,3,3,0,0,13.25,4.84,-5.26,4.44,0.59,-4.55,304.0625,-722.375,62.0,0.6629638671875,0.46044921875,-0.56964111328125,0.15496826171875,-40.875,35.0,-36.5,8.8,4.25,-0.71,moving,3
6.76,1848042.191325737,23,3,3,0,0,19.97,8.98,0.24,11.28,4.9,2.23,329.3125,-676.5625,61.125,0.6138916015625,0.48455810546875,-0.60546875,0.1473388671875,-40.875,35.0,-36.5,8.69,4.08,-1.98,moving,3
6.77,1848042.202645155,23,3,3,0,0,30.55,22.44,-7.19,21.92,18.51,-4.69,93.3125,-298.5625,77.125,0.59295654296875,0.4891357421875,-0.623291015625,0.14373779296875,-49.25,36.25,-21.5625,8.62,3.93,-2.5,moving,3
6.78,1848042.202645155,23,3,3,0,0,21.22,8.96,-8.57,12.5,5.05,-6.38,-292.9375,82.5,90.8125,0.6085205078125,0.46783447265625,-0.6263427734375,0.135986328125,-49.25,36.25,-21.5625,8.72,3.91,-2.18,moving,3
6.79,1848042.232897352,23,3,3,0,0,19.94,5.42,-6.18,11.15,1.42,-4.47,-247.0,199.25,1.375,0.62921142578125,0.4521484375,-0.6185302734375,0.130615234375,-49.25,36.25,-21.5625,8.79,3.99,-1.7,moving,3
6.8,1848042.232897352,23,3,3,0,0,18.33,7.12,-5.31,9.49,3.06,-4.05,-82.8125,248.5,-24.625,0.64599609375,0.44598388671875,-0.604736328125,0.134521484375,-49.25,36.25,-21.5625,8.83,4.05,-1.26,moving,3
6.81,1848042.251820529,23,3,3,0,0,15.99,10.03,0.27,7.15,5.91,1.31,30.125,160.6875,-48.75,0.65374755859375,0.44830322265625,-0.5933837890625,0.13958740234375,-49.25,36.25,-21.5625,8.83,4.12,-1.04,moving,3
6.82,1848042.251820529,23,3,3,0,0,14.29,8.24,-1.88,5.47,4.05,-0.91,40.4375,67.25,-45.3125,0.65618896484375,0.4521484375,-0.5872802734375,0.1417236328125,-52.1875,37.375,-7.0,8.81,4.18,-0.96,moving,3
6.83,1848042.26481056,23,3,3,0,0,14.62,7.14,-2.03,5.83,2.94,-1.0,35.0,-22.5625,-17.25,0.65380859375,0.455322265625,-0.58746337890625,0.14166259765625,-52.1875,37.375,-7.0,8.79,4.2,-1.02,moving,3
6.84,1848042.26481056,23,3,3,0,0,15.42,7.07,-1.07,6.64,2.86,0.08,51.25,-63.875,-7.5,0.6485595703125,0.45947265625,-0.59014892578125,0.14129638671875,-52.1875,37.375,-7.0,8.78,4.2,-1.16,moving,3
6.85,1848042.298057061,23,3,3,0,0,13.88,6.76,-0.67,5.11,2.54,0.56,73.875,-13.4375,-15.6875,0.64508056640625,0.464599609375,-0.58941650390625,0.1436767578125,-52.1875,37.375,-7.0,8.76,4.21,-1.24,moving,3
6.86,1848042.298057061,23,3,3,0,0,11.66,6.46,-0.78,2.9,2.23,0.42,86.6875,61.8125,-18.75,0.64495849609375,0.46966552734375,-0.58404541015625,0.1495361328125,-52.1875,37.375,-7.0,8.76,4.22,-1.21,moving,3
6.87,1848042.307113538,23,3,3,0,0,9.57,6.54,-1.1,0.8,2.3,0.01,80.5625,96.125,-13.625,0.64666748046875,0.4736328125,-0.5770263671875,0.15679931640625,-51.75,36.25,-11.0625,8.77,4.23,-1.12,moving,3
6.88,1848042.307113538,23,3,3,0,0,9.57,6.54,-1.1,0.8,2.3,0.01,80.5625,96.125,-13.625,0.64666748046875,0.4736328125,-0.5770263671875,0.15679931640625,-51.75,36.25,-11.0625,8.77,4.23,-1.12,moving,3
6.89,1848042.32444557,23,3,3,0,0,6.68,5.55,-1.01,-2.1,1.32,0.03,70.9375,83.25,-9.375,0.64801025390625,0.47698974609375,-0.5709228515625,0.16326904296875,-51.75,36.25,-11.0625,8.78,4.23,-1.04,moving,3
6.89,1848042.32444557,23,3,3,0,0,5.78,4.69,-0.31,-3.0,0.46,0.68,75.125,63.0,-4.9375,0.64801025390625,0.4805908203125,-0.56610107421875,0.1693115234375,-51.75,36.25,-11.0625,8.79,4.22,-1.0,moving,3
6.9,1848042.343364841,23,3,3,0,0,4.72,3.96,0.32,-4.07,-0.25,1.29,87.875,69.0,-5.3125,0.64776611328125,0.4847412109375,-0.5606689453125,0.17626953125,-51.75,36.25,-11.0625,8.79,4.22,-0.96,moving,3
6.91,1848042.343364841,23,3,3,0,0,3.55,3.2,0.98,-5.24,-1.02,1.87,98.625,101.9375,-15.5,0.64874267578125,0.489501953125,-0.55267333984375,0.1844482421875,-51.75,36.25,-11.0625,8.8,4.22,-0.88,moving,3
6.92,1848042.372736748,23,3,3,0,0,1.04,1.26,2.2,-7.75,-2.99,2.93,98.8125,151.0,-29.5,0.6522216796875,0.4940185546875,-0.54119873046875,0.1939697265625,-51.0,35.5625,-16.875,8.8,4.26,-0.72,moving,3
6.93,1848042.372736748,23,3,3,0,0,0.05,0.65,2.53,-8.74,-3.65,3.0,79.125,210.1875,-37.8125,0.65924072265625,0.4967041015625,-0.52618408203125,0.20458984375,-51.0,35.5625,-16.875,8.79,4.31,-0.46,moving,3
6.94,1848042.386495497,23,3,3,0,0,-0.52,0.18,2.42,-9.3,-4.17,2.48,40.125,280.9375,-37.125,0.67083740234375,0.49554443359375,-0.507568359375,0.21636962890625,-51.0,35.5625,-16.875,8.78,4.36,-0.06,moving,3
6.95,1848042.386495497,23,3,3,0,0,-0.84,-0.39,2.35,-9.59,-4.8,1.86,-8.75,357.9375,-30.3125,0.687255859375,0.4893798828125,-0.4852294921875,0.22955322265625,-51.0,35.5625,-16.875,8.74,4.41,0.49,moving,3
6.96,1848042.399145765,23,3,3,0,0,-0.99,-1.01,0.95,-9.66,-5.44,-0.23,-67.9375,428.4375,-21.8125,0.708251953125,0.47735595703125,-0.45965576171875,0.24346923828125,-51.0,35.5625,-16.875,8.66,4.43,1.19,moving,3
6.97,1848042.399145765,23,3,3,0,0,-1.19,-0.68,-0.63,-9.72,-5.08,-2.62,-134.0625,463.0,-6.625,0.73187255859375,0.4591064453125,-0.4332275390625,0.2567138671875,-50.5625,32.6875,-25.25,8.53,4.4,1.99,moving,3
6.98,1848042.411755059,23,3,3,0,0,-1.41,-0.46,-2.5,-9.78,-4.76,-5.27,-187.0,435.0625,23.625,0.754638671875,0.4361572265625,-0.4102783203125,0.26837158203125,-50.5625,32.6875,-25.25,8.36,4.29,2.77,moving,3
6.99,1848042.411755059,23,3,3,0,0,-1.17,-0.84,-4.25,-9.41,-4.94,-7.64,-202.3125,321.375,60.3125,0.77197265625,0.4129638671875,-0.39593505859375,0.27716064453125,-50.5625,32.6875,-25.25,8.23,4.1,3.38,moving,3
7.0,1848042.445392591,23,3,3,0,0,1.05,-0.78,-4.34,-7.16,-4.66,-8.04,-151.6875,144.6875,87.9375,0.7801513671875,0.3961181640625,-0.3929443359375,0.282958984375,-50.5625,32.6875,-25.25,8.21,3.88,3.7,moving,3
7.01,1848042.445392591,23,3,3,0,0,2.25,-0.68,-3.34,-6.04,-4.39,-7.03,-35.25,-25.8125,106.0,0.77777099609375,0.3907470703125,-0.39923095703125,0.2880859375,-50.5625,32.6875,-25.25,8.29,3.7,3.68,moving,3
7.02,1848042.462425998,23,3,3,0,0,2.95,-0.5,-2.86,-5.52,-4.09,-6.24,103.5,-160.0,122.3125,0.76544189453125,0.3974609375,-0.41156005859375,0.29443359375,-38.6875,34.0625,-40.1875,8.47,3.59,3.38,moving,3
7.03,1848042.462425998,23,3,3,0,0,4.75,1.06,-3.62,-3.95,-2.44,-6.47,228.1875,-265.5,138.0,0.74407958984375,0.41436767578125,-0.427978515625,0.302490234375,-38.6875,34.0625,-40.1875,8.7,3.5,2.84,moving,3
7.04,1848042.475092705,23,3,3,0,0,6.49,1.74,-4.41,-2.45,-1.68,-6.46,336.25,-382.4375,143.875,0.71307373046875,0.4404296875,-0.44866943359375,0.31024169921875,-38.6875,34.0625,-40.1875,8.95,3.42,2.05,moving,3
7.05,1848042.475092705,23,3,3,0,0,8.83,1.94,-5.24,-0.33,-1.37,-6.21,432.4375,-524.75,137.4375,0.67095947265625,0.475341796875,-0.47406005859375,0.31494140625,-38.6875,34.0625,-40.1875,9.17,3.32,0.96,moving,3
7.06,1848042.509829725,23,3,3,0,0,12.05,1.84,-5.86,2.77,-1.29,-5.46,510.125,-667.0,128.5,0.616943359375,0.51678466796875,-0.5030517578125,0.31500244140625,-38.6875,34.0625,-40.1875,9.28,3.14,-0.39,moving,3
7.07,1848042.509829725,23,3,3,0,0,24.82,4.97,2.48,15.63,2.15,4.38,536.9375,-758.9375,133.125,0.55389404296875,0.558837890625,-0.53338623046875,0.31048583984375,-37.75,38.5,-37.1875,9.19,2.82,-1.89,moving,3
7.08,1848042.522247694,23,3,3,0,0,33.6,16.86,5.76,24.6,14.5,8.87,382.875,-653.6875,182.375,0.49871826171875,0.585205078125,-0.56219482421875,0.3045654296875,-37.75,38.5,-37.1875,8.99,2.36,-3.1,moving,3
7.09,1848042.522247694,23,3,3,0,0,28.55,11.89,-9.31,19.58,9.87,-5.91,-104.75,-213.5,256.25,0.486572265625,0.573486328125,-0.58709716796875,0.29949951171875,-37.75,38.5,-37.1875,8.97,2.02,-3.4,moving,3
7.1,1848042.547536634,23,3,3,0,0,25.89,4.03,-8.54,16.8,2.11,-5.41,-350.5,99.0,191.8125,0.5037841796875,0.54583740234375,-0.60125732421875,0.29443359375,-37.75,38.5,-37.1875,9.09,1.92,-3.12,moving,3
7.11,1848042.547536634,23,3,3,0,0,21.66,0.91,-7.2,12.39,-1.02,-4.66,-251.9375,315.5,62.9375,0.5303955078125,0.5230712890625,-0.59649658203125,0.298828125,-37.75,38.5,-37.1875,9.27,1.94,-2.53,moving,3
7.12,1848042.566315972,23,3,3,0,0,17.57,0.88,-3.63,8.16,-1.1,-1.69,-45.0625,359.5625,-12.25,0.5511474609375,0.51202392578125,-0.5802001953125,0.3121337890625,-49.75,32.25,-24.1875,9.4,1.98,-1.93,moving,3
7.13,1848042.566315972,23,3,3,0,0,17.11,2.62,0.57,7.64,0.57,2.14,111.125,247.25,-62.625,0.56024169921875,0.51361083984375,-0.56231689453125,0.32574462890625,-49.75,32.25,-24.1875,9.46,2.05,-1.56,moving,3
7.14,1848042.576806817,23,3,3,0,0,17.11,2.62,0.57,7.64,0.57,2.14,111.125,247.25,-62.625,0.56024169921875,0.51361083984375,-0.56231689453125,0.32574462890625,-49.75,32.25,-24.1875,9.46,2.05,-1.56,moving,3
7.15,1848042.576806817,23,3,3,0,0,16.84,6.07,3.57,7.38,3.95,5.01,110.0625,105.0,-62.1875,0.56219482421875,0.51904296875,-0.55120849609375,0.332763671875,-49.75,32.25,-24.1875,9.46,2.12,-1.43,moving,3
7.15,1848042.591711968,23,3,3,0,0,15.81,4.29,-2.34,6.36,2.12,-0.85,-3.9375,-31.875,-24.9375,0.5615234375,0.52099609375,-0.5517578125,0.32989501953125,-49.75,32.25,-24.1875,9.44,2.16,-1.48,moving,3
7.16,1848042.591711968,23,3,3,0,0,16.54,2.8,-1.61,7.13,0.61,0.07,-58.1875,-136.75,-6.625,0.5577392578125,0.5223388671875,-0.559814453125,0.32049560546875,-49.75,32.25,-24.1875,9.4,2.19,-1.69,moving,3
7.17,1848042.60838897,23,3,3,0,0,16.73,1.54,-1.45,7.37,-0.68,0.42,-61.4375,-126.8125,-9.9375,0.5545654296875,0.5233154296875,-0.56719970703125,0.31121826171875,-44.5,38.0,-29.875,9.36,2.22,-1.87,moving,3
7.18,1848042.60838897,23,3,3,0,0,15.41,0.83,-1.87,6.07,-1.44,0.03,-51.1875,-35.625,-19.375,0.5556640625,0.52276611328125,-0.5694580078125,0.30609130859375,-44.5,38.0,-29.875,9.34,2.27,-1.91,moving,3
7.19,1848042.624160007,23,3,3,0,0,11.34,1.58,-2.45,2.0,-0.75,-0.61,-41.9375,33.5625,-31.25,0.56005859375,0.52142333984375,-0.5675048828125,0.3040771484375,-44.5,38.0,-29.875,9.34,2.34,-1.84,moving,3
7.2,1848042.624160007,23,3,3,0,0,9.84,1.79,-1.92,0.5,-0.63,-0.17,-37.3125,48.8125,-45.8125,0.56536865234375,0.5205078125,-0.56402587890625,0.30218505859375,-44.5,38.0,-29.875,9.33,2.42,-1.74,moving,3
7.21,1848042.675564588,23,3,3,0,0,8.76,1.88,-1.14,-0.56,-0.64,0.52,-42.875,35.3125,-54.8125,0.57049560546875,0.5201416015625,-0.5609130859375,0.2989501953125,-44.5,38.0,-29.875,9.32,2.53,-1.67,moving,3
7.23,1848042.675564588,23,3,3,0,0,7.07,1.97,0.56,-2.22,-0.66,2.16,-56.6875,31.0,-60.25,0.57611083984375,0.51947021484375,-0.55810546875,0.29461669921875,-46.375,37.6875,-27.1875,9.3,2.64,-1.59,moving,3
7.24,1848042.687137586,23,3,3,0,0,6.09,2.0,1.01,-3.19,-0.77,2.48,-70.0625,56.375,-69.4375,0.58380126953125,0.517822265625,-0.55389404296875,0.29022216796875,-46.375,37.6875,-27.1875,9.28,2.77,-1.47,moving,3
7.24,1848042.687137586,23,3,3,0,0,4.9,2.14,1.29,-4.36,-0.78,2.55,-84.0625,101.75,-82.25,0.59454345703125,0.514892578125,-0.54705810546875,0.28656005859375,-46.375,37.6875,-27.1875,9.27,2.92,-1.26,moving,3
7.25,1848042.695110609,23,3,3,0,0,3.76,2.23,1.49,-5.48,-0.86,2.46,-97.8125,144.3125,-92.5,0.6080322265625,0.51055908203125,-0.53778076171875,0.2835693359375,-46.375,37.6875,-27.1875,9.25,3.09,-0.97,moving,3
7.26,1848042.695110609,23,3,3,0,0,2.5,2.14,1.31,-6.72,-1.12,1.95,-114.5,173.6875,-96.875,0.62353515625,0.504638671875,-0.5269775390625,0.28070068359375,-46.375,37.6875,-27.1875,9.22,3.26,-0.63,moving,3
7.27,1848042.714438368,23,3,3,0,0,2.25,2.36,0.99,-6.92,-1.06,1.26,-133.125,180.3125,-95.1875,0.639892578125,0.49725341796875,-0.51617431640625,0.27728271484375,-47.0,36.0625,-27.1875,9.18,3.43,-0.26,moving,3
7.28,1848042.714438368,23,3,3,0,0,1.96,2.37,0.86,-7.16,-1.2,0.77,-148.5625,162.875,-87.75,0.6556396484375,0.48883056640625,-0.5067138671875,0.272705078125,-47.0,36.0625,-27.1875,9.13,3.57,0.08,moving,3
7.29,1848042.728874322,23,3,3,0,0,1.61,2.05,0.59,-7.45,-1.64,0.19,-157.25,137.0,-79.0,0.670166015625,0.47998046875,-0.49920654296875,0.26702880859375,-47.0,36.0625,-27.1875,9.07,3.69,0.4,moving,3
7.3,1848042.728874322,23,3,3,0,0,1.04,1.22,-0.5,-7.97,-2.56,-1.17,-164.25,102.75,-69.9375,0.68304443359375,0.470947265625,-0.4940185546875,0.26007080078125,-47.0,36.0625,-27.1875,9.02,3.78,0.67,moving,3
7.32,1848042.762615451,23,3,3,0,0,0.67,0.85,-1.04,-8.3,-3.0,-1.91,-167.25,55.125,-59.0,0.69354248046875,0.46221923828125,-0.49200439453125,0.2515869140625,-47.0,36.0625,-27.1875,8.97,3.85,0.86,moving,3
7.32,1848042.762615451,23,3,3,0,0,0.31,0.62,-1.57,-8.62,-3.28,-2.56,-160.375,9.0625,-48.0,0.70135498046875,0.454345703125,-0.49298095703125,0.24212646484375,-45.25,35.0,-31.0625,8.93,3.9,0.99,moving,3
7.33,1848042.776988457,23,3,3,0,0,-0.09,0.34,-2.12,-9.01,-3.59,-3.17,-144.4375,-26.5,-41.1875,0.706787109375,0.44781494140625,-0.4959716796875,0.23236083984375,-45.25,35.0,-31.0625,8.91,3.94,1.04,moving,3
7.34,1848042.776988457,23,3,3,0,0,-0.72,0.08,-2.94,-9.61,-3.9,-4.0,-128.125,-53.4375,-40.5625,0.710205078125,0.44268798828125,-0.500244140625,0.22216796875,-45.25,35.0,-31.0625,8.89,3.98,1.05,moving,3
7.35,1848042.791491102,23,3,3,0,0,-0.41,0.2,-3.18,-9.28,-3.83,-4.21,-115.5625,-68.1875,-46.5,0.7125244140625,0.4388427734375,-0.5048828125,0.21160888671875,-45.25,35.0,-31.0625,8.87,4.03,1.02,moving,3
7.36,1848042.791491102,23,3,3,0,0,0.28,0.56,-3.31,-8.56,-3.54,-4.3,-102.0625,-70.9375,-52.0,0.7142333984375,0.43609619140625,-0.5091552734375,0.20111083984375,-45.25,35.0,-31.0625,8.85,4.1,0.99,moving,3
7.37,1848042.824819105,23,3,3,0,0,1.87,1.73,-3.65,-6.94,-2.42,-4.59,-76.875,-68.9375,-51.75,0.7149658203125,0.434814453125,-0.5128173828125,0.19189453125,-46.75,36.5,-28.0,8.82,4.16,0.94,moving,3
7.38,1848042.824819105,23,3,3,0,0,2.59,2.49,-4.12,-6.2,-1.74,-4.97,-35.75,-78.9375,-47.8125,0.71356201171875,0.43603515625,-0.5164794921875,0.18426513671875,-46.75,36.5,-28.0,8.8,4.23,0.84,moving,3
7.4,1848042.834519504,23,3,3,0,0,3.68,3.28,-4.58,-5.1,-1.01,-5.22,18.375,-125.625,-40.8125,0.70782470703125,0.44097900390625,-0.5224609375,0.17779541015625,-46.75,36.5,-28.0,8.79,4.3,0.63,moving,3
7.41,1848042.834519504,23,3,3,0,0,5.53,4.33,-4.96,-3.25,-0.02,-5.21,84.3125,-212.5,-32.4375,0.6951904296875,0.45086669921875,-0.53289794921875,0.17138671875,-46.75,36.5,-28.0,8.78,4.35,0.24,moving,3
7.41,1848042.840253106,23,3,3,0,0,5.53,4.33,-4.96,-3.25,-0.02,-5.21,84.3125,-212.5,-32.4375,0.6951904296875,0.45086669921875,-0.53289794921875,0.17138671875,-46.75,36.5,-28.0,8.78,4.35,0.24,moving,3
7.41,1848042.840253106,23,3,3,0,0,14.07,6.75,-3.43,5.31,2.36,-3.07,164.0625,-311.125,-21.625,0.67431640625,0.46630859375,-0.5482177734375,0.1654052734375,-46.75,36.5,-28.0,8.76,4.38,-0.35,moving,3
7.42,1848042.86834767,23,3,3,0,0,20.52,9.59,-2.18,11.81,5.22,-1.09,239.375,-364.1875,-3.4375,0.646728515625,0.4854736328125,-0.565673828125,0.16168212890625,-50.75,35.375,-21.5,8.71,4.36,-1.09,moving,3
7.43,1848042.86834767,23,3,3,0,0,26.43,13.42,-3.37,17.79,9.15,-1.58,239.375,-344.5,22.8125,0.61883544921875,0.50238037109375,-0.582275390625,0.16009521484375,-50.75,35.375,-21.5,8.64,4.26,-1.79,moving,3
7.45,1848042.879720269,23,3,3,0,0,33.11,18.43,-0.96,24.53,14.28,1.36,121.9375,-294.9375,50.8125,0.5975341796875,0.51031494140625,-0.5985107421875,0.156005859375,-50.75,35.375,-21.5,8.57,4.14,-2.32,moving,3
7.45,1848042.879720269,23,3,3,0,0,27.4,15.68,-6.82,18.82,11.64,-4.31,-117.375,-182.1875,110.8125,0.591552734375,0.50079345703125,-0.61444091796875,0.14752197265625,-50.75,35.375,-21.5,8.57,4.03,-2.51,moving,3
7.47,1848042.894534722,23,3,3,0,0,22.25,8.93,-7.21,13.63,4.92,-4.83,-198.5,-7.0,74.5625,0.59881591796875,0.486572265625,-0.6204833984375,0.140380859375,-50.75,35.375,-21.5,8.62,4.0,-2.38,moving,3
7.48,1848042.894534722,23,3,3,0,0,18.19,7.58,-7.3,9.52,3.54,-5.15,-41.4375,141.9375,-15.5625,0.60833740234375,0.48345947265625,-0.61285400390625,0.143310546875,-54.0,33.25,-12.6875,8.67,4.04,-2.14,moving,3
7.49,1848042.929001356,23,3,3,0,0,14.49,9.55,-5.36,5.8,5.46,-3.35,81.4375,127.1875,-47.5625,0.61224365234375,0.48870849609375,-0.60302734375,0.1505126953125,-54.0,33.25,-12.6875,8.68,4.08,-2.01,moving,3
7.49,1848042.929001356,23,3,3,0,0,13.03,10.44,-1.31,4.37,6.31,0.69,88.4375,44.1875,-49.8125,0.6114501953125,0.4954833984375,-0.59735107421875,0.15435791015625,-54.0,33.25,-12.6875,8.66,4.13,-2.0,moving,3
7.5,1848042.941237155,23,3,3,0,0,12.66,8.54,-0.7,4.0,4.38,1.27,28.375,29.875,-26.375,0.612060546875,0.4979248046875,-0.59423828125,0.15570068359375,-54.0,33.25,-12.6875,8.65,4.16,-1.98,moving,3
7.51,1848042.941237155,23,3,3,0,0,11.75,5.88,-0.36,3.08,1.7,1.47,-28.25,80.25,-8.4375,0.6175537109375,0.49578857421875,-0.5899658203125,0.15728759765625,-54.0,33.25,-12.6875,8.67,4.18,-1.84,moving,3
7.53,1848042.973006239,23,3,3,0,0,9.12,2.33,0.54,0.41,-1.88,2.13,-47.375,142.6875,-8.4375,0.62701416015625,0.49169921875,-0.58251953125,0.1605224609375,-53.25,35.5,-11.875,8.71,4.21,-1.59,moving,3
7.54,1848042.973006239,23,3,3,0,0,7.64,2.39,0.13,-1.1,-1.85,1.38,-34.3125,209.8125,-18.125,0.6392822265625,0.48773193359375,-0.57061767578125,0.166748046875,-53.25,35.5,-11.875,8.75,4.24,-1.24,moving,3
7.55,1848042.986855726,23,3,3,0,0,5.8,3.03,-0.22,-2.97,-1.24,0.63,-0.1875,249.3125,-22.8125,0.65185546875,0.485107421875,-0.5556640625,0.176025390625,-53.25,35.5,-11.875,8.77,4.28,-0.86,moving,3
7.56,1848042.986855726,23,3,3,0,0,4.13,3.5,-0.04,-4.66,-0.78,0.5,45.125,226.4375,-11.5,0.66094970703125,0.48468017578125,-0.54144287109375,0.18707275390625,-53.25,35.5,-11.875,8.79,4.29,-0.55,moving,3
7.57,1848043.001751682,23,3,3,0,0,2.29,2.64,1.25,-6.52,-1.63,1.62,82.375,157.8125,7.25,0.66473388671875,0.4864501953125,-0.53125,0.19805908203125,-53.25,35.5,-11.875,8.81,4.27,-0.37,moving,3
7.57,1848043.001751682,23,3,3,0,0,1.89,1.83,2.01,-6.94,-2.39,2.32,96.6875,85.0,22.625,0.66412353515625,0.48956298828125,-0.52557373046875,0.2073974609375,-52.875,34.375,-17.5625,8.83,4.23,-0.31,moving,3
7.58,1848043.01708351,23,3,3,0,0,1.87,1.11,2.38,-6.98,-3.07,2.67,88.8125,54.75,31.125,0.6622314453125,0.49224853515625,-0.5220947265625,0.21563720703125,-52.875,34.375,-17.5625,8.86,4.18,-0.29,moving,3
7.59,1848043.01708351,23,3,3,0,0,1.77,0.49,2.43,-7.11,-3.63,2.67,65.5,62.125,33.625,0.66162109375,0.49334716796875,-0.51873779296875,0.22320556640625,-52.875,34.375,-17.5625,8.89,4.13,-0.24,moving,3
7.6,1848043.04923862,23,3,3,0,0,0.92,-0.28,1.33,-7.99,-4.36,1.46,35.625,92.5625,34.0,0.66357421875,0.4920654296875,-0.51409912109375,0.230712890625,-52.875,34.375,-17.5625,8.91,4.07,-0.12,moving,3
7.62,1848043.04923862,23,3,3,0,0,0.59,-0.53,0.26,-8.34,-4.55,0.19,8.4375,130.9375,38.9375,0.66827392578125,0.48809814453125,-0.50799560546875,0.23895263671875,-52.875,34.375,-17.5625,8.94,4.01,0.07,moving,3
7.63,1848043.064625664,23,3,3,0,0,0.11,-0.52,-0.71,-8.86,-4.45,-1.02,-9.9375,147.0625,55.375,0.67401123046875,0.48199462890625,-0.501953125,0.24798583984375,-50.375,33.6875,-26.375,8.97,3.93,0.3,moving,3
7.64,1848043.064625664,23,3,3,0,0,-0.06,-0.37,-1.95,-9.08,-4.19,-2.47,-19.5,130.5625,74.0625,0.6788330078125,0.4747314453125,-0.49774169921875,0.2569580078125,-50.375,33.6875,-26.375,9.01,3.81,0.52,moving,3
7.65,1848043.093874769,23,3,3,0,0,0.33,0.1,-4.41,-8.73,-3.58,-5.06,-19.3125,69.0625,78.9375,0.68084716796875,0.46856689453125,-0.49737548828125,0.26361083984375,-50.375,33.6875,-26.375,9.06,3.68,0.64,moving,3
7.66,1848043.093874769,23,3,3,0,0,0.67,-0.04,-5.18,-8.44,-3.61,-5.78,0.6875,-24.5625,74.875,0.67803955078125,0.4659423828125,-0.5018310546875,0.26708984375,-50.375,33.6875,-26.375,9.11,3.56,0.6,moving,3
7.66,1848043.104255507,23,3,3,0,0,0.98,-0.21,-5.81,-8.18,-3.66,-6.22,45.625,-105.625,77.0,0.669677734375,0.46771240234375,-0.5101318359375,0.269287109375,-50.375,33.6875,-26.375,9.17,3.44,0.41,moving,3
7.67,1848043.104255507,23,3,3,0,0,0.98,-0.21,-5.81,-8.18,-3.66,-6.22,45.625,-105.625,77.0,0.669677734375,0.46771240234375,-0.5101318359375,0.269287109375,-50.375,33.6875,-26.375,9.17,3.44,0.41,moving,3
7.68,1848043.121352593,23,3,3,0,0,1.61,-0.07,-6.27,-7.61,-3.39,-6.36,104.25,-158.25,82.8125,0.65631103515625,0.4737548828125,-0.52020263671875,0.27227783203125,-46.375,35.375,-29.875,9.22,3.32,0.09,moving,3
7.68,1848043.121352593,23,3,3,0,0,3.78,0.33,-6.32,-5.48,-2.85,-6.02,165.0,-189.4375,80.875,0.6387939453125,0.48394775390625,-0.53033447265625,0.2764892578125,-46.375,35.375,-29.875,9.26,3.18,-0.3,moving,3
7.7,1848043.13578871,23,3,3,0,0,5.24,0.63,-6.35,-4.03,-2.42,-5.59,220.5625,-207.6875,66.625,0.6180419921875,0.49798583984375,-0.53924560546875,0.281494140625,-46.375,35.375,-29.875,9.28,3.05,-0.76,moving,3
7.71,1848043.13578871,23,3,3,0,0,6.73,0.86,-6.41,-2.53,-2.07,-5.15,270.875,-220.75,48.0625,0.59442138671875,0.5155029296875,-0.54632568359375,0.287109375,-46.375,35.375,-29.875,9.27,2.93,-1.26,moving,3
7.72,1848043.150948378,23,3,3,0,0,10.76,0.98,-6.36,1.53,-1.81,-4.57,318.875,-230.375,33.75,0.56787109375,0.535888671875,-0.551513671875,0.29351806640625,-46.375,35.375,-29.875,9.22,2.79,-1.79,moving,3
7.73,1848043.150948378,23,3,3,0,0,14.66,1.25,-6.2,5.5,-1.36,-3.86,356.625,-236.125,27.3125,0.53875732421875,0.55792236328125,-0.55499267578125,0.30078125,-46.6875,37.1875,-28.0,9.15,2.62,-2.33,moving,3
7.74,1848043.182119764,23,3,3,0,0,18.27,2.73,-4.34,9.22,0.33,-1.44,363.8125,-252.75,34.9375,0.5074462890625,0.57952880859375,-0.55859375,0.3074951171875,-46.6875,37.1875,-28.0,9.05,2.39,-2.9,moving,3
7.75,1848043.182119764,23,3,3,0,0,23.26,8.73,7.92,14.31,6.58,11.31,306.25,-233.75,54.25,0.47882080078125,0.59637451171875,-0.56317138671875,0.31280517578125,-46.6875,37.1875,-28.0,8.94,2.14,-3.39,moving,3
7.75,1848043.19578342,23,3,3,0,0,23.27,7.3,-8.94,14.25,5.31,-5.65,-34.75,57.5,110.9375,0.48040771484375,0.587890625,-0.5675048828125,0.31866455078125,-46.6875,37.1875,-28.0,9.02,1.99,-3.28,moving,3
7.77,1848043.19578342,23,3,3,0,0,23.55,0.82,-5.16,14.36,-1.11,-2.34,-347.8125,220.625,150.0625,0.50457763671875,0.55938720703125,-0.5751953125,0.31884765625,-46.6875,37.1875,-28.0,9.19,1.93,-2.81,moving,3
7.78,1848043.21094675,23,3,3,0,0,23.7,-0.53,-5.44,14.43,-2.43,-2.86,-278.0,93.1875,109.0625,0.51959228515625,0.53887939453125,-0.583984375,0.3140869140625,-50.375,31.75,-26.375,9.27,1.89,-2.57,moving,3
7.79,1848043.21094675,23,3,3,0,0,22.31,1.43,-4.64,13.01,-0.42,-2.14,-118.6875,21.8125,50.8125,0.5247802734375,0.5302734375,-0.58856201171875,0.3114013671875,-50.375,31.75,-26.375,9.29,1.86,-2.5,moving,3
7.8,1848043.237116143,23,3,3,0,0,18.58,2.05,-2.83,9.28,0.18,-0.34,71.5,20.75,-19.8125,0.5230712890625,0.53399658203125,-0.58477783203125,0.3150634765625,-50.375,31.75,-26.375,9.29,1.86,-2.49,moving,3
7.81,1848043.237116143,23,3,3,0,0,18.15,3.92,-1.46,8.87,2.05,1.08,165.0625,-5.3125,-47.4375,0.516357421875,0.54400634765625,-0.5782470703125,0.321044921875,-50.375,31.75,-26.375,9.28,1.86,-2.55,moving,3
7.82,1848043.257717787,23,3,3,0,0,17.32,5.01,-2.34,8.07,3.13,0.31,100.5,-45.3125,-40.6875,0.5103759765625,0.55181884765625,-0.57550048828125,0.3221435546875,-50.375,31.75,-26.375,9.24,1.88,-2.66,moving,3
7.83,1848043.257717787,23,3,3,0,0,16.06,4.24,-3.49,6.84,2.3,-0.77,-17.6875,-41.9375,-26.8125,0.5098876953125,0.5535888671875,-0.57659912109375,0.31805419921875,-46.6875,39.375,-26.0625,9.21,1.93,-2.72,moving,3
7.84,1848043.266548191,23,3,3,0,0,13.67,0.65,-1.88,4.45,-1.35,0.8,-80.3125,2.4375,-18.25,0.51434326171875,0.55084228515625,-0.57781982421875,0.31329345703125,-46.6875,39.375,-26.0625,9.21,2.0,-2.69,moving,3
7.85,1848043.266548191,23,3,3,0,0,12.24,0.33,-1.74,3.01,-1.73,0.82,-110.4375,55.625,-11.375,0.522705078125,0.544921875,-0.5777587890625,0.30987548828125,-46.6875,39.375,-26.0625,9.23,2.07,-2.56,moving,3
7.86,1848043.326640964,23,3,3,0,0,10.94,0.55,-1.54,1.67,-1.6,0.84,-123.6875,81.75,-17.6875,0.53314208984375,0.53790283203125,-0.5765380859375,0.30670166015625,-46.6875,39.375,-26.0625,9.26,2.15,-2.38,moving,3
7.87,1848043.326640964,23,3,3,0,0,8.62,1.06,-0.7,-0.66,-1.18,1.48,-112.25,91.5,-29.9375,0.54376220703125,0.53167724609375,-0.57379150390625,0.303955078125,-46.6875,39.375,-26.0625,9.28,2.24,-2.19,moving,3
7.88,1848043.330905857,23,3,3,0,0,7.45,1.45,-0.12,-1.85,-0.9,1.86,-89.75,103.3125,-43.5,0.55419921875,0.52679443359375,-0.5692138671875,0.30218505859375,-48.25,36.75,-26.75,9.3,2.35,-1.99,moving,3
7.89,1848043.330905857,23,3,3,0,0,6.15,1.84,0.22,-3.16,-0.62,2.0,-72.875,111.4375,-58.1875,0.5645751953125,0.523193359375,-0.56304931640625,0.30084228515625,-48.25,36.75,-26.75,9.32,2.47,-1.78,moving,3
7.9,1848043.336803196,23,3,3,0,0,5.05,1.95,0.34,-4.26,-0.65,1.91,-68.875,112.5625,-73.0,0.5750732421875,0.5203857421875,-0.55596923828125,0.29901123046875,-48.25,36.75,-26.75,9.32,2.6,-1.56,moving,3
7.91,1848043.336803196,23,3,3,0,0,3.64,1.76,0.28,-5.67,-0.99,1.64,-71.75,107.3125,-79.8125,0.5855712890625,0.517822265625,-0.54876708984375,0.29638671875,-48.25,36.75,-26.75,9.31,2.75,-1.35,moving,3
7.92,1848043.344950616,23,3,3,0,0,2.87,1.63,0.42,-6.41,-1.26,1.57,-75.125,104.0,-77.5,0.59588623046875,0.51495361328125,-0.5418701171875,0.29351806640625,-48.25,36.75,-26.75,9.29,2.89,-1.15,moving,3
7.92,1848043.344950616,23,3,3,0,0,2.87,1.63,0.42,-6.41,-1.26,1.57,-75.125,104.0,-77.5,0.59588623046875,0.51495361328125,-0.5418701171875,0.29351806640625,-48.25,36.75,-26.75,9.29,2.89,-1.15,moving,3
7.93,1848043.362367038,23,3,3,0,0,2.32,1.6,0.24,-6.95,-1.42,1.19,-78.9375,103.6875,-71.875,0.60614013671875,0.51153564453125,-0.53521728515625,0.2906494140625,-47.0625,37.1875,-28.25,9.27,3.02,-0.94,moving,3
7.94,1848043.362367038,23,3,3,0,0,2.1,1.53,-0.26,-7.15,-1.62,0.45,-82.0,109.25,-69.3125,0.6165771484375,0.507568359375,-0.5284423828125,0.28802490234375,-47.0625,37.1875,-28.25,9.25,3.15,-0.72,moving,3
7.95,1848043.391588474,23,3,3,0,0,1.36,1.21,-0.74,-7.86,-2.05,-0.22,-81.375,99.125,-66.3125,0.6263427734375,0.50372314453125,-0.52215576171875,0.28509521484375,-47.0625,37.1875,-28.25,9.23,3.26,-0.51,moving,3
7.96,1848043.391588474,23,3,3,0,0,0.99,0.96,-0.76,-8.2,-2.4,-0.41,-79.375,75.5,-60.9375,0.634765625,0.500244140625,-0.517333984375,0.28143310546875,-47.0625,37.1875,-28.25,9.2,3.37,-0.35,moving,3
7.97,1848043.408974013,23,3,3,0,0,0.89,0.62,-0.75,-8.27,-2.83,-0.54,-84.4375,55.9375,-55.625,0.64227294921875,0.4967041015625,-0.51385498046875,0.2769775390625,-47.0625,37.1875,-28.25,9.17,3.46,-0.21,moving,3
7.98,1848043.408974013,23,3,3,0,0,1.23,0.56,-1.03,-7.9,-2.98,-0.96,-100.9375,48.625,-51.3125,0.6500244140625,0.49212646484375,-0.51129150390625,0.271728515625,-46.5,35.0,-31.0,9.14,3.54,-0.07,moving,3
7.99,1848043.421030572,23,3,3,0,0,1.86,0.7,-1.88,-7.24,-2.91,-1.95,-122.375,44.125,-47.875,0.6583251953125,0.4862060546875,-0.5096435546875,0.26544189453125,-46.5,35.0,-31.0,9.11,3.62,0.07,moving,3
8.0,1848043.421030572,23,3,3,0,0,1.83,0.58,-2.65,-7.24,-3.09,-2.88,-136.125,38.5625,-42.0,0.666748046875,0.4793701171875,-0.50872802734375,0.258544921875,-46.5,35.0,-31.0,9.08,3.68,0.22,moving,3
8.01,1848043.448188856,23,3,3,0,0,1.98,0.78,-3.74,-7.07,-2.94,-4.1,-139.875,24.4375,-30.6875,0.67431640625,0.47198486328125,-0.5091552734375,0.2515869140625,-46.5,35.0,-31.0,9.06,3.72,0.35,moving,3
8.02,1848043.448188856,23,3,3,0,0,3.9,0.94,-4.81,-5.14,-2.8,-5.21,-132.75,-24.25,-18.5,0.67901611328125,0.46551513671875,-0.5126953125,0.24359130859375,-46.5,35.0,-31.0,9.05,3.75,0.4,moving,3
8.03,1848043.461030368,23,3,3,0,0,5.54,1.05,-5.06,-3.5,-2.7,-5.37,-104.0625,-102.6875,-10.25,0.6788330078125,0.4619140625,-0.52056884765625,0.234130859375,-47.5,35.0,-29.5,9.05,3.75,0.3,moving,3
8.04,1848043.461030368,23,3,3,0,0,7.47,1.31,-5.48,-1.58,-2.44,-5.53,-47.875,-182.0625,-0.5625,0.67236328125,0.4627685546875,-0.5322265625,0.22454833984375,-47.5,35.0,-29.5,9.05,3.75,0.04,moving,3
8.05,1848043.481051446,23,3,3,0,0,9.8,1.71,-6.06,0.74,-2.01,-5.68,29.3125,-261.0625,13.125,0.65863037109375,0.4688720703125,-0.54736328125,0.21612548828125,-47.5,35.0,-29.5,9.05,3.73,-0.38,moving,3
8.06,1848043.481051446,23,3,3,0,0,16.0,3.03,-6.17,6.96,-0.64,-5.16,109.875,-351.125,30.9375,0.63641357421875,0.4801025390625,-0.56646728515625,0.20867919921875,-47.5,35.0,-29.5,9.03,3.67,-1.0,moving,3
8.07,1848043.512285536,23,3,3,0,0,20.05,4.88,-3.05,11.09,1.33,-1.27,174.125,-421.5625,52.5,0.6068115234375,0.49444580078125,-0.58843994140625,0.202392578125,-47.5,35.0,-29.5,8.96,3.54,-1.78,moving,3
8.08,1848043.512285536,23,3,3,0,0,24.49,9.72,0.2,15.63,6.35,2.67,173.9375,-373.9375,67.3125,0.57855224609375,0.5064697265625,-0.60772705078125,0.1986083984375,-49.0,37.1875,-22.0625,8.86,3.37,-2.46,moving,3
8.09,1848043.522607029,23,3,3,0,0,28.11,16.71,3.28,19.28,13.44,6.01,28.3125,-161.625,62.125,0.56756591796875,0.50738525390625,-0.6180419921875,0.19610595703125,-49.0,37.1875,-22.0625,8.83,3.27,-2.73,moving,3
8.1,1848043.522607029,23,3,3,0,0,14.44,8.49,-4.27,5.54,5.21,-1.82,-170.375,115.75,37.9375,0.58056640625,0.49481201171875,-0.6168212890625,0.19390869140625,-49.0,37.1875,-22.0625,8.9,3.28,-2.45,moving,3
8.11,1848043.536435683,23,3,3,0,0,11.56,6.18,-4.09,2.58,2.77,-2.13,-178.9375,249.0625,-29.9375,0.60198974609375,0.48297119140625,-0.60577392578125,0.19342041015625,-49.0,37.1875,-22.0625,8.98,3.4,-1.96,moving,3
8.12,1848043.536435683,23,3,3,0,0,9.78,6.4,-2.84,0.77,2.87,-1.23,-73.125,199.4375,-61.9375,0.61651611328125,0.47900390625,-0.59381103515625,0.1947021484375,-49.0,37.1875,-22.0625,9.0,3.52,-1.6,moving,3
8.13,1848043.571700209,23,3,3,0,0,9.39,7.68,-1.76,0.39,4.06,-0.27,6.75,80.8125,-61.875,0.62139892578125,0.48114013671875,-0.58673095703125,0.195068359375,-51.0625,37.875,-14.0625,8.99,3.61,-1.48,moving,3
8.14,1848043.571700209,23,3,3,0,0,9.14,8.29,-0.91,0.17,4.61,0.6,34.75,-6.1875,-43.1875,0.620361328125,0.4853515625,-0.58465576171875,0.1942138671875,-51.0625,37.875,-14.0625,8.96,3.67,-1.51,moving,3
8.15,1848043.581448459,23,3,3,0,0,8.95,7.46,-0.7,0.01,3.74,0.88,24.6875,-33.75,-27.5,0.6180419921875,0.48870849609375,-0.58489990234375,0.19256591796875,-51.0625,37.875,-14.0625,8.93,3.71,-1.58,moving,3
8.16,1848043.581448459,23,3,3,0,0,8.6,6.14,-0.14,-0.3,2.39,1.46,-1.375,-13.3125,-24.9375,0.6177978515625,0.4901123046875,-0.5845947265625,0.1905517578125,-51.0625,37.875,-14.0625,8.91,3.75,-1.6,moving,3
8.17,1848043.597460422,23,3,3,0,0,8.06,4.67,0.13,-0.84,0.87,1.64,-32.125,44.1875,-27.125,0.62188720703125,0.489013671875,-0.58160400390625,0.1893310546875,-51.0625,37.875,-14.0625,8.9,3.8,-1.51,moving,3
8.18,1848043.597460422,23,3,3,0,0,6.69,1.91,0.17,-2.22,-1.94,1.47,-60.5,114.375,-30.1875,0.6307373046875,0.4853515625,-0.5750732421875,0.18951416015625,-51.875,37.5625,-16.75,8.91,3.86,-1.3,moving,3
8.18,1848043.613905246,23,3,3,0,0,6.69,1.91,0.17,-2.22,-1.94,1.47,-60.5,114.375,-30.1875,0.6307373046875,0.4853515625,-0.5750732421875,0.18951416015625,-51.875,37.5625,-16.75,8.91,3.86,-1.3,moving,3
8.19,1848043.613905246,23,3,3,0,0,6.21,1.26,-0.11,-2.71,-2.66,0.86,-80.3125,173.5,-31.5,0.64324951171875,0.4796142578125,-0.5654296875,0.1910400390625,-51.875,37.5625,-16.75,8.93,3.93,-0.97,moving,3
8.2,1848043.627466933,23,3,3,0,0,5.63,1.16,-0.31,-3.3,-2.82,0.27,-89.25,207.0,-29.875,0.65753173828125,0.4725341796875,-0.553955078125,0.19354248046875,-51.875,37.5625,-16.75,8.93,3.99,-0.59,moving,3
8.21,1848043.627466933,23,3,3,0,0,4.12,2.04,-0.38,-4.8,-1.98,-0.18,-93.5,208.1875,-26.5625,0.6717529296875,0.46484375,-0.54241943359375,0.196044921875,-51.875,37.5625,-16.75,8.93,4.03,-0.2,moving,3
8.22,1848043.662534356,23,3,3,0,0,4.16,2.25,-0.19,-4.75,-1.82,-0.35,-91.375,190.375,-27.25,0.684814453125,0.45745849609375,-0.5316162109375,0.19781494140625,-51.875,37.5625,-16.75,8.91,4.08,0.15,moving,3
8.23,1848043.662534356,23,3,3,0,0,4.31,2.11,0.26,-4.57,-1.99,-0.19,-81.625,159.6875,-24.3125,0.69580078125,0.450927734375,-0.5224609375,0.19891357421875,-51.875,36.0625,-20.5625,8.88,4.11,0.46,moving,3
8.24,1848043.67525567,23,3,3,0,0,4.27,2.2,0.46,-4.59,-1.91,-0.23,-68.75,116.0,-6.5625,0.703857421875,0.44500732421875,-0.51629638671875,0.199951171875,-51.875,36.0625,-20.5625,8.87,4.11,0.69,moving,3
8.25,1848043.67525567,23,3,3,0,0,4.81,2.21,-1.44,-4.05,-1.87,-2.28,-53.9375,69.9375,13.0,0.7088623046875,0.43988037109375,-0.513427734375,0.20098876953125,-51.875,36.0625,-20.5625,8.87,4.09,0.84,stop,3
8.26,1848043.687855157,23,3,3,0,0,5.9,2.09,-2.25,-2.99,-1.94,-3.11,-32.8125,-2.625,27.3125,0.70953369140625,0.4366455078125,-0.51519775390625,0.20111083984375,-51.875,36.0625,-20.5625,8.89,4.04,0.86,stop,3
8.27,1848043.687855157,23,3,3,0,0,7.4,2.27,-2.53,-1.52,-1.7,-3.22,-4.25,-113.875,41.9375,0.70379638671875,0.4365234375,-0.52392578125,0.19915771484375,-51.875,36.0625,-20.5625,8.93,3.97,0.68,stop,3
8.28,1848043.722663303,23,3,3,0,0,9.39,2.65,-3.19,0.4,-1.24,-3.51,39.6875,-219.0,53.5625,0.691162109375,0.44024658203125,-0.53863525390625,0.19586181640625,-48.5625,37.1875,-23.6875,8.99,3.89,0.31,stop,3
8.29,1848043.722663303,23,3,3,0,0,13.88,3.78,-5.16,4.84,0.0,-4.94,92.1875,-299.875,66.5,0.672119140625,0.4476318359375,-0.55743408203125,0.192626953125,-48.5625,37.1875,-23.6875,9.04,3.79,-0.21,stop,3
8.3,1848043.736777927,23,3,3,0,0,16.06,4.49,-5.99,7.0,0.84,-5.13,134.5,-350.6875,82.4375,0.6480712890625,0.4571533203125,-0.57867431640625,0.190185546875,-48.5625,37.1875,-23.6875,9.06,3.65,-0.85,stop,3
8.31,1848043.736777927,23,3,3,0,0,16.97,4.98,-5.62,7.92,1.5,-4.15,153.625,-325.0625,88.0625,0.62371826171875,0.466552734375,-0.59771728515625,0.18988037109375,-48.5625,37.1875,-23.6875,9.04,3.48,-1.46,stop,3
8.32,1848043.749762953,23,3,3,0,0,15.95,5.73,-3.59,6.91,2.39,-1.72,130.75,-201.25,69.3125,0.60662841796875,0.4732666015625,-0.60919189453125,0.19219970703125,-48.5625,37.1875,-23.6875,9.03,3.33,-1.86,stop,3
8.33,1848043.749762953,23,3,3,0,0,12.72,5.65,-2.37,3.68,2.37,-0.49,57.875,13.5625,18.875,0.6046142578125,0.47509765625,-0.6082763671875,0.19683837890625,-49.25,39.0,-17.0625,9.04,3.28,-1.87,stop,3
8.34,1848043.782033258,23,3,3,0,0,11.12,4.89,-1.92,2.02,1.57,-0.36,12.75,204.3125,-28.8125,0.61529541015625,0.4737548828125,-0.59600830078125,0.20440673828125,-49.25,39.0,-17.0625,9.09,3.32,-1.56,stop,3
8.35,1848043.782033258,23,3,3,0,0,10.01,3.99,-1.23,0.89,0.58,-0.09,6.875,271.875,-53.4375,0.6298828125,0.471923828125,-0.57891845703125,0.21307373046875,-49.25,39.0,-17.0625,9.12,3.41,-1.13,stop,3
8.36,1848043.792427667,23,3,3,0,0,7.93,4.73,3.21,-1.19,1.21,3.96,11.5,246.9375,-67.4375,0.6429443359375,0.47125244140625,-0.562255859375,0.2200927734375,-49.25,39.0,-17.0625,9.12,3.51,-0.74,stop,3
8.37,1848043.792427667,23,3,3,0,0,7.3,7.21,6.03,-1.79,3.6,6.48,-7.375,187.8125,-62.125,0.65350341796875,0.47021484375,-0.54925537109375,0.223876953125,-49.25,39.0,-17.0625,9.1,3.61,-0.44,stop,3
8.38,1848043.812960911,23,3,3,0,0,8.07,5.12,3.36,-1.01,1.44,3.57,-82.375,111.625,-36.5,0.66290283203125,0.465087890625,-0.54296875,0.222412109375,-48.5625,39.0,-19.0625,9.08,3.67,-0.21,stop,3
8.39,1848043.812960911,23,3,3,0,0,8.57,1.89,1.45,-0.51,-1.79,1.48,-123.125,63.5625,-5.8125,0.67095947265625,0.45697021484375,-0.5413818359375,0.21881103515625,-48.5625,39.0,-19.0625,9.08,3.69,-0.03,stop,3
8.4,1848043.845265435,23,3,3,0,0,7.52,0.92,0.83,-1.57,-2.74,0.79,-79.75,22.25,12.9375,0.6749267578125,0.45123291015625,-0.5421142578125,0.2166748046875,-48.5625,39.0,-19.0625,9.09,3.66,0.04,stop,3
8.41,1848043.845265435,23,3,3,0,0,7.98,1.69,1.06,-1.11,-1.95,1.04,-24.0,-24.25,8.5,0.674560546875,0.44989013671875,-0.5443115234375,0.215087890625,-48.5625,39.0,-19.0625,9.09,3.65,0.02,stop,3
8.42,1848043.853158461,23,3,3,0,0,8.79,2.57,1.47,-0.29,-1.1,1.55,26.5,-52.6875,-11.1875,0.67120361328125,0.4530029296875,-0.5465087890625,0.213623046875,-48.5625,39.0,-19.0625,9.09,3.67,-0.07,stop,3
8.43,1848043.853158461,23,3,3,0,0,8.93,3.09,1.4,-0.13,-0.61,1.58,65.0625,-38.625,-25.625,0.667236328125,0.458740234375,-0.5465087890625,0.21368408203125,-47.5,38.5625,-22.0625,9.07,3.71,-0.17,stop,3
8.44,1848043.86953342,23,3,3,0,0,8.97,3.61,0.18,-0.08,-0.13,0.42,76.25,-3.6875,-29.4375,0.66455078125,0.46466064453125,-0.54412841796875,0.2154541015625,-47.5,38.5625,-22.0625,9.05,3.75,-0.23,stop,3
8.44,1848043.86953342,23,3,3,0,0,8.97,3.61,0.18,-0.08,-0.13,0.42,76.25,-3.6875,-29.4375,0.66455078125,0.46466064453125,-0.54412841796875,0.2154541015625,-47.5,38.5625,-22.0625,9.05,3.75,-0.23,stop,3
8.45,1848043.886681695,23,3,3,0,0,8.87,3.51,-0.48,-0.15,-0.27,-0.23,59.1875,16.5625,-27.125,0.6634521484375,0.46905517578125,-0.54095458984375,0.21734619140625,-47.5,38.5625,-22.0625,9.03,3.79,-0.24,stop,3
8.46,1848043.886681695,23,3,3,0,0,8.85,3.31,-0.99,-0.17,-0.51,-0.75,32.6875,20.8125,-21.25,0.6634521484375,0.4715576171875,-0.53826904296875,0.218505859375,-47.5,38.5625,-22.0625,9.02,3.82,-0.23,stop,3
8.47,1848043.899011122,23,3,3,0,0,8.79,2.89,-1.36,-0.22,-0.95,-1.14,15.875,18.0,-12.5625,0.66387939453125,0.47271728515625,-0.536376953125,0.21923828125,-47.5,38.5625,-22.0625,9.01,3.84,-0.21,stop,3
8.48,1848043.899011122,23,3,3,0,0,8.31,2.51,-2.3,-0.69,-1.33,-2.08,13.1875,7.4375,-0.9375,0.6636962890625,0.473388671875,-0.53570556640625,0.22015380859375,-50.0625,37.5625,-22.5,9.01,3.84,-0.21,stop,3
8.49,1848043.931573419,23,3,3,0,0,8.46,2.53,-2.59,-0.55,-1.29,-2.33,20.5625,-15.75,8.875,0.66192626953125,0.47442626953125,-0.53656005859375,0.220947265625,-50.0625,37.5625,-22.5,9.02,3.83,-0.25,stop,3
8.5,1848043.931573419,23,3,3,0,0,8.82,2.53,-2.57,-0.2,-1.27,-2.21,35.1875,-48.8125,14.75,0.65789794921875,0.47674560546875,-0.539306640625,0.221435546875,-50.0625,37.5625,-22.5,9.02,3.8,-0.35,stop,3
8.51,1848043.947803359,23,3,3,0,0,9.93,3.24,-1.51,0.89,-0.53,-1.01,50.375,-74.625,18.0,0.65191650390625,0.480224609375,-0.54339599609375,0.22174072265625,-50.0625,37.5625,-22.5,9.03,3.77,-0.5,stop,3
8.52,1848043.947803359,23,3,3,0,0,10.35,3.68,-0.54,1.31,-0.05,0.11,55.125,-74.0,18.875,0.64569091796875,0.48388671875,-0.54730224609375,0.2222900390625,-50.0625,37.5625,-22.5,9.04,3.74,-0.66,stop,3
8.53,1848043.958836562,23,3,3,0,0,10.28,3.83,0.07,1.24,0.11,0.83,46.625,-40.3125,15.125,0.6414794921875,0.486572265625,-0.54931640625,0.22369384765625,-50.0625,36.5,-23.25,9.04,3.71,-0.75,stop,3
8.54,1848043.958836562,23,3,3,0,0,9.74,4.15,0.37,0.68,0.45,1.13,26.0,10.875,8.625,0.6407470703125,0.48736572265625,-0.548583984375,0.22589111328125,-50.0625,36.5,-23.25,9.05,3.69,-0.75,stop,3
8.55,1848043.993151625,23,3,3,0,0,8.91,3.94,0.44,-0.14,0.25,1.13,4.0625,45.0625,3.5625,0.64263916015625,0.48651123046875,-0.546142578125,0.22821044921875,-50.0625,36.5,-23.25,9.06,3.68,-0.68,stop,3
8.56,1848043.993151625,23,3,3,0,0,8.57,3.51,0.31,-0.49,-0.16,0.9,-8.375,52.6875,1.4375,0.64544677734375,0.48492431640625,-0.54339599609375,0.2301025390625,-50.0625,36.5,-23.25,9.06,3.68,-0.59,stop,3
8.57,1848044.002321751,23,3,3,0,0,8.39,3.22,0.15,-0.67,-0.46,0.67,-6.125,42.75,2.6875,0.64764404296875,0.48358154296875,-0.541259765625,0.2318115234375,-50.0625,36.5,-23.25,9.07,3.68,-0.52,stop,3
8.58,1848044.002321751,23,3,3,0,0,8.45,3.18,0.03,-0.62,-0.49,0.53,8.0,22.9375,4.625,0.6483154296875,0.4833984375,-0.53997802734375,0.2333984375,-49.6875,36.5,-22.875,9.07,3.67,-0.49,stop,3
8.59,1848044.019653375,23,3,3,0,0,8.88,3.5,-0.13,-0.19,-0.15,0.36,23.5625,2.0,5.25,0.64727783203125,0.48443603515625,-0.53961181640625,0.23486328125,-49.6875,36.5,-22.875,9.08,3.66,-0.5,stop,3
8.6,1848044.019653375,23,3,3,0,0,8.98,3.51,-0.4,-0.09,-0.13,0.13,29.9375,-7.1875,5.3125,0.64556884765625,0.48602294921875,-0.53961181640625,0.236328125,-49.6875,36.5,-22.875,9.08,3.65,-0.53,stop,3
8.61,1848044.052389662,23,3,3,0,0,9.1,3.54,-0.71,0.02,-0.1,-0.15,26.375,-6.5625,4.1875,0.64404296875,0.4874267578125,-0.53961181640625,0.23748779296875,-49.6875,36.5,-22.875,9.08,3.64,-0.56,stop,3
8.62,1848044.052389662,23,3,3,0,0,9.18,3.55,-0.84,0.09,-0.07,-0.25,19.375,-3.1875,2.75,0.64300537109375,0.48846435546875,-0.53955078125,0.23846435546875,-49.6875,36.5,-22.875,9.08,3.63,-0.58,stop,3
8.63,1848044.06798504,23,3,3,0,0,9.19,3.68,-0.81,0.1,0.04,-0.22,13.0625,2.1875,1.0625,0.64251708984375,0.48907470703125,-0.5391845703125,0.23919677734375,-48.5625,36.5,-25.1875,9.08,3.63,-0.58,stop,3
8.64,1848044.06798504,23,3,3,0,0,9.18,3.75,-0.72,0.09,0.12,-0.14,7.4375,9.0,-0.5625,0.64263916015625,0.48931884765625,-0.53851318359375,0.23992919921875,-48.5625,36.5,-25.1875,9.09,3.63,-0.57,stop,3
8.65,1848044.077111423,23,3,3,0,0,9.23,3.79,-0.59,0.14,0.16,-0.03,3.4375,12.8125,-1.9375,0.64312744140625,0.4893798828125,-0.53765869140625,0.24053955078125,-48.5625,36.5,-25.1875,9.09,3.63,-0.55,stop,3
8.66,1848044.077111423,23,3,3,0,0,9.38,3.84,-0.48,0.29,0.2,0.05,1.3125,12.25,-2.25,0.6436767578125,0.4892578125,-0.536865234375,0.240966796875,-48.5625,36.5,-25.1875,9.09,3.63,-0.54,stop,3
8.67,1848044.118221653,23,3,3,0,0,9.61,3.86,-0.38,0.52,0.22,0.13,2.3125,10.5,-2.5625,0.64410400390625,0.48931884765625,-0.53607177734375,0.24139404296875,-48.5625,36.5,-25.1875,9.08,3.64,-0.52,stop,3
8.68,1848044.118221653,23,3,3,0,0,9.57,3.89,-0.41,0.48,0.24,0.1,6.125,8.4375,-3.125,0.64434814453125,0.4896240234375,-0.53533935546875,0.24188232421875,-49.0,35.75,-24.75,9.08,3.64,-0.51,stop,3
8.69,1848044.128759454,23,3,3,0,0,9.47,3.89,-0.43,0.39,0.23,0.07,11.1875,6.8125,-4.125,0.64422607421875,0.49029541015625,-0.5345458984375,0.242431640625,-49.0,35.75,-24.75,9.08,3.65,-0.51,stop,3
8.7,1848044.128759454,23,3,3,0,0,9.24,3.89,-0.67,0.15,0.23,-0.16,15.5625,5.75,-5.25,0.6439208984375,0.4913330078125,-0.53369140625,0.2431640625,-49.0,35.75,-24.75,9.08,3.66,-0.51,stop,3
8.71,1848044.152955133,23,3,3,0,0,9.13,3.87,-0.62,0.05,0.2,-0.1,18.5625,5.25,-6.375,0.6435546875,0.4925537109375,-0.53271484375,0.243896484375,-49.0,35.75,-24.75,9.07,3.66,-0.51,stop,3
8.72,1848044.152955133,23,3,3,0,0,9.07,3.85,-0.63,0.0,0.18,-0.1,17.3125,4.9375,-6.875,0.64312744140625,0.49371337890625,-0.53179931640625,0.2445068359375,-49.0,35.75,-24.75,9.07,3.67,-0.52,stop,3
8.74,1848044.173250177,23,3,3,0,0,8.83,3.95,-0.42,-0.23,0.25,0.07,9.0625,11.75,-7.1875,0.64337158203125,0.49517822265625,-0.52972412109375,0.2454833984375,-49.25,36.5,-26.0,9.06,3.69,-0.5,stop,3
8.75,1848044.173250177,23,3,3,0,0,8.77,3.86,-0.53,-0.29,0.15,-0.04,5.0625,16.4375,-7.1875,0.64404296875,0.49542236328125,-0.52838134765625,0.24603271484375,-49.25,36.5,-26.0,9.06,3.7,-0.48,stop,3
8.76,1848044.202600234,23,3,3,0,0,8.67,3.71,-0.57,-0.38,0.0,-0.11,2.5,14.5,-7.125,0.64471435546875,0.49560546875,-0.5272216796875,0.24639892578125,-49.25,36.5,-26.0,9.06,3.71,-0.46,stop,3
8.77,1848044.202600234,23,3,3,0,0,8.61,3.73,-0.73,-0.44,0.0,-0.28,3.5,11.1875,-6.3125,0.645263671875,0.495849609375,-0.5262451171875,0.2467041015625,-49.25,36.5,-26.0,9.05,3.72,-0.44,stop,3
8.78,1848044.215311537,23,3,3,0,0,8.8,3.82,-0.67,-0.25,0.08,-0.23,6.375,3.25,-4.6875,0.64520263671875,0.496337890625,-0.5257568359375,0.246826171875,-48.5625,34.6875,-27.0625,9.05,3.73,-0.44,stop,3
8.79,1848044.215311537,23,3,3,0,0,8.86,3.78,-0.75,-0.18,0.04,-0.29,7.6875,-5.3125,-2.8125,0.64471435546875,0.4970703125,-0.5257568359375,0.246826171875,-48.5625,34.6875,-27.0625,9.05,3.73,-0.46,stop,3
8.8,1848044.231110447,23,3,3,0,0,8.96,3.79,-0.8,-0.03,-0.04,-0.04,5.875,-9.5625,-1.375,0.63592529296875,0.50726318359375,-0.53033447265625,0.2388916015625,-48.5625,34.6875,-27.0625,8.99,3.84,-0.75,stop,3
8.81,1848044.231110447,23,3,3,0,0,9.02,3.84,-0.77,0.03,0.0,0.0,3.9375,-10.8125,-0.5,0.63525390625,0.5076904296875,-0.53082275390625,0.23858642578125,-48.5625,34.6875,-27.0625,8.98,3.84,-0.77,stop,3
8.82,1848044.257845066,23,3,3,0,0,9.1,4.01,-0.75,0.12,0.17,0.03,2.5,-11.0625,0.0,0.63458251953125,0.508056640625,-0.53143310546875,0.23822021484375,-48.5625,34.6875,-27.0625,8.98,3.84,-0.79,stop,3
8.83,1848044.257845066,23,3,3,0,0,9.16,4.06,-0.66,0.17,0.22,0.14,0.4375,-12.5625,0.4375,0.634033203125,0.50830078125,-0.5321044921875,0.2376708984375,-48.5625,34.25,-27.5,8.98,3.84,-0.81,stop,3
8.84,1848044.276152927,23,3,3,0,0,9.18,4.1,-0.56,0.2,0.26,0.27,-1.4375,-13.125,0.5,0.63348388671875,0.508544921875,-0.53289794921875,0.23699951171875,-48.5625,34.25,-27.5,8.98,3.84,-0.83,stop,3
8.85,1848044.276152927,23,3,3,0,0,9.1,4.13,-0.39,0.12,0.29,0.45,-3.4375,-10.1875,-0.125,0.63311767578125,0.508544921875,-0.53350830078125,0.23638916015625,-48.5625,34.25,-27.5,8.98,3.84,-0.84,stop,3
8.86,1848044.292009576,23,3,3,0,0,8.99,4.14,-0.35,0.01,0.29,0.49,-5.625,-4.25,-1.625,0.63323974609375,0.50836181640625,-0.5338134765625,0.23583984375,-48.5625,34.25,-27.5,8.98,3.84,-0.85,stop,3
8.87,1848044.292009576,23,3,3,0,0,8.94,4.05,-0.42,-0.03,0.19,0.42,-7.5625,0.1875,-3.25,0.63360595703125,0.50811767578125,-0.5338134765625,0.2353515625,-48.5625,34.25,-27.5,8.97,3.85,-0.84,stop,3
8.88,1848044.322972467,23,3,3,0,0,8.9,3.98,-0.43,-0.07,0.12,0.4,-7.8125,1.8125,-4.4375,0.6341552734375,0.50787353515625,-0.53369140625,0.23480224609375,-49.25,34.25,-26.25,8.97,3.85,-0.83,stop,3
8.89,1848044.322972467,23,3,3,0,0,8.88,3.94,-0.56,-0.08,0.07,0.26,-6.6875,0.6875,-4.9375,0.63458251953125,0.5076904296875,-0.5335693359375,0.2342529296875,-49.25,34.25,-26.25,8.97,3.86,-0.83,stop,3
8.9,1848044.336227553,23,3,3,0,0,8.88,3.92,-0.6,-0.08,0.04,0.22,-5.5625,-1.25,-5.0625,0.635009765625,0.50762939453125,-0.53338623046875,0.233642578125,-49.25,34.25,-26.25,8.96,3.87,-0.82,stop,3
8.91,1848044.336227553,23,3,3,0,0,8.88,3.87,-0.63,-0.07,0.0,0.19,-5.3125,-2.25,-4.75,0.63531494140625,0.507568359375,-0.53338623046875,0.2330322265625,-49.25,34.25,-26.25,8.96,3.88,-0.82,stop,3
8.92,1848044.346964207,23,3,3,0,0,8.9,3.85,-0.63,-0.05,-0.04,0.19,-4.9375,-2.125,-4.625,0.63555908203125,0.50750732421875,-0.5333251953125,0.23248291015625,-49.25,34.25,-26.25,8.96,3.89,-0.82,stop,3
8.93,1848044.346964207,23,3,3,0,0,8.92,3.93,-0.62,-0.03,0.03,0.19,-3.8125,-1.0,-4.8125,0.6358642578125,0.50750732421875,-0.533203125,0.23199462890625,-49.0,34.6875,-25.5625,8.95,3.9,-0.82,stop,3
8.94,1848044.382127618,23,3,3,0,0,8.88,3.95,-0.66,-0.07,0.03,0.15,-2.25,1.5,-5.25,0.63616943359375,0.507568359375,-0.53289794921875,0.231689453125,-49.0,34.6875,-25.5625,8.95,3.91,-0.81,stop,3
8.95,1848044.382127618,23,3,3,0,0,8.92,3.92,-0.74,-0.02,0.0,0.06,-1.6875,2.1875,-5.625,0.636474609375,0.5076904296875,-0.53253173828125,0.23138427734375,-49.0,34.6875,-25.5625,8.95,3.92,-0.81,stop,3
8.96,1848044.398968154,23,3,3,0,0,8.97,3.95,-0.67,0.03,0.03,0.13,-0.8125,0.4375,-5.1875,0.63665771484375,0.50787353515625,-0.5323486328125,0.2310791015625,-49.0,34.6875,-25.5625,8.94,3.92,-0.81,stop,3
8.97,1848044.398968154,23,3,3,0,0,9.09,4.05,-0.45,0.14,0.11,0.35,-0.6875,-1.125,-4.75,0.63677978515625,0.508056640625,-0.53216552734375,0.230712890625,-49.0,34.6875,-25.5625,8.94,3.93,-0.8,stop,3
8.98,1848044.413939711,23,3,3,0,0,9.07,4.01,-0.45,0.13,0.07,0.34,-2.0,-0.25,-4.5,0.6370849609375,0.508056640625,-0.53192138671875,0.23040771484375,-48.5625,35.0,-25.5625,8.94,3.94,-0.8,stop,3
8.99,1848044.413939711,23,3,3,0,0,9.05,3.97,-0.54,0.11,0.02,0.25,-3.5625,1.1875,-4.6875,0.637451171875,0.50799560546875,-0.5316162109375,0.2301025390625,-48.5625,35.0,-25.5625,8.93,3.95,-0.79,stop,3
9.0,1848044.438941868,23,3,3,0,0,9.02,3.96,-0.69,0.09,0.0,0.09,-2.25,1.125,-4.5625,0.63775634765625,0.50799560546875,-0.5313720703125,0.22979736328125,-48.5625,35.0,-25.5625,8.93,3.95,-0.79,stop,3
9.01,1848044.438941868,23,3,3,0,0,9.02,3.98,-0.54,0.09,0.01,0.24,2.4375,-0.625,-4.375,0.63775634765625,0.50836181640625,-0.5311279296875,0.22967529296875,-48.5625,35.0,-25.5625,8.93,3.96,-0.79,stop,3
9.02,1848044.456707534,23,3,3,0,0,9.07,4.11,-0.29,0.14,0.14,0.5,8.0625,-2.75,-4.125,0.63751220703125,0.5089111328125,-0.53082275390625,0.229736328125,-48.5625,35.0,-25.5625,8.93,3.97,-0.8,stop,3
9.03,1848044.456707534,23,3,3,0,0,9.01,4.11,-0.31,0.09,0.13,0.48,6.75,-2.125,-3.8125,0.63739013671875,0.5093994140625,-0.53045654296875,0.22979736328125,-49.0,34.6875,-25.1875,8.92,3.97,-0.8,stop,3
9.04,1848044.470878595,23,3,3,0,0,8.89,3.83,-0.64,-0.03,-0.15,0.15,0.6875,2.625,-3.5625,0.6376953125,0.50946044921875,-0.53009033203125,0.22979736328125,-49.0,34.6875,-25.1875,8.92,3.98,-0.79,stop,3
9.05,1848044.470878595,23,3,3,0,0,8.99,3.9,-0.62,0.06,-0.08,0.15,-1.375,5.875,-3.375,0.63812255859375,0.5093994140625,-0.52960205078125,0.2298583984375,-49.0,34.6875,-25.1875,8.92,3.98,-0.78,stop,3
9.06,1848044.498846083,23,3,3,0,0,9.01,4.03,-0.45,0.09,0.04,0.32,1.1875,3.8125,-2.3125,0.63836669921875,0.5093994140625,-0.52923583984375,0.22998046875,-49.0,34.6875,-25.1875,8.92,3.99,-0.77,stop,3
9.07,1848044.498846083,23,3,3,0,0,8.99,4.07,-0.44,0.07,0.08,0.32,2.6875,-0.1875,-0.9375,0.63836669921875,0.509521484375,-0.529052734375,0.2301025390625,-49.0,34.6875,-25.1875,8.92,3.99,-0.77,stop,3
9.08,1848044.517535537,23,3,3,0,0,8.98,4.03,-0.6,0.06,0.04,0.17,2.6875,-2.375,-0.0625,0.63824462890625,0.50970458984375,-0.529052734375,0.23016357421875,-49.25,35.0,-25.5625,8.92,3.99,-0.77,stop,3
9.09,1848044.517535537,23,3,3,0,0,8.98,4.06,-0.61,0.06,0.06,0.16,4.0625,-3.5,0.0,0.637939453125,0.50994873046875,-0.52911376953125,0.23016357421875,-49.25,35.0,-25.5625,8.92,3.99,-0.78,stop,3
9.1,1848044.532441298,23,3,3,0,0,9.0,4.14,-0.58,0.08,0.15,0.2,6.25,-3.4375,-0.25,0.6375732421875,0.51031494140625,-0.5291748046875,0.2303466796875,-49.25,35.0,-25.5625,8.92,3.99,-0.79,stop,3
9.11,1848044.532441298,23,3,3,0,0,9.01,4.13,-0.61,0.09,0.14,0.18,6.4375,-2.625,-0.125,0.63726806640625,0.5107421875,-0.52911376953125,0.23052978515625,-49.25,35.0,-25.5625,8.92,3.99,-0.79,stop,3
9.12,1848044.56381874,23,3,3,0,0,9.08,4.01,-0.68,0.16,0.02,0.11,4.25,-3.0625,0.4375,0.636962890625,0.510986328125,-0.5291748046875,0.2305908203125,-49.25,35.0,-25.5625,8.92,3.99,-0.8,stop,3
9.13,1848044.56381874,23,3,3,0,0,9.07,3.97,-0.69,0.14,-0.01,0.11,2.4375,-4.625,1.4375,0.63665771484375,0.5111083984375,-0.5294189453125,0.2305908203125,-49.25,34.6875,-26.75,8.92,3.98,-0.81,stop,3
9.14,1848044.577265151,23,3,3,0,0,9.0,3.99,-0.68,0.08,0.01,0.13,2.4375,-6.25,1.875,0.63623046875,0.51129150390625,-0.52978515625,0.23052978515625,-49.25,34.6875,-26.75,8.92,3.98,-0.82,stop,3
9.15,1848044.577265151,23,3,3,0,0,8.93,4.1,-0.7,0.01,0.12,0.12,2.9375,-6.8125,1.875,0.6357421875,0.511474609375,-0.5301513671875,0.23046875,-49.25,34.6875,-26.75,8.92,3.98,-0.83,stop,3
9.16,1848044.58798854,23,3,3,0,0,8.93,4.1,-0.68,0.0,0.12,0.16,2.8125,-7.0625,2.125,0.63531494140625,0.51165771484375,-0.530517578125,0.23040771484375,-49.25,34.6875,-26.75,8.92,3.97,-0.84,stop,3
9.17,1848044.58798854,23,3,3,0,0,8.94,4.07,-0.68,0.01,0.1,0.17,1.9375,-6.1875,2.125,0.63494873046875,0.51177978515625,-0.5308837890625,0.2303466796875,-49.25,34.6875,-26.75,8.92,3.97,-0.85,stop,3
9.18,1848044.623231175,23,3,3,0,0,8.95,4.05,-0.68,0.02,0.08,0.18,0.9375,-4.8125,2.0,0.63470458984375,0.5118408203125,-0.53118896484375,0.23028564453125,-49.0,34.25,-25.5625,8.92,3.97,-0.86,stop,3
9.19,1848044.623231175,23,3,3,0,0,8.93,4.0,-0.62,0.0,0.03,0.24,0.0,-3.375,1.875,0.63458251953125,0.51177978515625,-0.53143310546875,0.230224609375,-49.0,34.25,-25.5625,8.92,3.96,-0.86,stop,3
9.2,1848044.636523981,23,3,3,0,0,8.93,3.97,-0.59,0.0,0.0,0.27,-0.8125,-2.25,1.5625,0.63458251953125,0.51165771484375,-0.53155517578125,0.230224609375,-49.0,34.25,-25.5625,8.92,3.96,-0.86,stop,3
9.21,1848044.636523981,23,3,3,0,0,8.93,3.95,-0.59,0.0,-0.01,0.27,-1.875,-1.0625,1.3125,0.6346435546875,0.511474609375,-0.53167724609375,0.23016357421875,-49.0,34.25,-25.5625,8.92,3.96,-0.86,stop,3
9.22,1848044.661780735,23,3,3,0,0,8.97,3.91,-0.6,0.04,-0.05,0.26,-2.625,-0.1875,1.125,0.63482666015625,0.51116943359375,-0.53173828125,0.23016357421875,-49.0,34.25,-25.5625,8.92,3.96,-0.86,stop,3
9.23,1848044.661780735,23,3,3,0,0,9.04,3.93,-0.67,0.11,-0.02,0.18,-2.25,-0.3125,1.125,0.63494873046875,0.510986328125,-0.53179931640625,0.23016357421875,-49.6875,34.6875,-24.5,8.92,3.96,-0.86,stop,3
9.24,1848044.676386041,23,3,3,0,0,9.06,3.91,-0.73,0.13,-0.04,0.12,-0.625,-0.9375,1.125,0.63494873046875,0.5108642578125,-0.5318603515625,0.23016357421875,-49.6875,34.6875,-24.5,8.92,3.96,-0.86,stop,3
9.25,1848044.676386041,23,3,3,0,0,9.05,3.92,-0.75,0.12,-0.03,0.11,1.4375,-0.875,0.875,0.63482666015625,0.5108642578125,-0.53192138671875,0.23028564453125,-49.6875,34.6875,-24.5,8.93,3.95,-0.86,stop,3
9.26,1848044.712166152,23,3,3,0,0,9.03,4.01,-0.63,0.1,0.05,0.23,3.625,0.0,0.0,0.63470458984375,0.51104736328125,-0.53179931640625,0.23046875,-49.6875,34.6875,-24.5,8.93,3.95,-0.86,stop,3
9.27,1848044.712166152,23,3,3,0,0,8.97,3.93,-0.62,0.04,-0.02,0.23,2.5625,1.1875,-0.3125,0.63470458984375,0.5111083984375,-0.53167724609375,0.23065185546875,-49.6875,34.6875,-24.5,8.93,3.95,-0.86,stop,3
9.28,1848044.720778497,23,3,3,0,0,8.92,3.8,-0.68,0.0,-0.15,0.17,-0.3125,2.5625,-0.4375,0.6348876953125,0.51104736328125,-0.531494140625,0.23077392578125,-49.0,33.5625,-24.75,8.93,3.95,-0.85,stop,3
9.29,1848044.720778497,23,3,3,0,0,8.92,3.79,-0.71,0.0,-0.16,0.13,0.6875,2.9375,-0.6875,0.635009765625,0.510986328125,-0.53131103515625,0.23095703125,-49.0,33.5625,-24.75,8.93,3.95,-0.85,stop,3
9.3,1848044.743820001,23,3,3,0,0,8.94,3.86,-0.65,0.01,-0.08,0.19,5.0625,1.4375,-0.6875,0.6348876953125,0.51123046875,-0.53106689453125,0.23126220703125,-49.0,33.5625,-24.75,8.93,3.95,-0.85,stop,3
9.31,1848044.743820001,23,3,3,0,0,8.99,3.89,-0.6,0.06,-0.05,0.24,7.0625,-0.75,-0.5,0.63458251953125,0.5115966796875,-0.53094482421875,0.2315673828125,-49.0,33.5625,-24.75,8.93,3.95,-0.85,stop,3
9.32,1848044.754380629,23,3,3,0,0,8.99,3.93,-0.63,0.06,-0.02,0.22,6.5,-0.875,-0.25,0.63433837890625,0.511962890625,-0.53082275390625,0.23187255859375,-49.0,33.5625,-24.75,8.93,3.95,-0.86,stop,3
9.33,1848044.754380629,23,3,3,0,0,8.98,3.93,-0.63,0.05,-0.01,0.22,6.75,-0.1875,-0.6875,0.63409423828125,0.5123291015625,-0.5306396484375,0.232177734375,-49.0,34.6875,-26.0,8.93,3.95,-0.86,stop,3
9.34,1848044.770425267,23,3,3,0,0,8.99,3.99,-0.67,0.06,0.03,0.18,7.1875,0.5,-1.0625,0.63385009765625,0.5126953125,-0.5303955078125,0.23248291015625,-49.0,34.6875,-26.0,8.93,3.95,-0.86,stop,3
9.35,1848044.770425267,23,3,3,0,0,9.02,4.0,-0.66,0.09,0.04,0.19,6.25,0.8125,-1.3125,0.6336669921875,0.5130615234375,-0.5301513671875,0.2327880859375,-49.0,34.6875,-26.0,8.93,3.95,-0.86,stop,3
9.36,1848044.802021743,23,3,3,0,0,9.05,3.98,-0.65,0.12,0.03,0.21,4.0625,1.4375,-1.25,0.6336669921875,0.5133056640625,-0.52984619140625,0.23297119140625,-49.0,34.6875,-26.0,8.93,3.95,-0.86,stop,3
9.37,1848044.802021743,23,3,3,0,0,9.05,3.98,-0.63,0.12,0.02,0.23,2.1875,2.125,-0.9375,0.63372802734375,0.51336669921875,-0.52960205078125,0.233154296875,-49.0,34.6875,-26.0,8.93,3.95,-0.86,stop,3
9.38,1848044.816070123,23,3,3,0,0,9.07,3.95,-0.61,0.14,0.0,0.24,1.5,2.625,-0.875,0.63385009765625,0.51336669921875,-0.52935791015625,0.23333740234375,-49.25,33.875,-25.5625,8.93,3.95,-0.85,stop,3
9.39,1848044.816070123,23,3,3,0,0,9.06,3.97,-0.62,0.13,0.01,0.22,1.5,2.625,-0.875,0.63397216796875,0.51336669921875,-0.52911376953125,0.2335205078125,-49.25,33.875,-25.5625,8.93,3.96,-0.85,stop,3
9.4,1848044.843916681,23,3,3,0,0,9.06,3.97,-0.62,0.13,0.01,0.22,1.9375,2.5,-1.125,0.63409423828125,0.513427734375,-0.52886962890625,0.23370361328125,-49.25,33.875,-25.5625,8.93,3.96,-0.84,stop,3
9.41,1848044.843916681,23,3,3,0,0,9.05,3.96,-0.63,0.12,0.0,0.21,2.875,2.1875,-1.3125,0.6341552734375,0.51361083984375,-0.528564453125,0.23388671875,-49.25,33.875,-25.5625,8.93,3.96,-0.84,stop,3
9.42,1848044.862719008,23,3,3,0,0,9.01,3.9,-0.63,0.08,-0.05,0.21,3.875,0.8125,-1.0,0.63409423828125,0.5137939453125,-0.52838134765625,0.23406982421875,-49.25,33.875,-25.5625,8.92,3.96,-0.84,stop,3
9.43,1848044.862719008,23,3,3,0,0,9.0,3.89,-0.64,0.07,-0.06,0.2,5.25,-0.125,-0.9375,0.6339111328125,0.5140380859375,-0.5281982421875,0.23431396484375,-49.0,33.5625,-25.5625,8.92,3.96,-0.84,stop,3
9.44,1848044.877065932,23,3,3,0,0,8.99,3.9,-0.62,0.06,-0.05,0.22,5.25,-0.125,-0.9375,0.63372802734375,0.51434326171875,-0.52801513671875,0.2344970703125,-49.0,33.5625,-25.5625,8.92,3.96,-0.85,stop,3
9.45,1848044.877065932,23,3,3,0,0,8.99,3.9,-0.64,0.06,-0.05,0.2,5.125,-0.5,-0.6875,0.63360595703125,0.51458740234375,-0.52783203125,0.2347412109375,-49.0,33.5625,-25.5625,8.92,3.96,-0.85,stop,3
9.46,1848044.905326552,23,3,3,0,0,8.99,3.94,-0.64,0.06,-0.02,0.2,4.0625,-0.9375,-0.125,0.6334228515625,0.51483154296875,-0.52777099609375,0.23492431640625,-49.0,33.5625,-25.5625,8.92,3.96,-0.85,stop,3
9.47,1848044.905326552,23,3,3,0,0,8.98,3.97,-0.63,0.05,0.01,0.21,2.4375,-0.125,0.0,0.63336181640625,0.514892578125,-0.5277099609375,0.235107421875,-49.0,33.5625,-25.5625,8.92,3.96,-0.85,stop,3
9.48,1848044.925865249,23,3,3,0,0,9.02,4.02,-0.65,0.09,0.06,0.19,2.1875,0.6875,-0.5,0.63336181640625,0.51495361328125,-0.527587890625,0.2352294921875,-49.0,33.5625,-25.1875,8.92,3.96,-0.85,stop,3
9.49,1848044.925865249,23,3,3,0,0,9.03,4.03,-0.64,0.1,0.06,0.21,1.75,1.1875,-0.8125,0.6334228515625,0.5150146484375,-0.52740478515625,0.2353515625,-49.0,33.5625,-25.1875,8.92,3.96,-0.85,stop,3
9.5,1848044.933959406,23,3,3,0,0,9.06,4.02,-0.59,0.13,0.06,0.25,0.6875,1.75,-1.0625,0.633544921875,0.5150146484375,-0.52716064453125,0.23541259765625,-49.0,33.5625,-25.1875,8.92,3.96,-0.84,stop,3
9.51,1848044.933959406,23,3,3,0,0,9.07,4.08,-0.46,0.14,0.12,0.37,-1.4375,2.0625,-1.3125,0.63385009765625,0.514892578125,-0.5269775390625,0.23541259765625,-49.0,33.5625,-25.1875,8.92,3.96,-0.83,stop,3
9.52,1848044.962760757,23,3,3,0,0,9.08,4.12,-0.46,0.15,0.15,0.35,-4.25,3.0625,-1.625,0.63433837890625,0.51458740234375,-0.52667236328125,0.23529052734375,-49.0,33.5625,-25.1875,8.92,3.97,-0.82,stop,3
9.53,1848044.962760757,23,3,3,0,0,9.08,4.04,-0.56,0.16,0.07,0.25,-5.6875,3.625,-1.9375,0.63494873046875,0.51422119140625,-0.52642822265625,0.235107421875,-49.0,33.875,-26.0,8.92,3.97,-0.81,stop,3
9.54,1848044.981895481,23,3,3,0,0,9.05,3.99,-0.68,0.12,0.01,0.12,-4.0625,3.8125,-2.6875,0.63543701171875,0.51397705078125,-0.526123046875,0.2349853515625,-49.0,33.875,-26.0,8.92,3.98,-0.8,stop,3
9.55,1848044.981895481,23,3,3,0,0,9.04,3.86,-0.72,0.11,-0.11,0.07,2.25,2.75,-3.5625,0.63555908203125,0.51422119140625,-0.5257568359375,0.23504638671875,-49.0,33.875,-26.0,8.92,3.98,-0.8,stop,3
9.56,1848044.993113743,23,3,3,0,0,9.06,3.92,-0.51,0.14,-0.06,0.28,5.9375,1.8125,-4.125,0.635498046875,0.5146484375,-0.52532958984375,0.2352294921875,-49.0,33.875,-26.0,8.92,3.99,-0.8,stop,3
9.57,1848044.993113743,23,3,3,0,0,9.05,4.06,-0.29,0.13,0.07,0.49,0.9375,2.3125,-3.625,0.6357421875,0.51470947265625,-0.52496337890625,0.2352294921875,-49.0,33.875,-26.0,8.92,3.99,-0.79,stop,3
9.58,1848045.028831354,23,3,3,0,0,8.95,3.89,-0.49,0.03,-0.1,0.28,-5.3125,4.0625,-2.625,0.6363525390625,0.51434326171875,-0.524658203125,0.235107421875,-49.25,33.5625,-25.5625,8.91,4.0,-0.78,stop,3
9.59,1848045.028831354,23,3,3,0,0,8.89,3.72,-0.87,-0.02,-0.28,-0.1,-3.9375,3.3125,-2.125,0.63671875,0.51409912109375,-0.5244140625,0.2349853515625,-49.25,33.5625,-25.5625,8.91,4.0,-0.77,stop,3
9.6,1848045.036402114,23,3,3,0,0,8.89,3.72,-0.87,-0.02,-0.28,-0.1,-3.9375,3.3125,-2.125,0.63671875,0.51409912109375,-0.5244140625,0.2349853515625,-49.25,33.5625,-25.5625,8.91,4.0,-0.77,stop,3
9.6,1848045.036402114,23,3,3,0,0,8.96,3.73,-1.01,0.04,-0.26,-0.23,1.9375,-0.8125,-1.4375,0.6365966796875,0.5142822265625,-0.5244140625,0.2349853515625,-49.25,33.5625,-25.5625,8.91,4.0,-0.77,stop,3
9.61,1848045.05709352,23,3,3,0,0,9.12,4.33,-0.5,0.2,0.33,0.27,0.8125,-1.375,-0.6875,0.63653564453125,0.51434326171875,-0.5244140625,0.23492431640625,-49.25,33.5625,-25.5625,8.91,4.0,-0.77,stop,3
9.62,1848045.05709352,23,3,3,0,0,9.09,4.19,-0.56,0.18,0.18,0.2,-4.25,1.25,-0.8125,0.6368408203125,0.51409912109375,-0.5244140625,0.2347412109375,-49.25,33.5625,-25.5625,8.91,4.0,-0.77,stop,3
9.63,1848045.066611953,23,3,3,0,0,9.08,4.01,-0.67,0.16,0.0,0.08,-2.625,1.9375,-1.875,0.63714599609375,0.5140380859375,-0.52423095703125,0.234619140625,-49.25,33.5625,-26.75,8.91,4.01,-0.76,stop,3
9.64,1848045.066611953,23,3,3,0,0,9.09,4.19,-0.45,0.18,0.17,0.3,1.75,1.9375,-3.5,0.63720703125,0.51422119140625,-0.52392578125,0.234619140625,-49.25,33.5625,-26.75,8.91,4.01,-0.76,stop,3
9.65,1848045.082122329,23,3,3,0,0,9.07,4.13,-0.43,0.15,0.11,0.32,1.1875,2.5625,-4.3125,0.63739013671875,0.514404296875,-0.5235595703125,0.23455810546875,-49.25,33.5625,-26.75,8.91,4.02,-0.76,stop,3
9.66,1848045.082122329,23,3,3,0,0,9.05,4.04,-0.43,0.14,0.01,0.31,-0.75,3.5,-4.5625,0.63763427734375,0.5145263671875,-0.523193359375,0.23443603515625,-49.25,33.5625,-26.75,8.9,4.02,-0.75,stop,3
9.67,1848045.118320083,23,3,3,0,0,9.02,3.98,-0.46,0.11,-0.05,0.27,-0.75,3.8125,-4.6875,0.6380615234375,0.5145263671875,-0.522705078125,0.234375,-49.25,33.5625,-26.75,8.9,4.03,-0.74,stop,3
9.68,1848045.118320083,23,3,3,0,0,8.99,3.91,-0.52,0.09,-0.13,0.21,1.0625,3.8125,-5.125,0.63836669921875,0.51470947265625,-0.522216796875,0.23431396484375,-49.6875,33.875,-25.5625,8.9,4.04,-0.73,stop,3
9.69,1848045.130584731,23,3,3,0,0,8.9,3.93,-0.6,0.0,-0.11,0.13,3.5,3.625,-5.0625,0.63848876953125,0.5150146484375,-0.52166748046875,0.23443603515625,-49.6875,33.875,-25.5625,8.9,4.05,-0.73,stop,3
9.7,1848045.130584731,23,3,3,0,0,8.86,3.98,-0.65,-0.03,-0.07,0.07,4.75,2.125,-4.25,0.63848876953125,0.515380859375,-0.52130126953125,0.2344970703125,-49.6875,33.875,-25.5625,8.89,4.05,-0.73,stop,3
9.71,1848045.142221247,23,3,3,0,0,8.88,4.04,-0.67,0.0,-0.01,0.06,4.9375,0.0,-3.3125,0.63836669921875,0.51580810546875,-0.52099609375,0.23455810546875,-49.6875,33.875,-25.5625,8.89,4.06,-0.73,stop,3
9.72,1848045.142221247,23,3,3,0,0,8.88,4.0,-0.7,0.0,-0.06,0.03,4.3125,0.1875,-2.375,0.63818359375,0.51611328125,-0.52081298828125,0.23468017578125,-49.6875,33.875,-25.5625,8.89,4.06,-0.73,stop,3
9.73,1848045.178265477,23,3,3,0,0,8.91,3.99,-0.67,0.01,-0.06,0.06,3.5625,1.4375,-1.875,0.63818359375,0.516357421875,-0.52056884765625,0.23480224609375,-49.25,33.5625,-27.0625,8.89,4.06,-0.73,stop,3
9.74,1848045.178265477,23,3,3,0,0,8.88,4.01,-0.64,0.0,-0.05,0.09,3.4375,3.1875,-1.5625,0.63818359375,0.51654052734375,-0.520263671875,0.2349853515625,-49.25,33.5625,-27.0625,8.89,4.06,-0.73,stop,3
9.75,1848045.193704238,23,3,3,0,0,8.85,4.0,-0.63,-0.03,-0.06,0.09,3.625,3.3125,-1.0625,0.63824462890625,0.5167236328125,-0.5198974609375,0.23529052734375,-49.25,33.5625,-27.0625,8.89,4.06,-0.73,stop,3
9.76,1848045.193704238,23,3,3,0,0,8.88,4.13,-0.59,0.0,0.06,0.13,3.625,1.875,-0.0625,0.63818359375,0.516845703125,-0.51971435546875,0.23553466796875,-49.25,33.5625,-27.0625,8.89,4.06,-0.73,stop,3
9.77,1848045.208676528,23,3,3,0,0,8.91,4.19,-0.59,0.02,0.13,0.14,3.8125,0.0,0.9375,0.63800048828125,0.51702880859375,-0.5196533203125,0.23577880859375,-49.25,33.5625,-27.0625,8.89,4.06,-0.73,stop,3
9.78,1848045.208676528,23,3,3,0,0,8.9,4.23,-0.6,0.01,0.17,0.12,3.8125,-0.375,1.3125,0.6378173828125,0.51715087890625,-0.51959228515625,0.23602294921875,-50.0625,32.5,-27.0625,8.89,4.06,-0.73,stop,3
9.79,1848045.220029637,23,3,3,0,0,8.9,4.23,-0.61,0.01,0.17,0.12,3.5,1.0,1.375,0.63775634765625,0.51727294921875,-0.51953125,0.23626708984375,-50.0625,32.5,-27.0625,8.89,4.06,-0.73,stop,3
9.8,1848045.220029637,23,3,3,0,0,8.85,4.18,-0.53,-0.03,0.12,0.19,4.25,2.1875,0.9375,0.6376953125,0.51739501953125,-0.519287109375,0.23663330078125,-50.0625,32.5,-27.0625,8.89,4.06,-0.73,stop,3
9.81,1848045.252550511,23,3,3,0,0,8.81,4.2,-0.52,-0.08,0.14,0.2,3.75,4.1875,0.6875,0.63775634765625,0.51751708984375,-0.5189208984375,0.23699951171875,-50.0625,32.5,-27.0625,8.89,4.06,-0.72,stop,3
9.82,1848045.252550511,23,3,3,0,0,8.69,4.15,-0.61,-0.2,0.09,0.1,4.75,3.6875,0.625,0.63775634765625,0.51763916015625,-0.51861572265625,0.2374267578125,-50.0625,32.5,-27.0625,8.89,4.06,-0.72,stop,3
9.83,1848045.267061009,23,3,3,0,0,8.67,4.23,-0.57,-0.22,0.17,0.15,6.625,0.125,1.5,0.637451171875,0.5179443359375,-0.51849365234375,0.23773193359375,-49.25,33.1875,-25.5625,8.89,4.05,-0.72,stop,3
9.84,1848045.267061009,23,3,3,0,0,8.73,4.29,-0.52,-0.16,0.24,0.2,5.9375,-2.25,2.75,0.63714599609375,0.51824951171875,-0.51849365234375,0.238037109375,-49.25,33.1875,-25.5625,8.89,4.05,-0.73,stop,3
9.85,1848045.276765965,23,3,3,0,0,8.78,4.31,-0.54,-0.11,0.26,0.19,3.5,-1.9375,3.6875,0.63690185546875,0.518310546875,-0.51861572265625,0.23822021484375,-49.25,33.1875,-25.5625,8.9,4.05,-0.73,stop,3
9.86,1848045.276765965,23,3,3,0,0,8.78,4.3,-0.61,-0.11,0.26,0.12,2.1875,0.25,3.625,0.6368408203125,0.518310546875,-0.51861572265625,0.23846435546875,-49.25,33.1875,-25.5625,8.9,4.04,-0.73,stop,3
9.87,1848045.313455174,23,3,3,0,0,8.79,4.34,-0.7,-0.11,0.3,0.02,2.0625,1.625,3.4375,0.63677978515625,0.51824951171875,-0.5185546875,0.23876953125,-49.25,33.1875,-25.5625,8.9,4.04,-0.73,stop,3
9.88,1848045.313455174,23,3,3,0,0,8.82,4.42,-0.69,-0.07,0.38,0.03,0.75,1.4375,3.3125,0.6368408203125,0.5181884765625,-0.51849365234375,0.23895263671875,-49.6875,33.1875,-26.375,8.9,4.04,-0.73,stop,3
9.89,1848045.322475316,23,3,3,0,0,8.89,4.46,-0.71,0.0,0.42,0.01,-1.75,1.9375,2.6875,0.63702392578125,0.51800537109375,-0.5184326171875,0.23895263671875,-49.6875,33.1875,-26.375,8.9,4.04,-0.72,stop,3
9.9,1848045.322475316,23,3,3,0,0,8.94,4.44,-0.72,0.03,0.39,0.0,-4.5625,2.875,1.9375,0.63739013671875,0.5177001953125,-0.518310546875,0.23883056640625,-49.6875,33.1875,-26.375,8.9,4.04,-0.71,stop,3
9.91,1848045.358091608,23,3,3,0,0,9.04,4.42,-0.61,0.14,0.38,0.08,-6.8125,5.5625,0.5,0.63800048828125,0.51727294921875,-0.51806640625,0.23870849609375,-49.6875,33.1875,-26.375,8.9,4.04,-0.7,stop,3
9.92,1848045.358091608,23,3,3,0,0,9.05,4.44,-0.55,0.14,0.39,0.12,-8.25,9.6875,-1.5,0.638916015625,0.5167236328125,-0.51751708984375,0.23858642578125,-49.6875,33.1875,-26.375,8.9,4.05,-0.68,stop,3
9.93,1848045.373024469,23,3,3,0,0,9.05,4.43,-0.56,0.14,0.37,0.08,-9.8125,13.125,-3.0625,0.64007568359375,0.51605224609375,-0.51678466796875,0.23846435546875,-50.0625,33.5625,-27.0625,8.9,4.06,-0.65,stop,3
9.94,1848045.373024469,23,3,3,0,0,9.06,4.39,-0.58,0.16,0.32,0.03,-11.0625,13.25,-3.875,0.64129638671875,0.515380859375,-0.51605224609375,0.23828125,-50.0625,33.5625,-27.0625,8.89,4.07,-0.62,stop,3
9.95,1848045.381238459,23,3,3,0,0,9.12,4.21,-0.5,0.22,0.13,0.09,-10.5,12.625,-4.5,0.6424560546875,0.5147705078125,-0.51531982421875,0.23809814453125,-50.0625,33.5625,-27.0625,8.89,4.07,-0.59,stop,3
9.96,1848045.381238459,23,3,3,0,0,9.08,4.18,-0.34,0.19,0.09,0.22,-8.5,12.6875,-5.1875,0.6435546875,0.51422119140625,-0.5145263671875,0.23797607421875,-50.0625,33.5625,-27.0625,8.89,4.08,-0.57,stop,3
9.97,1848045.416995295,23,3,3,0,0,9.0,4.14,-0.22,0.11,0.04,0.31,-6.4375,12.9375,-5.6875,0.64459228515625,0.5137939453125,-0.51361083984375,0.23797607421875,-50.0625,33.5625,-27.0625,8.89,4.09,-0.54,stop,3
9.98,1848045.416995295,23,3,3,0,0,8.97,4.07,-0.01,0.08,-0.03,0.5,-5.0,12.1875,-5.9375,0.6455078125,0.5135498046875,-0.51275634765625,0.23797607421875,-49.25,33.5625,-27.0625,8.88,4.1,-0.52,stop,3
9.99,1848045.42652097,23,3,3,0,0,8.93,4.01,0.0,0.05,-0.1,0.49,-3.375,10.6875,-5.5,0.646240234375,0.51336669921875,-0.51202392578125,0.23797607421875,-49.25,33.5625,-27.0625,8.88,4.11,-0.5,stop,3
10.0,1848045.42652097,23,3,3,0,0,8.97,3.98,-0.02,0.09,-0.14,0.46,-0.1875,8.3125,-5.125,0.646728515625,0.513427734375,-0.51129150390625,0.238037109375,-49.25,33.5625,-27.0625,8.88,4.12,-0.49,stop,3
10.01,1848045.44160939,23,3,3,0,0,9.02,3.99,-0.04,0.14,-0.13,0.43,4.5,6.6875,-4.75,0.64697265625,0.51373291015625,-0.5106201171875,0.23828125,-49.25,33.5625,-27.0625,8.88,4.13,-0.48,stop,3
10.02,1848045.44160939,23,3,3,0,0,9.08,4.01,-0.18,0.2,-0.12,0.29,8.875,6.625,-4.75,0.64697265625,0.51434326171875,-0.50982666015625,0.23870849609375,-49.25,33.5625,-27.0625,8.87,4.13,-0.47,stop,3
10.03,1848045.477970392,23,3,3,0,0,9.02,4.06,-0.27,0.14,-0.08,0.2,12.1875,6.625,-4.5625,0.64678955078125,0.51507568359375,-0.50897216796875,0.23931884765625,-49.0,33.875,-27.0625,8.87,4.14,-0.47,stop,3
10.04,1848045.477970392,23,3,3,0,0,8.97,4.1,-0.27,0.1,-0.04,0.19,13.6875,6.25,-3.875,0.6466064453125,0.51580810546875,-0.50811767578125,0.24005126953125,-49.0,33.875,-27.0625,8.87,4.14,-0.47,stop,3
10.05,1848045.491767227,23,3,3,0,0,8.88,4.18,-0.29,0.01,0.03,0.18,13.3125,5.1875,-2.875,0.6463623046875,0.51654052734375,-0.50738525390625,0.24072265625,-49.0,33.875,-27.0625,8.87,4.15,-0.47,stop,3
10.06,1848045.491767227,23,3,3,0,0,8.72,4.29,-0.24,-0.14,0.13,0.23,11.875,1.9375,-1.625,0.64599609375,0.5172119140625,-0.50689697265625,0.24127197265625,-49.0,33.875,-27.0625,8.87,4.15,-0.47,stop,3
10.07,1848045.50719846,23,3,3,0,0,8.73,4.39,-0.1,-0.13,0.23,0.37,9.4375,-0.8125,-0.5,0.64569091796875,0.5177001953125,-0.506591796875,0.24163818359375,-49.0,33.875,-27.0625,8.86,4.15,-0.48,stop,3
10.08,1848045.50719846,23,3,3,0,0,8.71,4.47,-0.02,-0.15,0.32,0.46,7.75,-0.0625,0.0,0.6453857421875,0.51812744140625,-0.50640869140625,0.24200439453125,-49.25,33.1875,-29.0625,8.86,4.15,-0.48,stop,3
10.09,1848045.532429946,23,3,3,0,0,8.58,4.5,-0.12,-0.28,0.34,0.37,10.4375,1.5,-0.4375,0.64495849609375,0.5186767578125,-0.506103515625,0.24249267578125,-49.25,33.1875,-29.0625,8.86,4.15,-0.49,stop,3
10.1,1848045.532429946,23,3,3,0,0,8.43,4.53,0.05,-0.43,0.38,0.56,18.1875,1.6875,-0.875,0.64422607421875,0.51971435546875,-0.505615234375,0.24334716796875,-49.25,33.1875,-29.0625,8.86,4.15,-0.5,stop,3
10.11,1848045.552761449,23,3,3,0,0,8.37,4.77,0.38,-0.49,0.61,0.89,22.0,5.0,-1.3125,0.64349365234375,0.52093505859375,-0.5047607421875,0.24444580078125,-49.25,33.1875,-29.0625,8.86,4.15,-0.51,stop,3
10.12,1848045.552761449,23,3,3,0,0,8.17,4.8,0.46,-0.69,0.65,0.97,18.8125,8.625,-0.8125,0.64306640625,0.52178955078125,-0.50384521484375,0.24560546875,-49.25,33.1875,-29.0625,8.86,4.15,-0.51,stop,3
10.13,1848045.565432184,23,3,3,0,0,7.59,4.52,-0.07,-1.27,0.37,0.44,14.625,4.875,1.9375,0.642578125,0.5224609375,-0.50335693359375,0.24658203125,-50.5,32.5,-29.0625,8.87,4.14,-0.51,stop,3
10.14,1848045.565432184,23,3,3,0,0,7.59,4.52,-0.07,-1.27,0.37,0.44,14.625,4.875,1.9375,0.642578125,0.5224609375,-0.50335693359375,0.24658203125,-50.5,32.5,-29.0625,8.87,4.14,-0.51,stop,3
10.14,1848045.580993911,23,3,3,0,0,7.61,4.51,-0.4,-1.26,0.37,0.13,13.625,-5.8125,8.0625,0.64154052734375,0.52294921875,-0.50372314453125,0.24737548828125,-50.5,32.5,-29.0625,8.87,4.13,-0.53,stop,3
10.15,1848045.580993911,23,3,3,0,0,8.05,4.63,-0.14,-0.83,0.53,0.42,12.5,-18.25,16.6875,0.6397705078125,0.5233154296875,-0.5052490234375,0.248046875,-50.5,32.5,-29.0625,8.88,4.1,-0.57,stop,3
10.16,1848045.595109023,23,3,3,0,0,8.6,4.81,0.53,-0.29,0.74,1.13,2.1875,-18.8125,23.8125,0.63836669921875,0.5228271484375,-0.50732421875,0.24859619140625,-50.5,32.5,-29.0625,8.9,4.07,-0.6,stop,3
10.17,1848045.595109023,23,3,3,0,0,8.88,4.53,2.24,-0.03,0.5,2.82,-16.0,5.625,25.25,0.6387939453125,0.52069091796875,-0.50848388671875,0.24957275390625,-50.5,32.5,-29.0625,8.91,4.03,-0.58,stop,3
10.18,1848045.622311945,23,3,3,0,0,8.82,3.87,2.29,-0.12,-0.12,2.78,-38.3125,43.75,27.125,0.64190673828125,0.516357421875,-0.50811767578125,0.2513427734375,-50.0625,32.5,-29.5,8.94,3.99,-0.48,stop,3
10.19,1848045.622311945,23,3,3,0,0,9.13,2.94,1.55,0.16,-0.99,1.9,-55.5,61.625,34.1875,0.6463623046875,0.5103759765625,-0.50738525390625,0.25360107421875,-50.0625,32.5,-29.5,8.97,3.94,-0.35,stop,3
10.2,1848045.64408819,23,3,3,0,0,10.1,1.94,0.36,1.1,-1.93,0.61,-53.6875,37.625,42.6875,0.64947509765625,0.50457763671875,-0.50830078125,0.25531005859375,-50.0625,32.5,-29.5,9.0,3.88,-0.25,stop,3
10.21,1848045.64408819,23,3,3,0,0,13.88,0.5,-2.34,4.84,-3.3,-2.05,-25.5625,-31.6875,48.9375,0.64813232421875,0.50164794921875,-0.5128173828125,0.25555419921875,-50.0625,32.5,-29.5,9.03,3.8,-0.28,stop,3
10.22,1848045.655791844,23,3,3,0,0,15.99,0.4,-3.25,6.93,-3.3,-2.74,24.4375,-131.5625,58.375,0.63983154296875,0.50335693359375,-0.522216796875,0.254150390625,-50.0625,32.5,-29.5,9.06,3.71,-0.51,stop,3
10.23,1848045.655791844,23,3,3,0,0,17.38,1.11,-3.87,8.31,-2.48,-2.96,77.4375,-223.125,65.25,0.6246337890625,0.509521484375,-0.53570556640625,0.25146484375,-49.0,33.875,-29.5,9.07,3.59,-0.91,stop,3
10.24,1848045.686583307,23,3,3,0,0,18.08,2.87,-3.67,9.02,-0.62,-2.3,111.8125,-244.375,50.125,0.60699462890625,0.5184326171875,-0.54864501953125,0.24853515625,-49.0,33.875,-29.5,9.05,3.49,-1.36,stop,3
10.25,1848045.686583307,23,3,3,0,0,16.96,7.23,-3.23,7.93,3.77,-1.54,106.625,-159.3125,9.875,0.59423828125,0.5269775390625,-0.55511474609375,0.24688720703125,-49.0,33.875,-29.5,9.02,3.45,-1.68,stop,3
10.26,1848045.702519871,23,3,3,0,0,14.8,8.71,-4.11,5.8,5.24,-2.31,45.125,-58.375,-17.5625,0.5897216796875,0.53143310546875,-0.55633544921875,0.2454833984375,-49.0,33.875,-29.5,8.99,3.46,-1.8,stop,3
10.27,1848045.702519871,23,3,3,0,0,12.25,7.94,-5.56,3.28,4.42,-3.74,-28.8125,-21.4375,-23.9375,0.59051513671875,0.53155517578125,-0.55694580078125,0.24188232421875,-49.0,33.875,-29.5,8.97,3.51,-1.81,stop,3
10.28,1848045.712208918,23,3,3,0,0,10.7,6.45,-5.63,1.76,2.88,-3.8,-67.8125,-38.0625,-21.3125,0.59228515625,0.52984619140625,-0.55938720703125,0.2357177734375,-50.5,36.5,-24.75,8.94,3.56,-1.83,stop,3
10.29,1848045.712208918,23,3,3,0,0,9.23,4.52,-3.77,0.32,0.9,-1.89,-90.5625,-64.0625,-18.0,0.59368896484375,0.52734375,-0.56365966796875,0.2274169921875,-50.5,36.5,-24.75,8.91,3.62,-1.87,stop,3
10.3,1848045.745959691,23,3,3,0,0,8.84,3.59,-2.5,-0.04,-0.09,-0.6,-112.0625,-62.875,-16.25,0.59600830078125,0.5235595703125,-0.568359375,0.2181396484375,-50.5,36.5,-24.75,8.88,3.68,-1.9,stop,3
10.31,1848045.745959691,23,3,3,0,0,8.17,2.76,-1.48,-0.68,-0.99,0.38,-137.5,-33.0,-18.625,0.6009521484375,0.5179443359375,-0.57183837890625,0.2088623046875,-50.5,36.5,-24.75,8.86,3.76,-1.86,stop,3
10.32,1848045.762473973,23,3,3,0,0,5.34,1.51,0.16,-3.5,-2.34,1.9,-169.75,11.25,-29.625,0.60968017578125,0.51025390625,-0.57293701171875,0.1993408203125,-50.5,36.5,-24.75,8.84,3.86,-1.73,stop,3
10.33,1848045.762473973,23,3,3,0,0,3.68,0.96,0.78,-5.14,-3.02,2.27,-205.5625,66.8125,-46.4375,0.62286376953125,0.5003662109375,-0.57073974609375,0.18951416015625,-51.0625,35.375,-21.375,8.83,3.99,-1.49,stop,3
10.34,1848045.774873916,23,3,3,0,0,1.9,0.46,1.71,-6.9,-3.68,2.82,-240.1875,137.125,-68.5625,0.64111328125,0.48834228515625,-0.5640869140625,0.1798095703125,-51.0625,35.375,-21.375,8.81,4.15,-1.11,stop,3
10.35,1848045.774873916,23,3,3,0,0,0.21,0.05,2.35,-8.56,-4.28,2.89,-275.6875,242.0,-96.625,0.6658935546875,0.47357177734375,-0.55047607421875,0.1710205078125,-51.0625,35.375,-21.375,8.77,4.33,-0.53,stop,3
10.36,1848045.804412816,23,3,3,0,0,-1.94,-0.13,1.08,-10.63,-4.66,0.84,-305.6875,352.0625,-123.875,0.6966552734375,0.45611572265625,-0.52899169921875,0.16357421875,-51.0625,35.375,-21.375,8.69,4.53,0.23,stop,3
10.37,1848045.804412816,23,3,3,0,0,-2.25,-0.42,0.45,-10.78,-5.14,-0.68,-322.125,429.75,-146.625,0.73052978515625,0.4366455078125,-0.5010986328125,0.15667724609375,-51.0625,35.375,-21.375,8.52,4.71,1.14,stop,3
10.38,1848045.821260757,23,3,3,0,0,-2.29,-0.8,-0.38,-10.55,-5.65,-2.48,-330.9375,465.0625,-157.8125,0.7646484375,0.41558837890625,-0.46929931640625,0.14971923828125,-52.25,35.75,-17.5625,8.25,4.85,2.09,stop,3
10.39,1848045.821260757,23,3,3,0,0,-1.96,-0.74,-1.28,-9.89,-5.66,-4.28,-331.5,439.3125,-154.4375,0.795654296875,0.3935546875,-0.438232421875,0.1416015625,-52.25,35.75,-17.5625,7.93,4.92,3.0,stop,3
10.4,1848045.837482559,23,3,3,0,0,-0.41,-1.58,-3.91,-8.02,-6.51,-7.64,-307.3125,342.125,-139.1875,0.82025146484375,0.37298583984375,-0.41314697265625,0.13177490234375,-52.25,35.75,-17.5625,7.61,4.93,3.73,stop,3
10.41,1848045.837482559,23,3,3,0,0,1.35,-1.57,-3.81,-6.03,-6.47,-7.99,-245.9375,182.4375,-107.5,0.83575439453125,0.35699462890625,-0.39923095703125,0.12115478515625,-52.25,35.75,-17.5625,7.39,4.9,4.18,stop,3
10.42,1848045.850158706,23,3,3,0,0,2.97,0.08,-3.38,-4.35,-4.8,-7.69,-138.4375,11.1875,-63.25,0.841064453125,0.34893798828125,-0.39788818359375,0.112060546875,-52.25,35.75,-17.5625,7.33,4.88,4.31,stop,3
10.43,1848045.850158706,23,3,3,0,0,2.97,0.08,-3.38,-4.35,-4.8,-7.69,-138.4375,11.1875,-63.25,0.841064453125,0.34893798828125,-0.39788818359375,0.112060546875,-52.25,35.75,-17.5625,7.33,4.88,4.31,stop,3
10.43,1848045.865262303,23,3,3,0,0,5.19,1.47,-2.51,-2.25,-3.41,-6.59,-6.4375,-183.875,-15.3125,0.83489990234375,0.35076904296875,-0.41094970703125,0.1051025390625,-49.0,35.75,-28.5625,7.45,4.89,4.08,stop,3
10.44,1848045.865262303,23,3,3,0,0,9.8,3.36,-2.06,2.03,-1.55,-5.46,120.8125,-438.1875,45.375,0.814453125,0.3616943359375,-0.4427490234375,0.0992431640625,-49.0,35.75,-28.5625,7.77,4.91,3.39,stop,3
10.45,1848045.898738133,23,3,3,0,0,11.46,4.21,-2.5,3.25,-0.67,-4.68,256.1875,-714.125,106.625,0.776123046875,0.381103515625,-0.4935302734375,0.093994140625,-49.0,35.75,-28.5625,8.21,4.89,2.18,stop,3
10.46,1848045.898738133,23,3,3,0,0,13.45,4.73,-2.5,4.9,-0.04,-2.96,404.625,-948.375,142.1875,0.71771240234375,0.408447265625,-0.556884765625,0.08917236328125,-49.0,35.75,-28.5625,8.55,4.77,0.45,stop,3
10.47,1848045.908637466,23,3,3,0,0,27.73,13.1,10.21,19.16,8.58,11.74,505.9375,-1055.1875,143.625,0.6439208984375,0.43902587890625,-0.620849609375,0.084716796875,-49.0,35.75,-28.5625,8.57,4.51,-1.53,stop,3
10.48,1848045.908637466,23,3,3,0,0,36.51,26.09,8.64,28.12,21.91,11.51,305.3125,-744.5625,147.0625,0.58929443359375,0.45257568359375,-0.66436767578125,0.080810546875,-51.25,36.375,-21.375,8.39,4.17,-2.86,stop,3
10.49,1848045.924294042,23,3,3,0,0,24.9,14.73,-15.6,16.57,10.65,-12.4,-48.3125,-254.125,86.9375,0.57568359375,0.44671630859375,-0.6810302734375,0.0723876953125,-51.25,36.375,-21.375,8.32,4.07,-3.2,stop,3
10.5,1848045.924294042,23,3,3,0,0,19.72,4.63,-9.81,11.41,0.49,-6.65,-15.9375,22.5,-35.625,0.577880859375,0.4478759765625,-0.6785888671875,0.070556640625,-51.25,36.375,-21.375,8.31,4.13,-3.15,stop,3
10.51,1848045.957817194,23,3,3,0,0,14.0,6.77,-11.51,5.61,2.61,-8.61,42.75,194.5625,-33.1875,0.58782958984375,0.45068359375,-0.6671142578125,0.07904052734375,-51.25,36.375,-21.375,8.39,4.16,-2.9,stop,3
10.52,1848045.957817194,23,3,3,0,0,14.28,8.02,-8.41,5.84,3.85,-5.66,74.4375,144.9375,-33.25,0.593505859375,0.4554443359375,-0.6578369140625,0.08734130859375,-51.25,36.375,-21.375,8.43,4.17,-2.74,stop,3
10.53,1848045.972629247,23,3,3,0,0,15.97,9.21,-4.75,7.51,5.01,-2.12,66.5,108.375,-39.3125,0.59735107421875,0.46026611328125,-0.65008544921875,0.09344482421875,-51.6875,41.0625,5.0,8.45,4.2,-2.63,stop,3
10.54,1848045.972629247,23,3,3,0,0,17.11,11.52,-1.59,8.6,7.28,0.82,2.625,148.1875,-26.3125,0.60577392578125,0.46063232421875,-0.6412353515625,0.09814453125,-51.6875,41.0625,5.0,8.5,4.23,-2.42,stop,3
10.55,1848045.984976577,23,3,3,0,0,13.66,8.06,-2.35,5.1,3.77,-0.23,-49.125,175.375,-23.875,0.61767578125,0.45782470703125,-0.63134765625,0.1011962890625,-51.6875,41.0625,5.0,8.55,4.29,-2.12,stop,3
10.56,1848045.984976577,23,3,3,0,0,12.11,6.32,-2.08,3.51,1.98,-0.21,-22.9375,156.6875,-23.625,0.62738037109375,0.4564208984375,-0.62213134765625,0.1048583984375,-51.6875,41.0625,5.0,8.59,4.33,-1.87,stop,3
10.57,1848046.012931615,23,3,3,0,0,10.62,6.41,-2.07,2.01,2.07,-0.33,34.1875,101.5625,-13.25,0.631591796875,0.45806884765625,-0.61572265625,0.11004638671875,-51.6875,41.0625,5.0,8.61,4.34,-1.74,stop,3
10.58,1848046.012931615,23,3,3,0,0,9.54,6.76,-1.66,0.92,2.42,0.1,91.6875,31.0,-12.5625,0.62969970703125,0.4635009765625,-0.61260986328125,0.11553955078125,-53.1875,38.1875,-2.5625,8.61,4.33,-1.76,stop,3
10.59,1848046.029376765,23,3,3,0,0,7.96,5.97,-0.77,-0.63,1.65,1.08,128.25,-0.1875,-15.9375,0.6246337890625,0.47137451171875,-0.61065673828125,0.12152099609375,-53.1875,38.1875,-2.5625,8.6,4.31,-1.86,stop,3
10.6,1848046.029376765,23,3,3,0,0,7.02,4.97,-0.89,-1.56,0.67,1.05,140.6875,12.8125,-21.5625,0.6197509765625,0.47998046875,-0.60748291015625,0.12835693359375,-53.1875,38.1875,-2.5625,8.59,4.3,-1.95,stop,3
10.61,1848046.047419652,23,3,3,0,0,5.96,3.98,-0.66,-2.62,-0.3,1.31,139.0,47.375,-27.25,0.61669921875,0.4884033203125,-0.6021728515625,0.13616943359375,-53.1875,38.1875,-2.5625,8.58,4.29,-1.98,stop,3
10.62,1848046.047419652,23,3,3,0,0,3.57,2.27,0.2,-5.01,-2.02,2.13,124.1875,97.5,-34.75,0.61688232421875,0.49566650390625,-0.59393310546875,0.14501953125,-53.1875,38.1875,-2.5625,8.59,4.3,-1.93,stop,3
10.63,1848046.078923436,23,3,3,0,0,2.37,1.52,0.86,-6.24,-2.81,2.62,97.5,160.0,-43.4375,0.62139892578125,0.5010986328125,-0.5821533203125,0.15460205078125,-54.5625,36.6875,-8.6875,8.61,4.34,-1.76,stop,3
10.64,1848046.078923436,23,3,3,0,0,1.16,0.92,1.55,-7.48,-3.47,3.0,60.0625,239.3125,-50.0,0.6314697265625,0.5035400390625,-0.5660400390625,0.16534423828125,-54.5625,36.6875,-8.6875,8.64,4.4,-1.45,stop,3
10.65,1848046.091515925,23,3,3,0,0,0.2,0.59,1.62,-8.46,-3.88,2.58,9.375,333.4375,-53.4375,0.64801025390625,0.50164794921875,-0.544921875,0.17742919921875,-54.5625,36.6875,-8.6875,8.67,4.47,-0.95,moving,3
10.66,1848046.091515925,23,3,3,0,0,-0.88,0.55,0.7,-9.56,-4.0,0.98,-42.0625,420.5,-48.8125,0.67010498046875,0.4947509765625,-0.519287109375,0.19097900390625,-54.5625,36.6875,-8.6875,8.67,4.55,-0.28,moving,3
10.67,1848046.10549676,23,3,3,0,0,-1.2,0.17,0.0,-9.84,-4.43,-0.5,-81.4375,481.625,-30.625,0.6953125,0.48291015625,-0.49072265625,0.2060546875,-54.5625,36.6875,-8.6875,8.64,4.6,0.5,moving,3
10.68,1848046.10549676,23,3,3,0,0,-1.48,-0.16,-0.91,-10.05,-4.74,-2.26,-112.25,500.25,1.625,0.720703125,0.46661376953125,-0.4620361328125,0.22222900390625,-53.1875,33.75,-18.0,8.56,4.58,1.34,moving,3
10.69,1848046.118563654,23,3,3,0,0,-1.48,-0.16,-0.91,-10.05,-4.74,-2.26,-112.25,500.25,1.625,0.720703125,0.46661376953125,-0.4620361328125,0.22222900390625,-53.1875,33.75,-18.0,8.56,4.58,1.34,moving,3
10.69,1848046.118563654,23,3,3,0,0,-1.77,-0.21,-2.21,-10.22,-4.69,-4.35,-132.875,464.6875,38.0,0.74346923828125,0.44732666015625,-0.4365234375,0.2379150390625,-53.1875,33.75,-18.0,8.45,4.48,2.14,moving,3
10.7,1848046.132837702,23,3,3,0,0,-1.35,-0.51,-4.59,-9.7,-4.85,-7.36,-128.0,358.0625,64.375,0.76031494140625,0.42889404296875,-0.41827392578125,0.2510986328125,-53.1875,33.75,-18.0,8.34,4.33,2.76,moving,3
10.71,1848046.132837702,23,3,3,0,0,0.33,-0.79,-4.14,-7.97,-4.97,-7.25,-78.0625,196.0,80.0,0.76849365234375,0.4163818359375,-0.40985107421875,0.26080322265625,-53.1875,33.75,-18.0,8.3,4.17,3.11,moving,3
10.72,1848046.163671971,23,3,3,0,0,2.18,-0.68,-3.18,-6.17,-4.73,-6.33,14.3125,33.125,100.1875,0.766845703125,0.41302490234375,-0.41094970703125,0.26922607421875,-53.1875,33.75,-18.0,8.36,4.04,3.14,moving,3
10.73,1848046.163671971,23,3,3,0,0,3.78,-0.48,-2.41,-4.72,-4.39,-5.31,121.3125,-112.0625,132.125,0.7552490234375,0.4189453125,-0.4202880859375,0.2783203125,-44.75,34.5625,-36.0,8.51,3.91,2.89,moving,3
10.74,1848046.176932307,23,3,3,0,0,7.88,0.35,-2.03,-0.86,-3.4,-4.39,222.8125,-264.625,167.6875,0.73291015625,0.43365478515625,-0.43817138671875,0.2877197265625,-44.75,34.5625,-36.0,8.74,3.76,2.35,moving,3
10.75,1848046.176932307,23,3,3,0,0,11.04,0.73,-2.35,2.01,-2.82,-3.78,317.8125,-462.375,197.75,0.697265625,0.45745849609375,-0.46661376953125,0.29461669921875,-44.75,34.5625,-36.0,9.02,3.55,1.43,moving,3
10.76,1848046.191465998,23,3,3,0,0,15.29,0.78,-3.14,6.04,-2.47,-3.2,408.5,-711.375,220.5,0.64459228515625,0.490234375,-0.5068359375,0.29547119140625,-44.75,34.5625,-36.0,9.24,3.26,0.05,moving,3
10.77,1848046.191465998,23,3,3,0,0,19.84,0.77,-3.2,10.6,-2.03,-1.48,469.375,-947.0,240.5625,0.5738525390625,0.528076171875,-0.5557861328125,0.2879638671875,-44.75,34.5625,-36.0,9.23,2.8,-1.72,moving,3
10.78,1848046.222123672,23,3,3,0,0,35.92,18.21,9.67,26.91,15.97,12.82,266.75,-825.125,281.4375,0.51287841796875,0.5467529296875,-0.60150146484375,0.27606201171875,-40.5625,38.1875,-36.25,9.01,2.24,-3.15,moving,3
10.79,1848046.222123672,23,3,3,0,0,32.11,8.06,-15.12,23.22,6.13,-11.45,-144.3125,-365.375,257.25,0.4940185546875,0.53515625,-0.633056640625,0.26239013671875,-40.5625,38.1875,-36.25,8.88,1.92,-3.67,moving,3
10.8,1848046.239852635,23,3,3,0,0,28.64,0.9,-13.77,19.8,-0.98,-9.98,-154.9375,-112.1875,91.875,0.49285888671875,0.52587890625,-0.6456298828125,0.25250244140625,-40.5625,38.1875,-36.25,8.84,1.88,-3.79,moving,3
10.81,1848046.239852635,23,3,3,0,0,18.5,-0.08,-11.97,9.53,-2.07,-8.55,-44.4375,224.5,-47.8125,0.5084228515625,0.5216064453125,-0.6346435546875,0.2581787109375,-40.5625,38.1875,-36.25,8.97,1.98,-3.42,moving,3
10.82,1848046.257205663,23,3,3,0,0,13.92,1.24,-11.25,4.79,-0.88,-8.37,34.5625,358.1875,-103.3125,0.52874755859375,0.5205078125,-0.6129150390625,0.27166748046875,-40.5625,38.1875,-36.25,9.13,2.13,-2.87,moving,3
10.83,1848046.257205663,23,3,3,0,0,11.59,1.89,-8.07,2.38,-0.38,-5.57,37.5,245.625,-104.5625,0.54248046875,0.5218505859375,-0.5958251953125,0.27996826171875,-49.25,41.0625,-16.75,9.2,2.28,-2.49,moving,3
10.84,1848046.284333877,23,3,3,0,0,11.29,2.38,-4.37,2.07,-0.04,-2.08,-21.5,120.5625,-88.25,0.55181884765625,0.5224609375,-0.58660888671875,0.2801513671875,-49.25,41.0625,-16.75,9.21,2.43,-2.29,moving,3
10.85,1848046.284333877,23,3,3,0,0,11.79,5.18,0.35,2.57,2.6,2.46,-110.5,83.1875,-63.9375,0.5626220703125,0.518310546875,-0.58233642578125,0.275146484375,-49.25,41.0625,-16.75,9.22,2.57,-2.11,moving,3
10.86,1848046.301942886,23,3,3,0,0,10.85,5.5,1.37,1.61,2.78,3.22,-196.125,107.3125,-49.75,0.5780029296875,0.508544921875,-0.57940673828125,0.267578125,-49.25,41.0625,-16.75,9.23,2.72,-1.85,moving,3
10.87,1848046.301942886,23,3,3,0,0,9.59,4.24,1.79,0.34,1.35,3.28,-249.625,143.0,-61.375,0.5975341796875,0.49554443359375,-0.57513427734375,0.25811767578125,-49.25,41.0625,-16.75,9.24,2.89,-1.49,moving,3
10.88,1848046.317343033,23,3,3,0,0,8.03,2.36,2.11,-1.21,-0.71,3.2,-259.6875,168.25,-75.5,0.61865234375,0.4818115234375,-0.5687255859375,0.24835205078125,-48.6875,39.5625,-24.0,9.24,3.07,-1.09,moving,3
10.89,1848046.317343033,23,3,3,0,0,4.06,0.9,1.66,-5.16,-2.33,2.33,-243.875,182.0625,-80.75,0.639404296875,0.46856689453125,-0.56060791015625,0.23944091796875,-48.6875,39.5625,-24.0,9.23,3.24,-0.66,moving,3
10.9,1848046.346795466,23,3,3,0,0,2.47,0.9,1.09,-6.72,-2.49,1.34,-217.25,181.375,-87.375,0.65875244140625,0.456787109375,-0.55126953125,0.23126220703125,-48.6875,39.5625,-24.0,9.19,3.4,-0.24,moving,3
10.91,1848046.346795466,23,3,3,0,0,1.63,0.67,0.5,-7.49,-2.88,0.38,-186.75,160.9375,-99.75,0.67578125,0.44744873046875,-0.54168701171875,0.222900390625,-48.6875,39.5625,-24.0,9.13,3.56,0.12,moving,3
10.92,1848046.361299006,23,3,3,0,0,0.41,0.7,0.99,-8.64,-3.03,0.54,-153.5,142.1875,-115.5,0.6905517578125,0.4410400390625,-0.53167724609375,0.21435546875,-48.6875,39.5625,-24.0,9.05,3.73,0.44,moving,3
10.93,1848046.361299006,23,3,3,0,0,-0.73,0.87,2.46,-9.68,-3.06,1.65,-118.6875,182.875,-136.0,0.70599365234375,0.4366455078125,-0.51751708984375,0.2076416015625,-46.875,39.875,-23.5625,8.94,3.93,0.81,moving,3
10.94,1848046.376409805,23,3,3,0,0,-0.73,0.87,2.46,-9.68,-3.06,1.65,-118.6875,182.875,-136.0,0.70599365234375,0.4366455078125,-0.51751708984375,0.2076416015625,-46.875,39.875,-23.5625,8.94,3.93,0.81,moving,3
10.94,1848046.376409805,23,3,3,0,0,-1.06,0.61,2.82,-9.85,-3.53,1.54,-100.75,255.875,-150.125,0.72381591796875,0.43243408203125,-0.4976806640625,0.20355224609375,-46.875,39.875,-23.5625,8.79,4.15,1.28,moving,3
10.95,1848046.38971201,23,3,3,0,0,-1.18,0.91,2.22,-9.78,-3.42,0.38,-114.9375,312.25,-148.125,0.74395751953125,0.42584228515625,-0.47418212890625,0.20086669921875,-46.875,39.875,-23.5625,8.59,4.34,1.84,moving,3
10.96,1848046.38971201,23,3,3,0,0,-1.78,1.39,-0.65,-10.16,-3.1,-3.07,-145.6875,317.3125,-140.125,0.7645263671875,0.4163818359375,-0.45068359375,0.19744873046875,-46.875,39.875,-23.5625,8.37,4.49,2.42,moving,3
10.97,1848046.422195653,23,3,3,0,0,-1.41,1.42,-2.85,-9.55,-3.18,-5.8,-182.75,261.125,-134.8125,0.78338623046875,0.40478515625,-0.43133544921875,0.190673828125,-46.875,39.875,-23.5625,8.14,4.6,2.94,moving,3
10.98,1848046.422195653,23,3,3,0,0,-0.46,1.22,-4.76,-8.44,-3.44,-8.05,-213.5,122.625,-122.4375,0.79736328125,0.3927001953125,-0.42205810546875,0.17852783203125,-48.25,38.0625,-27.75,7.97,4.66,3.28,moving,3
10.99,1848046.436490412,23,3,3,0,0,1.35,0.99,-5.78,-6.58,-3.68,-9.13,-208.625,-78.875,-97.5,0.80291748046875,0.38287353515625,-0.4273681640625,0.16131591796875,-48.25,38.0625,-27.75,7.94,4.67,3.34,moving,3
11.0,1848046.436490412,23,3,3,0,0,5.25,1.67,-6.04,-2.79,-3.0,-9.1,-144.8125,-291.3125,-59.9375,0.79742431640625,0.37896728515625,-0.4476318359375,0.1419677734375,-48.25,38.0625,-27.75,8.05,4.68,3.06,moving,3
11.01,1848046.450481176,23,3,3,0,0,6.92,1.96,-6.19,-1.35,-2.71,-8.59,-31.0625,-479.9375,-9.6875,0.77911376953125,0.38275146484375,-0.48065185546875,0.12408447265625,-48.25,38.0625,-27.75,8.27,4.67,2.4,moving,3
11.02,1848046.450481176,23,3,3,0,0,8.43,2.51,-6.84,-0.08,-2.13,-8.2,101.1875,-655.0625,42.1875,0.74658203125,0.39434814453125,-0.524658203125,0.109130859375,-48.25,38.0625,-27.75,8.52,4.65,1.35,moving,3
11.03,1848046.465520604,23,3,3,0,0,10.04,3.57,-7.81,1.36,-0.99,-7.76,231.5,-817.375,75.3125,0.69854736328125,0.41259765625,-0.57666015625,0.09625244140625,-47.875,36.25,-27.75,8.67,4.56,-0.05,moving,3
11.04,1848046.465520604,23,3,3,0,0,19.86,6.68,-4.57,11.25,2.3,-2.91,332.3125,-895.4375,88.3125,0.6385498046875,0.4344482421875,-0.62945556640625,0.0858154296875,-47.875,36.25,-27.75,8.61,4.38,-1.66,moving,3
11.05,1848046.498414525,23,3,3,0,0,29.37,10.35,-2.52,20.97,6.19,0.34,352.0,-637.1875,53.5625,0.588623046875,0.4549560546875,-0.6629638671875,0.08380126953125,-47.875,36.25,-27.75,8.4,4.16,-2.87,moving,3
11.06,1848046.498414525,23,3,3,0,0,37.98,14.24,0.54,29.68,10.13,3.78,219.0625,-140.25,-43.875,0.57196044921875,0.4696044921875,-0.66668701171875,0.08868408203125,-47.875,36.25,-27.75,8.29,4.1,-3.23,moving,3
11.07,1848046.513271947,23,3,3,0,0,35.87,21.81,2.36,27.45,17.61,5.13,-89.875,271.8125,-26.4375,0.5914306640625,0.46441650390625,-0.65252685546875,0.09320068359375,-47.875,36.25,-27.75,8.41,4.19,-2.77,moving,3
11.08,1848046.513271947,23,3,3,0,0,12.85,6.07,-5.95,4.3,1.75,-3.86,-131.5,397.1875,-42.4375,0.6192626953125,0.45654296875,-0.6309814453125,0.09954833984375,-53.375,38.375,-0.1875,8.55,4.31,-2.09,moving,3
11.09,1848046.522400202,23,3,3,0,0,12.13,7.23,-4.85,3.51,2.85,-3.26,-13.25,323.375,-43.6875,0.6376953125,0.45526123046875,-0.6116943359375,0.10931396484375,-53.375,38.375,-0.1875,8.62,4.38,-1.59,moving,3
11.1,1848046.522400202,23,3,3,0,0,13.0,9.53,-2.32,4.36,5.12,-0.88,40.9375,127.1875,-29.75,0.64312744140625,0.4578857421875,-0.60296630859375,0.1148681640625,-53.375,38.375,-0.1875,8.63,4.41,-1.43,moving,3
11.11,1848046.557452408,23,3,3,0,0,15.13,8.93,0.56,6.5,4.5,2.03,48.25,2.125,-15.25,0.64141845703125,0.46136474609375,-0.60174560546875,0.11663818359375,-53.375,38.375,-0.1875,8.62,4.42,-1.47,moving,3
11.12,1848046.557452408,23,3,3,0,0,14.56,7.1,-0.62,5.93,2.68,0.86,51.4375,15.125,-2.625,0.64013671875,0.4642333984375,-0.60028076171875,0.11981201171875,-53.375,38.375,-0.1875,8.62,4.41,-1.48,moving,3
11.13,1848046.568707413,23,3,3,0,0,13.13,5.42,-1.17,4.49,1.02,0.28,70.6875,57.0625,-5.875,0.64031982421875,0.46783447265625,-0.59613037109375,0.12548828125,-54.375,37.0,-7.875,8.63,4.4,-1.45,moving,3
11.14,1848046.568707413,23,3,3,0,0,11.42,4.48,-1.38,2.78,0.08,0.03,92.375,75.125,-14.125,0.64056396484375,0.472900390625,-0.59027099609375,0.132568359375,-54.375,37.0,-7.875,8.64,4.4,-1.41,moving,3
11.15,1848046.587279393,23,3,3,0,0,7.92,4.89,-1.57,-0.72,0.48,-0.18,112.1875,70.75,-17.0625,0.6397705078125,0.47918701171875,-0.58428955078125,0.14031982421875,-54.375,37.0,-7.875,8.65,4.4,-1.39,moving,3
11.16,1848046.587279393,23,3,3,0,0,6.57,4.96,-1.38,-2.08,0.56,0.01,137.4375,66.125,-18.375,0.63751220703125,0.4869384765625,-0.578125,0.1490478515625,-54.375,37.0,-7.875,8.65,4.39,-1.39,moving,3
11.17,1848046.629124486,23,3,3,0,0,5.6,4.67,-1.03,-3.05,0.28,0.38,159.6875,68.625,-20.1875,0.6343994140625,0.49591064453125,-0.5712890625,0.15887451171875,-54.375,37.0,-7.875,8.65,4.38,-1.41,moving,3
11.18,1848046.629124486,23,3,3,0,0,4.72,4.26,-0.63,-3.93,-0.12,0.79,169.25,76.375,-22.6875,0.631103515625,0.5052490234375,-0.56365966796875,0.16937255859375,-54.0625,35.5625,-12.0625,8.65,4.38,-1.43,moving,3
11.19,1848046.634960342,23,3,3,0,0,2.84,2.75,0.34,-5.81,-1.63,1.75,165.4375,96.8125,-28.9375,0.62890625,0.5142822265625,-0.5545654296875,0.18011474609375,-54.0625,35.5625,-12.0625,8.65,4.38,-1.41,moving,3
11.2,1848046.634960342,23,3,3,0,0,2.84,2.75,0.34,-5.81,-1.63,1.75,165.4375,96.8125,-28.9375,0.62890625,0.5142822265625,-0.5545654296875,0.18011474609375,-54.0625,35.5625,-12.0625,8.65,4.38,-1.41,moving,3
11.21,1848046.644540176,23,3,3,0,0,2.21,2.01,0.68,-6.45,-2.38,2.0,150.0,136.5,-33.3125,0.62921142578125,0.52191162109375,-0.5430908203125,0.191650390625,-54.0625,35.5625,-12.0625,8.66,4.39,-1.32,moving,3
11.21,1848046.644540176,23,3,3,0,0,1.45,1.41,0.84,-7.22,-3.0,1.97,125.6875,192.1875,-30.875,0.63299560546875,0.5269775390625,-0.5289306640625,0.20465087890625,-54.0625,35.5625,-12.0625,8.68,4.41,-1.12,moving,3
11.22,1848046.662960749,23,3,3,0,0,0.93,0.95,0.83,-7.76,-3.49,1.65,95.25,248.875,-27.875,0.640380859375,0.5289306640625,-0.5120849609375,0.2188720703125,-54.0625,35.5625,-12.0625,8.7,4.44,-0.82,moving,3
11.23,1848046.662960749,23,3,3,0,0,0.19,0.66,0.92,-8.52,-3.81,1.34,64.5,301.5,-21.625,0.65106201171875,0.52752685546875,-0.49285888671875,0.234375,-53.6875,32.6875,-20.0625,8.71,4.47,-0.41,moving,3
11.24,1848046.674638077,23,3,3,0,0,-0.21,0.71,0.63,-8.93,-3.78,0.54,35.8125,349.5625,-15.75,0.6644287109375,0.52288818359375,-0.4713134765625,0.2509765625,-53.6875,32.6875,-20.0625,8.71,4.49,0.08,moving,3
11.25,1848046.674638077,23,3,3,0,0,-0.47,0.73,-0.09,-9.16,-3.75,-0.74,9.5,377.0,-1.375,0.67919921875,0.51495361328125,-0.44891357421875,0.268310546875,-53.6875,32.6875,-20.0625,8.69,4.49,0.65,moving,3
11.26,1848046.707293432,23,3,3,0,0,-0.64,0.86,-1.66,-9.3,-3.57,-2.87,-19.125,355.25,33.25,0.69287109375,0.50396728515625,-0.42962646484375,0.28533935546875,-53.6875,32.6875,-20.0625,8.65,4.44,1.2,moving,3
11.27,1848046.707293432,23,3,3,0,0,-0.17,0.81,-2.28,-8.82,-3.49,-3.93,-48.125,274.5625,78.5625,0.70306396484375,0.4910888671875,-0.41754150390625,0.30029296875,-53.6875,32.6875,-20.0625,8.65,4.31,1.65,moving,3
11.28,1848046.72301678,23,3,3,0,0,0.55,0.57,-2.57,-8.13,-3.55,-4.51,-59.5625,155.4375,109.8125,0.70831298828125,0.47930908203125,-0.41424560546875,0.31146240234375,-48.25,29.375,-35.0,8.68,4.12,1.93,moving,3
11.29,1848046.72301678,23,3,3,0,0,1.51,0.1,-2.93,-7.24,-3.82,-4.94,-38.5625,29.125,122.875,0.70758056640625,0.4716796875,-0.4185791015625,0.31884765625,-48.25,29.375,-35.0,8.75,3.92,2.0,moving,3
11.3,1848046.754032934,23,3,3,0,0,4.16,-0.19,-3.96,-4.71,-3.92,-5.8,16.5,-102.9375,133.3125,0.6993408203125,0.47064208984375,-0.429931640625,0.32342529296875,-48.25,29.375,-35.0,8.88,3.72,1.83,moving,3
11.31,1848046.754032934,23,3,3,0,0,5.73,-0.08,-4.24,-3.3,-3.61,-5.61,102.1875,-253.5,146.0625,0.6812744140625,0.4783935546875,-0.44830322265625,0.32562255859375,-48.25,29.375,-35.0,9.04,3.52,1.37,moving,3
11.32,1848046.766655451,23,3,3,0,0,7.77,0.07,-4.77,-1.43,-3.24,-5.36,209.6875,-411.625,155.5,0.65142822265625,0.49603271484375,-0.472900390625,0.3255615234375,-48.25,29.375,-35.0,9.2,3.31,0.59,moving,3
11.33,1848046.766655451,23,3,3,0,0,10.26,-0.03,-5.99,0.96,-3.09,-5.48,324.25,-570.8125,159.3125,0.60821533203125,0.523193359375,-0.50213623046875,0.32275390625,-38.875,33.0,-42.6875,9.3,3.06,-0.5,moving,3
11.34,1848046.77935349,23,3,3,0,0,17.11,1.3,-9.69,7.88,-1.41,-7.79,427.9375,-727.0625,156.3125,0.5509033203125,0.55792236328125,-0.53436279296875,0.31573486328125,-38.875,33.0,-42.6875,9.22,2.71,-1.89,moving,3
11.35,1848046.77935349,23,3,3,0,0,23.7,4.16,-2.35,14.78,1.87,1.0,488.6875,-787.9375,129.6875,0.48516845703125,0.5950927734375,-0.56317138671875,0.30535888671875,-38.875,33.0,-42.6875,8.92,2.29,-3.36,moving,3
11.36,1848046.806971695,23,3,3,0,0,37.69,13.11,11.05,29.0,11.16,15.17,306.625,-419.4375,92.3125,0.44573974609375,0.61407470703125,-0.57696533203125,0.30224609375,-38.875,33.0,-42.6875,8.68,1.94,-4.11,moving,3
11.37,1848046.806971695,23,3,3,0,0,36.04,17.01,-8.04,27.19,15.13,-4.26,-191.9375,178.4375,131.4375,0.46136474609375,0.5950927734375,-0.58197021484375,0.30712890625,-38.875,33.0,-42.6875,8.85,1.87,-3.78,moving,3
11.38,1848046.826731623,23,3,3,0,0,19.57,-0.5,-5.41,10.5,-2.49,-2.27,-256.5625,351.375,28.75,0.49139404296875,0.573486328125,-0.57574462890625,0.31329345703125,-49.0,32.6875,-29.25,9.07,1.98,-3.14,moving,3
11.39,1848046.826731623,23,3,3,0,0,16.18,-0.63,-3.95,6.92,-2.73,-1.48,-119.0,395.75,-37.5,0.51788330078125,0.55908203125,-0.559814453125,0.3253173828125,-49.0,32.6875,-29.25,9.25,2.1,-2.47,moving,3
11.4,1848046.840010066,23,3,3,0,0,13.9,1.8,-1.99,4.55,-0.39,-0.02,-41.8125,299.875,-48.5,0.5357666015625,0.55084228515625,-0.54486083984375,0.3355712890625,-49.0,32.6875,-29.25,9.35,2.2,-1.96,moving,3
11.41,1848046.840010066,23,3,3,0,0,13.83,3.84,-1.86,4.46,1.55,-0.13,-36.625,140.5,-51.5625,0.545654296875,0.54742431640625,-0.536865234375,0.33819580078125,-49.0,32.6875,-29.25,9.37,2.29,-1.72,moving,3
11.42,1848046.856807755,23,3,3,0,0,12.39,3.57,0.35,3.03,1.2,2.04,-55.0,7.375,-37.375,0.54974365234375,0.54632568359375,-0.53631591796875,0.33416748046875,-49.0,32.6875,-29.25,9.36,2.37,-1.68,moving,3
11.43,1848046.856807755,23,3,3,0,0,12.36,3.15,0.57,3.01,0.69,2.26,-82.8125,-24.5,-32.375,0.553466796875,0.5445556640625,-0.53839111328125,0.32757568359375,-46.5,34.75,-30.5,9.34,2.45,-1.69,moving,3
11.44,1848046.887161352,23,3,3,0,0,12.12,2.53,0.84,2.79,0.0,2.48,-106.3125,6.3125,-36.5,0.55987548828125,0.5408935546875,-0.539306640625,0.32110595703125,-46.5,34.75,-30.5,9.32,2.54,-1.63,moving,3
11.45,1848046.887161352,23,3,3,0,0,10.88,1.09,-0.03,1.55,-1.55,1.46,-125.0,48.625,-41.1875,0.56915283203125,0.53533935546875,-0.5384521484375,0.31549072265625,-46.5,34.75,-30.5,9.32,2.64,-1.5,moving,3
11.46,1848046.896165217,23,3,3,0,0,10.88,1.09,-0.03,1.55,-1.55,1.46,-125.0,48.625,-41.1875,0.56915283203125,0.53533935546875,-0.5384521484375,0.31549072265625,-46.5,34.75,-30.5,9.32,2.64,-1.5,moving,3
11.47,1848046.896165217,23,3,3,0,0,9.39,0.78,0.05,0.07,-1.96,1.39,-129.75,61.625,-44.75,0.57928466796875,0.52923583984375,-0.536865234375,0.31005859375,-46.5,34.75,-30.5,9.31,2.74,-1.33,moving,3
11.47,1848046.916862361,23,3,3,0,0,8.0,0.74,0.11,-1.3,-2.11,1.28,-119.9375,69.5625,-53.4375,0.5894775390625,0.52374267578125,-0.5340576171875,0.304931640625,-46.5,34.75,-30.5,9.3,2.86,-1.16,moving,3
11.48,1848046.916862361,23,3,3,0,0,6.69,0.95,0.16,-2.59,-2.03,1.15,-101.25,79.0625,-66.375,0.59954833984375,0.51947021484375,-0.52960205078125,0.3004150390625,-45.5,34.5,-32.375,9.28,2.98,-0.98,moving,3
11.49,1848046.932318415,23,3,3,0,0,4.5,1.25,0.84,-4.75,-1.87,1.64,-84.0,85.1875,-81.3125,0.609375,0.51654052734375,-0.52362060546875,0.296142578125,-45.5,34.5,-32.375,9.25,3.13,-0.8,moving,3
11.5,1848046.932318415,23,3,3,0,0,3.67,1.27,1.39,-5.54,-2.01,2.0,-80.9375,89.9375,-94.5625,0.6195068359375,0.51416015625,-0.5166015625,0.29144287109375,-45.5,34.5,-32.375,9.21,3.29,-0.61,moving,3
11.51,1848046.941264908,23,3,3,0,0,3.02,1.49,1.62,-6.14,-1.97,2.01,-93.5,105.25,-104.375,0.63104248046875,0.51104736328125,-0.508544921875,0.28631591796875,-45.5,34.5,-32.375,9.16,3.46,-0.38,moving,3
11.52,1848046.941264908,23,3,3,0,0,1.98,1.91,2.2,-7.11,-1.73,2.29,-110.0625,141.4375,-111.5,0.6448974609375,0.50628662109375,-0.49847412109375,0.28155517578125,-45.5,34.5,-32.375,9.1,3.65,-0.09,moving,3
11.53,1848046.977306046,23,3,3,0,0,0.7,2.39,1.52,-8.32,-1.43,1.2,-132.75,204.6875,-117.0,0.662353515625,0.49871826171875,-0.48492431640625,0.2781982421875,-45.5,34.75,-32.0,9.02,3.83,0.31,moving,3
11.54,1848046.977306046,23,3,3,0,0,-0.03,2.74,0.48,-8.95,-1.25,-0.31,-161.3125,240.3125,-113.5625,0.68206787109375,0.48822021484375,-0.4698486328125,0.275146484375,-45.5,34.75,-32.0,8.91,3.99,0.8,moving,3
11.56,1848046.989194473,23,3,3,0,0,-0.69,2.68,-0.3,-9.49,-1.44,-1.57,-187.3125,220.8125,-104.625,0.70135498046875,0.475830078125,-0.45654296875,0.27056884765625,-45.5,34.75,-32.0,8.8,4.12,1.27,moving,3
11.57,1848046.989194473,23,3,3,0,0,-1.05,2.38,-1.03,-9.75,-1.82,-2.71,-208.5,167.0625,-91.375,0.7186279296875,0.462646484375,-0.44732666015625,0.2635498046875,-45.5,34.75,-32.0,8.69,4.2,1.68,moving,3
11.57,1848047.006217056,23,3,3,0,0,-0.66,1.88,-2.53,-9.27,-2.36,-4.52,-223.0,96.3125,-73.125,0.73291015625,0.44915771484375,-0.443359375,0.25408935546875,-45.5,34.75,-32.0,8.61,4.24,1.99,moving,3
11.58,1848047.006217056,23,3,3,0,0,0.31,1.7,-3.14,-8.25,-2.54,-5.31,-222.125,5.375,-56.375,0.742919921875,0.43695068359375,-0.44561767578125,0.2420654296875,-44.75,34.5,-35.875,8.56,4.25,2.16,moving,3
11.59,1848047.037562231,23,3,3,0,0,1.65,1.6,-3.58,-6.92,-2.63,-5.73,-196.625,-106.4375,-42.1875,0.74700927734375,0.427978515625,-0.4549560546875,0.22760009765625,-44.75,34.5,-35.875,8.57,4.23,2.15,moving,3
11.6,1848047.037562231,23,3,3,0,0,4.62,2.14,-4.65,-4.01,-2.07,-6.57,-139.375,-225.5625,-22.75,0.7435302734375,0.42413330078125,-0.471435546875,0.21209716796875,-44.75,34.5,-35.875,8.63,4.22,1.91,moving,3
11.61,1848047.069778132,23,3,3,0,0,6.58,2.77,-5.73,-2.16,-1.42,-7.16,-53.125,-351.6875,5.125,0.7305908203125,0.42681884765625,-0.49517822265625,0.1971435546875,-44.75,34.5,-35.875,8.74,4.2,1.42,moving,3
11.62,1848047.069778132,23,3,3,0,0,9.44,3.31,-7.06,0.58,-0.82,-7.67,52.875,-504.6875,41.75,0.70538330078125,0.43658447265625,-0.5274658203125,0.18310546875,-44.75,34.5,-35.875,8.86,4.14,0.61,moving,3
11.64,1848047.081247777,23,3,3,0,0,14.04,3.67,-7.89,5.11,-0.33,-7.33,166.125,-674.75,86.5625,0.6654052734375,0.4527587890625,-0.568603515625,0.17010498046875,-43.6875,36.25,-32.0,8.93,4.01,-0.55,moving,3
11.65,1848047.081247777,23,3,3,0,0,24.96,8.6,-7.69,16.11,4.83,-5.81,259.125,-742.6875,120.375,0.61505126953125,0.47174072265625,-0.61114501953125,0.16021728515625,-43.6875,36.25,-32.0,8.85,3.77,-1.88,moving,3
11.66,1848047.094853612,23,3,3,0,0,32.84,9.31,-7.67,24.19,5.76,-4.71,267.5625,-586.9375,67.625,0.57086181640625,0.48992919921875,-0.64068603515625,0.1536865234375,-43.6875,36.25,-32.0,8.65,3.55,-2.95,moving,3
