timestamp,android_nano_timestamp,temperature,calib_mag,calib_accel,calib_gyro,calib_sys,acc_x,acc_y,acc_z,lacc_x,lacc_y,lacc_z,gyro_x,gyro_y,gyro_z,quat_w,quat_x,quat_y,quat_z,mag_x,mag_y,mag_z,gravity_x,gravity_y,gravity_z,label,person
3.91,615110.982364388,22,1,0,0,0,5.65,0.16,0.15,-4.06,-0.36,-1.05,20.125,42.5625,-8.4375,0.74652099609375,-0.02471923828125,-0.661376953125,-0.068359375,-49.6875,19.5,15.5,9.71,0.52,1.21,moving,1
3.92,615111.008265185,22,1,0,0,0,5.15,0.17,0.2,-4.54,-0.36,-1.08,20.1875,46.5,-8.4375,0.74920654296875,-0.02264404296875,-0.658447265625,-0.06787109375,-49.6875,19.5,15.5,9.7,0.54,1.29,moving,1
3.93,615111.008265185,22,1,0,0,0,4.82,0.09,0.24,-4.87,-0.46,-1.1,18.125,39.1875,-6.75,0.75146484375,-0.02081298828125,-0.656005859375,-0.06732177734375,-49.6875,19.5,15.5,9.69,0.55,1.35,moving,1
3.94,615111.023061084,22,1,0,0,0,4.63,-0.12,0.3,-5.04,-0.69,-1.09,10.8125,24.375,-4.875,0.75286865234375,-0.01971435546875,-0.65447998046875,-0.06707763671875,-49.6875,19.5,15.5,9.68,0.57,1.39,moving,1
3.95,615111.023061084,22,1,0,0,0,4.35,-0.11,0.57,-5.33,-0.68,-0.83,2.75,12.3125,-2.0,0.7535400390625,-0.01934814453125,-0.6536865234375,-0.06707763671875,-50.375,16.875,14.0,9.68,0.57,1.41,moving,1
3.96,615111.038923388,22,1,0,0,0,4.32,0.12,0.98,-5.35,-0.44,-0.45,-4.125,7.9375,0.0625,0.75396728515625,-0.01953125,-0.65313720703125,-0.06732177734375,-50.375,16.875,14.0,9.68,0.57,1.43,moving,1
3.97,615111.038923388,22,1,0,0,0,4.46,0.37,1.36,-5.22,-0.19,-0.07,-11.25,5.375,1.1875,0.7542724609375,-0.02032470703125,-0.6527099609375,-0.06787109375,-50.375,16.875,14.0,9.68,0.56,1.44,moving,1
3.98,615111.073381885,22,1,0,0,0,5.3,0.58,1.96,-4.37,0.02,0.52,-20.6875,-1.9375,2.5,0.754150390625,-0.0218505859375,-0.6527099609375,-0.06890869140625,-50.375,16.875,14.0,9.68,0.55,1.44,moving,1
3.99,615111.073381885,22,1,0,0,0,6.19,0.59,2.03,-3.49,0.04,0.61,-28.875,-11.6875,3.9375,0.75347900390625,-0.0240478515625,-0.6533203125,-0.07025146484375,-50.375,16.875,14.0,9.68,0.54,1.42,moving,1
4.0,615111.084191455,22,1,0,0,0,7.39,0.66,1.8,-2.29,0.13,0.4,-39.4375,-18.25,5.3125,0.75238037109375,-0.02703857421875,-0.65423583984375,-0.0721435546875,-50.0,18.0,12.875,9.69,0.52,1.39,moving,1
4.0,615111.084191455,22,1,0,0,0,7.39,0.66,1.8,-2.29,0.13,0.4,-39.4375,-18.25,5.3125,0.75238037109375,-0.02703857421875,-0.65423583984375,-0.0721435546875,-50.0,18.0,12.875,9.69,0.52,1.39,moving,1
4.01,615111.09903138,22,1,0,0,0,9.27,0.47,1.08,-0.42,-0.02,-0.27,-54.5,-29.125,9.8125,0.7506103515625,-0.0313720703125,-0.65576171875,-0.07452392578125,-50.0,18.0,12.875,9.7,0.49,1.35,moving,1
4.02,615111.09903138,22,1,0,0,0,15.83,-0.63,-0.22,6.12,-1.08,-1.48,-68.9375,-55.5625,18.25,0.74737548828125,-0.03729248046875,-0.65887451171875,-0.07708740234375,-50.0,18.0,12.875,9.71,0.45,1.26,moving,1
4.03,615111.113108244,22,1,0,0,0,18.34,-0.78,0.69,8.6,-1.16,-0.4,-82.0,-103.375,31.8125,0.7413330078125,-0.045166015625,-0.6649169921875,-0.07940673828125,-50.0,18.0,12.875,9.73,0.37,1.09,moving,1
4.04,615111.113108244,22,1,0,0,0,19.91,-0.52,1.74,10.15,-0.81,0.84,-88.5,-121.6875,42.25,0.734130859375,-0.05419921875,-0.67193603515625,-0.081298828125,-50.0,18.0,12.875,9.76,0.29,0.89,moving,1
4.05,615111.129025806,22,1,0,0,0,19.36,1.2,0.93,9.59,0.97,0.11,-32.0,-42.75,30.8125,0.731689453125,-0.058349609375,-0.67431640625,-0.0810546875,-49.1875,18.375,14.0,9.76,0.23,0.82,moving,1
4.06,615111.129025806,22,1,0,0,0,19.2,1.59,1.11,9.43,1.37,0.29,-18.3125,-5.875,6.0,0.73126220703125,-0.05987548828125,-0.67449951171875,-0.0816650390625,-49.1875,18.375,14.0,9.77,0.22,0.81,moving,1
4.07,615111.158890185,22,1,0,0,0,16.59,0.91,1.41,6.81,0.69,0.61,2.0,-10.9375,1.3125,0.73065185546875,-0.0599365234375,-0.67523193359375,-0.0814208984375,-49.1875,18.375,14.0,9.77,0.21,0.79,moving,1
4.08,615111.158890185,22,1,0,0,0,14.63,0.95,1.08,4.86,0.71,0.27,38.125,13.1875,-7.875,0.7315673828125,-0.05694580078125,-0.6746826171875,-0.07977294921875,-49.1875,18.375,14.0,9.76,0.23,0.81,moving,1
4.09,615111.173303149,22,1,0,0,0,10.87,1.43,1.04,1.11,1.16,0.13,40.0625,53.25,-13.375,0.73480224609375,-0.05322265625,-0.671630859375,-0.0784912109375,-49.1875,18.375,14.0,9.76,0.26,0.9,moving,1
4.1,615111.173303149,22,1,0,0,0,9.21,1.65,2.18,-0.53,1.36,1.15,28.125,75.375,-10.9375,0.7392578125,-0.05023193359375,-0.6669921875,-0.07794189453125,-48.5,18.6875,16.0,9.74,0.29,1.03,moving,1
4.11,615111.188646004,22,1,0,0,0,6.79,2.02,1.53,-2.93,1.7,0.37,28.125,75.375,-10.9375,0.74365234375,-0.04730224609375,-0.662353515625,-0.07733154296875,-48.5,18.6875,16.0,9.73,0.31,1.15,moving,1
4.12,615111.188646004,22,1,0,0,0,5.57,0.82,0.48,-4.13,0.47,-0.78,23.1875,67.9375,-14.75,0.74755859375,-0.04443359375,-0.658203125,-0.07720947265625,-48.5,18.6875,16.0,9.71,0.34,1.27,moving,1
4.13,615111.219781461,22,1,0,0,0,3.32,0.02,-0.36,-6.37,-0.33,-1.72,21.6875,52.9375,-10.6875,0.7506103515625,-0.04205322265625,-0.6549072265625,-0.076904296875,-48.5,18.6875,16.0,9.7,0.36,1.35,moving,1
4.14,615111.219781461,22,1,0,0,0,2.94,-0.12,0.01,-6.74,-0.51,-1.4,19.1875,36.9375,-10.125,0.75274658203125,-0.03997802734375,-0.65264892578125,-0.07659912109375,-48.5,18.6875,16.0,9.69,0.39,1.42,moving,1
4.15,615111.248972095,22,1,0,0,0,2.91,-0.14,0.71,-6.77,-0.56,-0.74,14.6875,25.625,-14.125,0.754150390625,-0.03802490234375,-0.651123046875,-0.0767822265625,-50.25,19.5,14.75,9.68,0.41,1.46,moving,1
4.16,615111.248972095,22,1,0,0,0,3.3,0.14,2.06,-6.37,-0.29,0.56,5.75,18.6875,-13.125,0.755126953125,-0.0367431640625,-0.64996337890625,-0.07733154296875,-50.25,19.5,14.75,9.68,0.44,1.49,moving,1
4.17,615111.254665128,22,1,0,0,0,3.59,0.06,2.21,-6.08,-0.39,0.7,-13.3125,5.25,-10.75,0.75531005859375,-0.0369873046875,-0.6495361328125,-0.078857421875,-50.25,19.5,14.75,9.67,0.45,1.5,moving,1
4.18,615111.254665128,22,1,0,0,0,3.83,-0.31,2.1,-5.85,-0.77,0.62,-30.5625,-12.75,-8.3125,0.75445556640625,-0.03863525390625,-0.65020751953125,-0.08111572265625,-50.25,19.5,14.75,9.68,0.46,1.48,moving,1
4.19,615111.279552091,22,1,0,0,0,4.35,-0.44,2.29,-5.33,-0.9,0.85,-37.0,-29.3125,-8.25,0.7525634765625,-0.040771484375,-0.65191650390625,-0.0836181640625,-50.25,19.5,14.75,9.68,0.46,1.43,moving,1
4.2,615111.279552091,22,1,0,0,0,6.31,0.12,2.27,-3.38,-0.34,0.89,-40.4375,-36.9375,-6.5625,0.75030517578125,-0.0433349609375,-0.654052734375,-0.08624267578125,-49.875,18.0,12.875,9.69,0.46,1.38,moving,1
4.21,615111.292622445,22,1,0,0,0,7.94,0.13,1.55,-1.76,-0.32,0.25,-48.375,-49.5625,-1.0625,0.74725341796875,-0.04681396484375,-0.65692138671875,-0.08892822265625,-49.875,18.0,12.875,9.7,0.45,1.3,moving,1
4.22,615111.292622445,22,1,0,0,0,10.29,-0.06,0.45,0.56,-0.49,-0.7,-60.8125,-86.125,7.25,0.74212646484375,-0.0518798828125,-0.6619873046875,-0.091552734375,-49.875,18.0,12.875,9.72,0.43,1.15,moving,1
4.23,615111.308795378,22,1,0,0,0,17.55,-0.87,0.13,7.8,-1.26,-0.8,-79.4375,-131.75,20.6875,0.7342529296875,-0.05926513671875,-0.66973876953125,-0.09417724609375,-49.875,18.0,12.875,9.75,0.38,0.94,moving,1
4.24,615111.308795378,22,1,0,0,0,20.94,-0.58,0.88,11.17,-0.89,0.15,-63.0625,-126.0,36.625,0.726806640625,-0.06646728515625,-0.677001953125,-0.0948486328125,-49.875,18.0,12.875,9.77,0.31,0.73,moving,1
4.25,615111.339076831,22,1,0,0,0,20.9,1.65,1.38,11.12,1.35,0.76,13.9375,-61.0625,12.5,0.723388671875,-0.06683349609375,-0.680908203125,-0.0928955078125,-49.875,17.6875,14.75,9.78,0.29,0.62,moving,1
4.26,615111.339076831,22,1,0,0,0,19.57,1.75,0.35,9.8,1.42,-0.3,28.6875,20.125,-18.8125,0.72454833984375,-0.063720703125,-0.67999267578125,-0.092529296875,-49.875,17.6875,14.75,9.77,0.32,0.65,moving,1
4.27,615111.353860441,22,1,0,0,0,15.75,1.77,-1.53,5.98,1.4,-2.29,65.625,64.625,-19.8125,0.72857666015625,-0.057861328125,-0.676513671875,-0.0902099609375,-49.875,17.6875,14.75,9.76,0.37,0.76,moving,1
4.28,615111.353860441,22,1,0,0,0,14.23,1.14,-1.15,4.46,0.74,-1.98,57.4375,39.625,-14.6875,0.7310791015625,-0.05303955078125,-0.67449951171875,-0.08795166015625,-49.875,17.6875,14.75,9.76,0.4,0.82,moving,1
4.28,615111.370604093,22,1,0,0,0,14.23,1.14,-1.15,4.46,0.74,-1.98,57.4375,39.625,-14.6875,0.7310791015625,-0.05303955078125,-0.67449951171875,-0.08795166015625,-49.875,17.6875,14.75,9.76,0.4,0.82,moving,1
4.29,615111.370604093,22,1,0,0,0,13.05,0.58,0.09,3.29,0.18,-0.77,-4.0625,26.8125,1.5625,0.732666015625,-0.05316162109375,-0.6727294921875,-0.0882568359375,-49.875,17.6875,14.75,9.75,0.4,0.87,moving,1
4.3,615111.383399951,22,1,0,0,0,10.27,1.02,1.8,0.51,0.63,0.85,-13.3125,42.75,3.625,0.735107421875,-0.05389404296875,-0.669921875,-0.0889892578125,-49.1875,16.5625,17.5,9.75,0.39,0.94,moving,1
4.31,615111.383399951,22,1,0,0,0,8.34,0.53,1.05,-1.39,0.11,-0.02,22.1875,76.625,-15.1875,0.73956298828125,-0.051025390625,-0.66522216796875,-0.0889892578125,-49.1875,16.5625,17.5,9.73,0.42,1.07,moving,1
4.32,615111.399542041,22,1,0,0,0,6.41,0.17,1.3,-3.3,-0.29,0.04,53.125,108.1875,-22.5,0.745849609375,-0.04541015625,-0.65869140625,-0.087890625,-49.1875,16.5625,17.5,9.71,0.47,1.25,moving,1
4.33,615111.399542041,22,1,0,0,0,4.19,1.44,1.05,-5.49,0.93,-0.34,24.9375,84.75,-16.8125,0.75067138671875,-0.04217529296875,-0.6534423828125,-0.087890625,-49.1875,16.5625,17.5,9.69,0.5,1.39,moving,1
4.34,615111.428623096,22,1,0,0,0,3.02,-0.01,0.43,-6.65,-0.53,-1.04,1.0,47.6875,-11.875,0.7532958984375,-0.04107666015625,-0.65032958984375,-0.0887451171875,-49.1875,16.5625,17.5,9.68,0.52,1.47,moving,1
4.35,615111.428623096,22,1,0,0,0,3.0,0.07,0.6,-6.66,-0.47,-0.91,11.0625,23.9375,-15.625,0.75457763671875,-0.03924560546875,-0.64892578125,-0.0892333984375,-49.875,16.5625,15.5625,9.67,0.55,1.51,moving,1
4.36,615111.443498787,22,1,0,0,0,2.98,0.24,1.16,-6.67,-0.34,-0.37,26.1875,15.1875,-18.375,0.75537109375,-0.036376953125,-0.648193359375,-0.08905029296875,-49.875,16.5625,15.5625,9.66,0.59,1.54,moving,1
4.37,615111.443498787,22,1,0,0,0,2.89,0.53,1.56,-6.77,-0.09,0.01,14.9375,5.0625,-18.5,0.75555419921875,-0.0343017578125,-0.64801025390625,-0.08941650390625,-49.875,16.5625,15.5625,9.66,0.62,1.54,moving,1
4.38,615111.459337004,22,1,0,0,0,2.92,-0.31,1.82,-6.73,-0.96,0.27,-5.25,1.625,-15.125,0.75555419921875,-0.03375244140625,-0.64794921875,-0.0906982421875,-49.875,16.5625,15.5625,9.66,0.65,1.55,moving,1
4.39,615111.459337004,22,1,0,0,0,3.07,-0.5,1.91,-6.58,-1.17,0.35,-7.6875,3.1875,-11.75,0.755615234375,-0.0335693359375,-0.647705078125,-0.0919189453125,-49.875,16.5625,15.5625,9.65,0.67,1.55,moving,1
4.4,615111.489122404,22,1,0,0,0,3.11,-0.31,2.07,-6.54,-1.0,0.51,-2.125,-0.1875,-11.875,0.7554931640625,-0.0330810546875,-0.647705078125,-0.09283447265625,-50.25,17.6875,13.0,9.65,0.68,1.55,moving,1
4.41,615111.489122404,22,1,0,0,0,4.69,0.23,2.32,-4.97,-0.46,0.8,-10.1875,-22.875,-7.5625,0.75408935546875,-0.03350830078125,-0.64910888671875,-0.0938720703125,-50.25,17.6875,13.0,9.66,0.69,1.52,moving,1
4.42,615111.502820565,22,1,0,0,0,6.36,0.19,1.97,-3.31,-0.49,0.54,-31.875,-56.5625,3.0,0.7508544921875,-0.03619384765625,-0.652587890625,-0.09527587890625,-50.25,17.6875,13.0,9.67,0.68,1.42,moving,1
4.43,615111.502820565,22,1,0,0,0,8.88,0.16,1.37,-0.81,-0.48,0.09,-45.0625,-91.0625,15.3125,0.74560546875,-0.040771484375,-0.6580810546875,-0.0965576171875,-50.25,17.6875,13.0,9.7,0.64,1.27,moving,1
4.44,615111.518682747,22,1,0,0,0,12.0,0.1,0.64,2.27,-0.49,-0.42,-47.75,-123.6875,26.125,0.738525390625,-0.04644775390625,-0.66558837890625,-0.09716796875,-50.25,17.6875,13.0,9.72,0.59,1.07,moving,1
4.45,615111.518682747,22,1,0,0,0,20.62,-0.89,0.69,10.86,-1.4,-0.13,-67.625,-148.0625,40.9375,0.72991943359375,-0.054443359375,-0.67431640625,-0.09783935546875,-51.0625,18.375,12.5625,9.75,0.51,0.83,moving,1
4.46,615111.550185636,22,1,0,0,0,22.59,1.04,-1.15,12.81,0.62,-1.79,-24.4375,-113.9375,57.0625,0.7235107421875,-0.060302734375,-0.6810302734375,-0.0950927734375,-51.0625,18.375,12.5625,9.77,0.41,0.63,moving,1
4.47,615111.550185636,22,1,0,0,0,22.27,2.72,0.54,12.49,2.34,-0.01,33.375,-46.0625,21.375,0.72113037109375,-0.05987548828125,-0.68408203125,-0.09149169921875,-51.0625,18.375,12.5625,9.78,0.38,0.55,moving,1
4.48,615111.563292651,22,1,0,0,0,19.01,2.09,-0.23,9.23,1.66,-0.81,53.8125,14.4375,-21.3125,0.72210693359375,-0.0550537109375,-0.6837158203125,-0.0897216796875,-51.0625,18.375,12.5625,9.78,0.42,0.57,moving,1
4.49,615111.563292651,22,1,0,0,0,15.1,1.1,-1.32,5.33,0.63,-1.99,88.9375,56.5625,-20.5625,0.7257080078125,-0.04779052734375,-0.680908203125,-0.08599853515625,-51.0625,18.375,12.5625,9.77,0.46,0.66,moving,1
4.5,615111.579272103,22,1,0,0,0,13.13,1.18,-0.27,3.37,0.68,-1.04,83.25,62.75,-16.8125,0.7296142578125,-0.04107666015625,-0.6776123046875,-0.08233642578125,-50.25,18.375,17.5625,9.76,0.5,0.76,moving,1
4.51,615111.579272103,22,1,0,0,0,11.86,1.52,0.7,2.1,1.0,-0.16,30.875,63.875,-6.375,0.73345947265625,-0.03826904296875,-0.67376708984375,-0.0811767578125,-50.25,18.375,17.5625,9.75,0.52,0.87,moving,1
4.52,615111.608512419,22,1,0,0,0,9.01,1.47,1.43,-0.73,0.93,0.46,7.5625,60.6875,-4.3125,0.73699951171875,-0.03704833984375,-0.66998291015625,-0.0811767578125,-50.25,18.375,17.5625,9.74,0.53,0.97,moving,1
4.53,615111.608512419,22,1,0,0,0,7.72,0.17,1.56,-2.0,-0.38,0.46,39.9375,72.5625,-9.0,0.74127197265625,-0.033447265625,-0.66558837890625,-0.0797119140625,-50.25,18.375,17.5625,9.72,0.55,1.09,moving,1
4.54,615111.623800423,22,1,0,0,0,5.72,1.75,1.75,-3.98,1.18,0.54,39.875,70.0625,-8.375,0.74542236328125,-0.0299072265625,-0.66131591796875,-0.078125,-50.25,18.375,17.5625,9.71,0.57,1.21,moving,1
4.54,615111.623800423,22,1,0,0,0,5.72,1.75,1.75,-3.98,1.18,0.54,39.875,70.0625,-8.375,0.74542236328125,-0.0299072265625,-0.66131591796875,-0.078125,-50.25,18.375,17.5625,9.71,0.57,1.21,moving,1
4.55,615111.638690275,22,1,0,0,0,3.97,0.23,0.75,-5.72,-0.33,-0.53,4.625,46.4375,-0.25,0.74810791015625,-0.029296875,-0.6583251953125,-0.0780029296875,-50.25,17.6875,16.375,9.7,0.57,1.28,moving,1
4.56,615111.638690275,22,1,0,0,0,3.29,0.15,-0.01,-6.4,-0.41,-1.37,-8.5625,36.3125,-0.5,0.7501220703125,-0.02960205078125,-0.65594482421875,-0.07855224609375,-50.25,17.6875,16.375,9.69,0.57,1.35,moving,1
4.57,615111.654160693,22,1,0,0,0,3.35,-0.04,0.81,-6.33,-0.63,-0.58,5.375,32.375,-5.0,0.751953125,-0.02874755859375,-0.65386962890625,-0.07867431640625,-50.25,17.6875,16.375,9.68,0.58,1.4,moving,1
4.58,615111.654160693,22,1,0,0,0,2.94,0.14,0.82,-6.73,-0.45,-0.62,8.5,28.1875,-8.0,0.7535400390625,-0.02752685546875,-0.652099609375,-0.07879638671875,-50.25,17.6875,16.375,9.67,0.6,1.45,moving,1
4.59,615111.669306242,22,1,0,0,0,2.91,-0.22,1.63,-6.76,-0.83,0.14,-4.4375,17.875,-8.0,0.7545166015625,-0.0272216796875,-0.65087890625,-0.07958984375,-50.25,17.6875,16.375,9.67,0.61,1.48,moving,1
4.6,615111.669306242,22,1,0,0,0,2.87,-0.44,1.79,-6.79,-1.06,0.28,-15.25,10.625,-5.75,0.7550048828125,-0.02783203125,-0.65008544921875,-0.08087158203125,-50.25,16.875,13.1875,9.67,0.61,1.5,moving,1
4.61,615111.699343229,22,1,0,0,0,2.91,-0.56,2.01,-6.75,-1.19,0.49,-13.375,8.5,-5.9375,0.75543212890625,-0.0283203125,-0.64947509765625,-0.08209228515625,-50.25,16.875,13.1875,9.66,0.62,1.51,moving,1
4.62,615111.699343229,22,1,0,0,0,3.02,-0.5,1.97,-6.64,-1.14,0.45,-8.0,2.0625,-8.125,0.7554931640625,-0.0283203125,-0.6492919921875,-0.08306884765625,-50.25,16.875,13.1875,9.66,0.63,1.52,moving,1
4.63,615111.714651131,22,1,0,0,0,4.73,-0.28,2.06,-4.93,-0.92,0.56,-9.375,-12.4375,-3.0,0.75469970703125,-0.02886962890625,-0.6500244140625,-0.08380126953125,-50.25,16.875,13.1875,9.66,0.64,1.5,moving,1
4.64,615111.714651131,22,1,0,0,0,6.78,-0.11,1.72,-2.89,-0.74,0.28,-15.25,-40.375,8.3125,0.75244140625,-0.0306396484375,-0.65252685546875,-0.083984375,-50.25,16.875,13.1875,9.68,0.62,1.43,moving,1
4.65,615111.728160938,22,1,0,0,0,10.07,-0.05,0.46,0.36,-0.62,-0.8,-22.6875,-97.25,23.875,0.74700927734375,-0.03424072265625,-0.65869140625,-0.08343505859375,-50.25,18.0,14.0,9.7,0.57,1.27,moving,1
4.66,615111.728160938,22,1,0,0,0,22.29,-0.65,0.11,12.54,-1.14,-0.83,-51.0625,-192.6875,45.75,0.73602294921875,-0.04156494140625,-0.67059326171875,-0.08282470703125,-50.25,18.0,14.0,9.74,0.48,0.95,moving,1
4.67,615111.760649666,22,1,0,0,0,26.23,-0.49,1.07,16.44,-0.83,0.51,-71.5,-232.1875,83.4375,0.72259521484375,-0.052734375,-0.68450927734375,-0.08074951171875,-50.25,18.0,14.0,9.78,0.33,0.56,moving,1
4.68,615111.760649666,22,1,0,0,0,25.03,2.16,0.85,15.23,1.94,0.46,18.0625,-96.75,65.25,0.71728515625,-0.05615234375,-0.6904296875,-0.07513427734375,-50.25,18.0,14.0,9.79,0.22,0.39,moving,1
4.69,615111.773019092,22,1,0,0,0,22.69,2.14,-0.77,12.89,1.88,-1.2,31.9375,20.875,-14.5625,0.7186279296875,-0.05316162109375,-0.68939208984375,-0.07421875,-50.25,18.0,14.0,9.79,0.25,0.43,moving,1
4.7,615111.773019092,22,1,0,0,0,15.93,-0.61,-0.43,6.14,-0.93,-0.95,63.875,59.0,-34.875,0.72222900390625,-0.046630859375,-0.68621826171875,-0.07281494140625,-49.5625,18.0,17.5,9.78,0.31,0.52,moving,1
4.71,615111.789152678,22,1,0,0,0,13.13,0.88,0.05,3.35,0.52,-0.61,102.125,85.875,-14.25,0.7276611328125,-0.038818359375,-0.68145751953125,-0.0679931640625,-49.5625,18.0,17.5,9.77,0.35,0.66,moving,1
4.72,615111.789152678,22,1,0,0,0,12.94,2.14,1.89,3.18,1.75,1.04,56.6875,105.4375,-18.9375,0.73394775390625,-0.033447265625,-0.6751708984375,-0.066162109375,-49.5625,18.0,17.5,9.76,0.39,0.84,moving,1
4.73,615111.819487354,22,1,0,0,0,8.93,1.21,1.59,-0.8,0.8,0.57,-10.75,105.25,-12.9375,0.739990234375,-0.03277587890625,-0.6683349609375,-0.06793212890625,-49.5625,18.0,17.5,9.74,0.41,1.02,moving,1
4.74,615111.819487354,22,1,0,0,0,7.69,0.21,0.72,-2.03,-0.21,-0.47,-9.375,106.5625,-6.375,0.74609375,-0.03240966796875,-0.66143798828125,-0.0692138671875,-49.5625,18.0,17.5,9.72,0.42,1.2,moving,1
4.75,615111.834135669,22,1,0,0,0,6.1,1.52,1.45,-3.6,1.09,0.08,13.4375,95.3125,-4.1875,0.7515869140625,-0.03070068359375,-0.6552734375,-0.0689697265625,-48.875,18.0,16.0,9.7,0.43,1.36,moving,1
4.76,615111.834135669,22,1,0,0,0,5.07,1.19,0.93,-4.6,0.76,-0.55,13.5,74.6875,4.125,0.75592041015625,-0.02960205078125,-0.65045166015625,-0.068115234375,-48.875,18.0,16.0,9.68,0.43,1.49,moving,1
4.77,615111.84781381,22,1,0,0,0,4.1,0.0,0.2,-5.56,-0.42,-1.39,11.8125,64.3125,6.5,0.7596435546875,-0.02880859375,-0.646240234375,-0.067138671875,-48.875,18.0,16.0,9.66,0.42,1.59,moving,1
4.78,615111.84781381,22,1,0,0,0,3.75,-0.05,0.71,-5.89,-0.47,-0.98,9.0,58.1875,5.0,0.762939453125,-0.02813720703125,-0.64239501953125,-0.06646728515625,-48.875,18.0,16.0,9.64,0.41,1.69,moving,1
4.79,615111.878925749,22,1,0,0,0,3.78,0.27,1.36,-5.85,-0.13,-0.41,-5.0625,46.75,0.75,0.76556396484375,-0.02825927734375,-0.6392822265625,-0.06683349609375,-48.875,18.0,16.0,9.63,0.41,1.77,moving,1
4.8,615111.878925749,22,1,0,0,0,3.79,0.18,2.06,-5.83,-0.22,0.24,-27.3125,25.625,-2.375,0.76690673828125,-0.02978515625,-0.63739013671875,-0.06854248046875,-50.25,17.6875,14.0,9.62,0.4,1.82,moving,1
4.81,615111.893671802,22,1,0,0,0,4.09,-0.3,2.04,-5.52,-0.7,0.22,-34.4375,1.5,-1.5,0.76690673828125,-0.031982421875,-0.6370849609375,-0.070556640625,-50.25,17.6875,14.0,9.62,0.4,1.82,moving,1
4.82,615111.893671802,22,1,0,0,0,4.21,-0.3,2.09,-5.41,-0.7,0.3,-21.875,-20.5625,-3.5,0.76568603515625,-0.03338623046875,-0.63836669921875,-0.07196044921875,-50.25,17.6875,14.0,9.63,0.39,1.79,moving,1
4.83,615111.908588672,22,1,0,0,0,4.65,-0.02,2.21,-4.98,-0.43,0.48,-9.1875,-42.1875,-8.0,0.76324462890625,-0.0338134765625,-0.64111328125,-0.07293701171875,-50.25,17.6875,14.0,9.64,0.41,1.72,moving,1
4.83,615111.908588672,22,1,0,0,0,4.65,-0.02,2.21,-4.98,-0.43,0.48,-9.1875,-42.1875,-8.0,0.76324462890625,-0.0338134765625,-0.64111328125,-0.07293701171875,-50.25,17.6875,14.0,9.64,0.41,1.72,moving,1
4.84,615111.923279387,22,1,0,0,0,6.18,0.09,1.99,-3.47,-0.32,0.35,-7.4375,-54.125,-9.625,0.7601318359375,-0.03411865234375,-0.64471435546875,-0.07379150390625,-50.25,17.6875,14.0,9.66,0.42,1.63,moving,1
4.85,615111.923279387,22,1,0,0,0,7.61,-0.14,1.56,-2.06,-0.57,0.02,-11.5625,-56.0625,-8.25,0.7568359375,-0.0347900390625,-0.6483154296875,-0.0748291015625,-51.0,16.875,11.6875,9.67,0.43,1.53,moving,1
4.86,615111.939132251,22,1,0,0,0,9.88,-0.36,1.06,0.19,-0.79,-0.36,-13.6875,-68.625,-0.4375,0.7529296875,-0.0361328125,-0.65277099609375,-0.075439453125,-51.0,16.875,11.6875,9.69,0.43,1.42,moving,1
4.87,615111.939132251,22,1,0,0,0,13.15,-0.5,1.24,3.43,-0.91,0.0,-21.5625,-112.25,14.3125,0.74652099609375,-0.03912353515625,-0.659912109375,-0.07537841796875,-51.0,16.875,11.6875,9.72,0.4,1.23,moving,1
4.88,615111.971567798,22,1,0,0,0,19.94,-1.18,2.53,10.19,-1.52,1.56,-35.0625,-153.8125,33.125,0.73773193359375,-0.0443115234375,-0.66949462890625,-0.07470703125,-51.0,16.875,11.6875,9.75,0.33,0.97,moving,1
4.89,615111.971567798,22,1,0,0,0,19.33,0.29,1.74,9.56,0.0,0.93,22.8125,-96.125,30.875,0.73236083984375,-0.0452880859375,-0.67572021484375,-0.07098388671875,-51.0,16.875,11.6875,9.76,0.29,0.81,moving,1
4.9,615111.983895313,22,1,0,0,0,19.18,0.19,0.33,9.41,-0.08,-0.49,19.5625,9.0625,5.6875,0.7330322265625,-0.0443115234375,-0.67523193359375,-0.06951904296875,-50.1875,18.375,13.5625,9.76,0.28,0.82,moving,1
4.91,615111.983895313,22,1,0,0,0,15.99,1.32,0.4,6.24,1.02,-0.54,24.75,73.0,-4.9375,0.73736572265625,-0.0419921875,-0.67071533203125,-0.068603515625,-50.1875,18.375,13.5625,9.75,0.29,0.94,moving,1
4.92,615111.998642261,22,1,0,0,0,14.3,1.13,-0.19,4.56,0.83,-1.27,35.75,81.0,-4.1875,0.7421875,-0.0389404296875,-0.66571044921875,-0.06707763671875,-50.1875,18.375,13.5625,9.74,0.3,1.08,moving,1
4.93,615111.998642261,22,1,0,0,0,13.8,1.13,0.51,4.07,0.81,-0.63,15.8125,37.125,0.0,0.744384765625,-0.0377197265625,-0.66339111328125,-0.0662841796875,-50.1875,18.375,13.5625,9.73,0.31,1.14,moving,1
4.94,615112.028570362,22,1,0,0,0,12.52,1.19,0.96,2.79,0.89,-0.21,-7.25,21.5625,6.125,0.74566650390625,-0.03839111328125,-0.66192626953125,-0.06640625,-50.1875,18.375,13.5625,9.73,0.3,1.18,moving,1
4.95,615112.028570362,22,1,0,0,0,10.8,0.32,1.3,1.08,0.01,0.02,4.25,52.8125,-3.0625,0.74871826171875,-0.03765869140625,-0.65850830078125,-0.0665283203125,-49.75,19.75,15.1875,9.71,0.3,1.27,moving,1
4.96,615112.042829354,22,1,0,0,0,8.72,1.12,2.37,-0.96,0.79,0.93,28.375,100.4375,-12.125,0.75445556640625,-0.03448486328125,-0.652099609375,-0.0660400390625,-49.75,19.75,15.1875,9.69,0.33,1.44,moving,1
4.97,615112.042829354,22,1,0,0,0,6.26,2.14,1.96,-3.4,1.79,0.36,8.5625,92.3125,-8.0,0.7596435546875,-0.032958984375,-0.6461181640625,-0.06634521484375,-49.75,19.75,15.1875,9.66,0.34,1.59,moving,1
4.98,615112.065249276,22,1,0,0,0,4.44,-0.13,0.44,-5.21,-0.48,-1.22,-18.9375,44.625,-3.375,0.7620849609375,-0.03375244140625,-0.64300537109375,-0.0677490234375,-49.75,19.75,15.1875,9.65,0.35,1.67,moving,1
4.99,615112.065249276,22,1,0,0,0,4.09,-0.41,0.29,-5.55,-0.77,-1.4,-17.375,18.125,-7.4375,0.76300048828125,-0.03436279296875,-0.6417236328125,-0.06927490234375,-49.75,19.75,15.1875,9.65,0.35,1.7,moving,1
5.0,615112.088790332,22,1,0,0,0,3.71,-0.23,0.63,-5.93,-0.62,-1.1,4.0625,21.125,-14.4375,0.76409912109375,-0.033203125,-0.640380859375,-0.070068359375,-50.5625,21.25,12.875,9.64,0.38,1.74,moving,1
5.01,615112.088790332,22,1,0,0,0,3.21,0.04,1.12,-6.41,-0.37,-0.66,14.3125,28.25,-21.375,0.765625,-0.03082275390625,-0.638671875,-0.07080078125,-50.5625,21.25,12.875,9.63,0.42,1.78,moving,1
5.02,615112.103512012,22,1,0,0,0,2.96,-0.11,1.45,-6.65,-0.57,-0.37,7.5625,24.75,-22.6875,0.766845703125,-0.0289306640625,-0.6370849609375,-0.07196044921875,-50.5625,21.25,12.875,9.62,0.46,1.82,moving,1
5.03,615112.103512012,22,1,0,0,0,3.1,-0.23,1.4,-6.51,-0.73,-0.45,0.8125,15.3125,-20.25,0.767578125,-0.02764892578125,-0.6361083984375,-0.07330322265625,-50.5625,21.25,12.875,9.61,0.49,1.85,moving,1
5.04,615112.118168303,22,1,0,0,0,3.26,-0.38,1.28,-6.35,-0.92,-0.58,5.375,7.5,-19.8125,0.76788330078125,-0.026123046875,-0.6357421875,-0.0743408203125,-50.5625,21.25,12.875,9.61,0.53,1.86,moving,1
5.05,615112.118168303,22,1,0,0,0,3.69,-0.4,1.25,-5.92,-0.96,-0.6,9.3125,-3.5,-18.25,0.767578125,-0.0245361328125,-0.63604736328125,-0.07501220703125,-51.5625,18.0,12.0625,9.61,0.56,1.86,moving,1
5.06,615112.15207085,22,1,0,0,0,5.22,-0.16,1.37,-4.38,-0.74,-0.45,0.0,-16.0,-8.1875,0.76666259765625,-0.024169921875,-0.63714599609375,-0.0755615234375,-51.5625,18.0,12.0625,9.61,0.58,1.83,moving,1
5.07,615112.15207085,22,1,0,0,0,6.37,0.06,1.26,-3.24,-0.5,-0.53,-18.0625,-23.6875,5.3125,0.76531982421875,-0.02581787109375,-0.63861083984375,-0.076171875,-51.5625,18.0,12.0625,9.62,0.56,1.79,moving,1
5.08,615112.164149952,22,1,0,0,0,7.84,0.03,1.01,-1.79,-0.49,-0.71,-34.5,-38.4375,15.3125,0.76318359375,-0.02923583984375,-0.640869140625,-0.07696533203125,-51.5625,18.0,12.0625,9.63,0.52,1.73,moving,1
5.08,615112.164149952,22,1,0,0,0,7.84,0.03,1.01,-1.79,-0.49,-0.71,-34.5,-38.4375,15.3125,0.76318359375,-0.02923583984375,-0.640869140625,-0.07696533203125,-51.5625,18.0,12.0625,9.63,0.52,1.73,moving,1
5.09,615112.179147347,22,1,0,0,0,12.81,-0.22,1.37,3.15,-0.7,-0.24,-51.5625,-69.4375,25.4375,0.75933837890625,-0.0345458984375,-0.64508056640625,-0.07794189453125,-51.5625,18.0,12.0625,9.66,0.47,1.62,moving,1
5.1,615112.179147347,22,1,0,0,0,16.0,-0.21,2.08,6.31,-0.59,0.63,-82.9375,-107.75,42.25,0.75323486328125,-0.04315185546875,-0.6514892578125,-0.07952880859375,-52.0,16.875,10.875,9.69,0.37,1.44,moving,1
5.11,615112.193990365,22,1,0,0,0,18.74,-0.8,3.41,9.02,-1.06,2.14,-80.375,-108.3125,57.625,0.74713134765625,-0.052490234375,-0.65777587890625,-0.07989501953125,-52.0,16.875,10.875,9.72,0.26,1.26,moving,1
5.12,615112.193990365,22,1,0,0,0,18.03,1.37,1.95,8.29,1.17,0.77,-19.625,-52.4375,30.1875,0.7442626953125,-0.05584716796875,-0.660888671875,-0.07879638671875,-52.0,16.875,10.875,9.73,0.2,1.17,moving,1
5.13,615112.20848833,22,1,0,0,0,17.4,0.71,0.95,7.67,0.5,-0.2,0.0625,-10.875,-6.625,0.74359130859375,-0.0555419921875,-0.66162109375,-0.07916259765625,-52.0,16.875,10.875,9.73,0.21,1.16,moving,1
5.14,615112.20848833,22,1,0,0,0,16.64,0.19,0.54,6.91,-0.04,-0.63,36.0625,7.5625,-5.875,0.744140625,-0.0528564453125,-0.66143798828125,-0.0775146484375,-52.0,16.875,10.875,9.73,0.23,1.17,moving,1
5.15,615112.23964515,22,1,0,0,0,16.04,0.83,0.32,6.3,0.58,-0.84,43.3125,-2.0625,-5.8125,0.74420166015625,-0.0496826171875,-0.661865234375,-0.07537841796875,-50.5625,19.5,15.5,9.73,0.25,1.16,moving,1
5.16,615112.23964515,22,1,0,0,0,14.22,0.93,2.08,4.49,0.68,0.91,3.75,-1.8125,0.0,0.74407958984375,-0.0494384765625,-0.6619873046875,-0.07513427734375,-50.5625,19.5,15.5,9.73,0.25,1.16,moving,1
5.17,615112.253857837,22,1,0,0,0,12.93,0.33,1.59,3.2,0.07,0.38,-16.0625,28.5,-1.0,0.74566650390625,-0.05029296875,-0.6600341796875,-0.07623291015625,-50.5625,19.5,15.5,9.72,0.25,1.21,moving,1
5.18,615112.253857837,22,1,0,0,0,11.22,-0.34,1.65,1.51,-0.63,0.32,13.3125,71.625,-15.0625,0.74969482421875,-0.04803466796875,-0.655517578125,-0.0767822265625,-50.5625,19.5,15.5,9.71,0.28,1.33,moving,1
5.19,615112.268355477,22,1,0,0,0,8.92,0.67,2.2,-0.76,0.35,0.72,30.375,86.4375,-20.4375,0.754638671875,-0.0443115234375,-0.650146484375,-0.07672119140625,-50.5625,19.5,15.5,9.68,0.32,1.47,moving,1
5.2,615112.268355477,22,1,0,0,0,6.43,0.27,1.4,-3.24,-0.06,-0.16,12.3125,56.75,-11.875,0.7578125,-0.04248046875,-0.64654541015625,-0.0770263671875,-48.75,19.0625,14.75,9.67,0.34,1.57,moving,1
5.21,615112.300615894,22,1,0,0,0,5.69,0.06,0.97,-3.97,-0.29,-0.65,4.6875,29.875,-6.4375,0.75946044921875,-0.04156494140625,-0.64459228515625,-0.07733154296875,-48.75,19.0625,14.75,9.66,0.35,1.62,moving,1
5.22,615112.300615894,22,1,0,0,0,5.08,0.22,0.9,-4.57,-0.15,-0.77,14.875,29.5,-6.8125,0.7611083984375,-0.0400390625,-0.64276123046875,-0.0770263671875,-48.75,19.0625,14.75,9.65,0.37,1.67,moving,1
5.23,615112.315472909,22,1,0,0,0,3.63,0.46,1.44,-6.0,0.06,-0.29,19.1875,38.9375,-10.6875,0.7633056640625,-0.037841796875,-0.64031982421875,-0.0767822265625,-48.75,19.0625,14.75,9.64,0.39,1.73,moving,1
5.24,615112.315472909,22,1,0,0,0,3.41,0.25,1.28,-6.21,-0.16,-0.51,13.1875,38.9375,-12.5625,0.76544189453125,-0.0360107421875,-0.63787841796875,-0.0770263671875,-48.75,19.0625,14.75,9.63,0.42,1.8,moving,1
5.25,615112.330119231,22,1,0,0,0,3.26,-0.03,1.47,-6.36,-0.48,-0.36,14.5,25.9375,-11.8125,0.766845703125,-0.03424072265625,-0.63629150390625,-0.07708740234375,-50.1875,19.5,12.5,9.62,0.44,1.84,moving,1
5.26,615112.330119231,22,1,0,0,0,3.18,0.05,1.55,-6.43,-0.41,-0.3,24.25,9.25,-12.5625,0.767333984375,-0.0318603515625,-0.6358642578125,-0.07659912109375,-50.1875,19.5,12.5,9.61,0.47,1.85,moving,1
5.27,615112.359276132,22,1,0,0,0,4.11,0.34,2.08,-5.5,-0.16,0.24,25.75,-11.1875,-13.5625,0.7667236328125,-0.0294189453125,-0.63677978515625,-0.0760498046875,-50.1875,19.5,12.5,9.61,0.5,1.83,moving,1
5.28,615112.359276132,22,1,0,0,0,4.82,0.33,2.31,-4.8,-0.18,0.52,7.3125,-29.5,-9.8125,0.7650146484375,-0.02862548828125,-0.63885498046875,-0.07623291015625,-50.1875,19.5,12.5,9.62,0.52,1.78,moving,1
5.29,615112.373641325,22,1,0,0,0,5.42,0.05,2.4,-4.21,-0.47,0.67,-17.0625,-30.375,-4.25,0.76324462890625,-0.02972412109375,-0.6407470703125,-0.077392578125,-50.1875,19.5,12.5,9.63,0.52,1.73,moving,1
5.3,615112.373641325,22,1,0,0,0,6.03,-0.23,2.29,-3.6,-0.75,0.58,-29.9375,-16.0625,-0.3125,0.76226806640625,-0.03179931640625,-0.6416015625,-0.07904052734375,-51.0,16.875,10.875,9.64,0.51,1.71,moving,1
5.31,615112.389372811,22,1,0,0,0,7.46,-0.35,1.5,-2.18,-0.85,-0.17,-35.8125,-16.6875,3.25,0.76123046875,-0.03448486328125,-0.6424560546875,-0.08074951171875,-51.0,16.875,10.875,9.64,0.5,1.68,moving,1
5.32,615112.389372811,22,1,0,0,0,8.93,-0.62,0.96,-0.72,-1.09,-0.65,-42.25,-41.75,8.3125,0.75885009765625,-0.0380859375,-0.6448974609375,-0.08245849609375,-51.0,16.875,10.875,9.66,0.47,1.62,moving,1
5.33,615112.403340666,22,1,0,0,0,11.15,-0.79,0.58,1.47,-1.23,-0.91,-49.625,-76.3125,16.375,0.75445556640625,-0.0428466796875,-0.6495361328125,-0.0838623046875,-51.0,16.875,10.875,9.68,0.43,1.49,moving,1
5.33,615112.403340666,22,1,0,0,0,11.15,-0.79,0.58,1.47,-1.23,-0.91,-49.625,-76.3125,16.375,0.75445556640625,-0.0428466796875,-0.6495361328125,-0.0838623046875,-51.0,16.875,10.875,9.68,0.43,1.49,moving,1
5.34,615112.419066781,22,1,0,0,0,17.87,-1.13,1.13,8.16,-1.51,-0.18,-51.6875,-102.875,27.3125,0.74859619140625,-0.04852294921875,-0.65576171875,-0.08465576171875,-51.0,16.875,10.875,9.7,0.37,1.32,moving,1
5.35,615112.419066781,22,1,0,0,0,18.78,1.11,0.46,9.06,0.79,-0.73,1.0,-75.875,31.875,0.7445068359375,-0.05084228515625,-0.66058349609375,-0.0821533203125,-49.75,17.6875,12.5,9.72,0.32,1.19,moving,1
5.36,615112.449183318,22,1,0,0,0,19.52,2.02,0.68,9.79,1.73,-0.45,20.375,-31.1875,17.875,0.742919921875,-0.05078125,-0.66265869140625,-0.07965087890625,-49.75,17.6875,12.5,9.73,0.29,1.14,moving,1
5.37,615112.449183318,22,1,0,0,0,19.39,2.17,0.88,9.66,1.88,-0.26,19.625,3.3125,3.3125,0.74322509765625,-0.0496826171875,-0.66259765625,-0.07830810546875,-49.75,17.6875,12.5,9.73,0.29,1.14,moving,1
5.38,615112.463774911,22,1,0,0,0,17.08,1.27,0.17,7.35,0.97,-1.0,25.6875,17.125,0.125,0.74432373046875,-0.04791259765625,-0.66162109375,-0.076904296875,-49.75,17.6875,12.5,9.73,0.29,1.17,moving,1
5.39,615112.463774911,22,1,0,0,0,14.98,0.54,1.06,5.25,0.23,-0.14,21.25,18.4375,-1.375,0.7454833984375,-0.04632568359375,-0.66058349609375,-0.07586669921875,-49.75,17.6875,12.5,9.72,0.3,1.2,moving,1
5.4,615112.479053272,22,1,0,0,0,13.33,0.89,1.82,3.61,0.58,0.55,8.5625,39.5625,-2.375,0.74774169921875,-0.04534912109375,-0.6580810546875,-0.07568359375,-50.5625,18.6875,15.1875,9.71,0.31,1.27,moving,1
5.41,615112.479053272,22,1,0,0,0,10.13,0.9,1.56,0.42,0.56,0.18,12.3125,59.6875,-12.3125,0.75115966796875,-0.04345703125,-0.654296875,-0.07598876953125,-50.5625,18.6875,15.1875,9.7,0.33,1.37,moving,1
5.42,615112.509614795,22,1,0,0,0,8.52,0.7,2.27,-1.15,0.32,0.77,34.75,77.5,-24.8125,0.7554931640625,-0.03924560546875,-0.6495361328125,-0.075927734375,-50.5625,18.6875,15.1875,9.68,0.38,1.5,moving,1
5.43,615112.509614795,22,1,0,0,0,6.28,2.11,2.14,-3.37,1.67,0.5,32.5625,85.3125,-26.6875,0.76025390625,-0.0350341796875,-0.64422607421875,-0.076171875,-50.5625,18.6875,15.1875,9.65,0.43,1.64,moving,1
5.44,615112.523499113,22,1,0,0,0,5.33,1.38,1.76,-4.29,0.91,0.01,5.3125,64.3125,-17.5625,0.76373291015625,-0.03326416015625,-0.6400146484375,-0.07720947265625,-50.5625,18.6875,15.1875,9.63,0.47,1.75,moving,1
5.45,615112.523499113,22,1,0,0,0,3.87,0.11,0.93,-5.74,-0.37,-0.89,-11.875,45.625,-12.3125,0.76617431640625,-0.0330810546875,-0.63690185546875,-0.078857421875,-51.0,18.6875,13.5625,9.62,0.48,1.82,moving,1
5.46,615112.538067595,22,1,0,0,0,3.08,-0.26,0.8,-6.52,-0.76,-1.09,-6.625,42.25,-10.6875,0.7684326171875,-0.0325927734375,-0.63409423828125,-0.08001708984375,-51.0,18.6875,13.5625,9.6,0.5,1.9,moving,1
5.47,615112.538067595,22,1,0,0,0,2.8,-0.25,1.31,-6.79,-0.77,-0.65,5.5625,39.625,-12.125,0.77056884765625,-0.03131103515625,-0.6314697265625,-0.08062744140625,-51.0,18.6875,13.5625,9.59,0.52,1.96,moving,1
5.48,615112.569357675,22,1,0,0,0,2.68,-0.42,2.13,-6.89,-0.97,0.1,9.3125,34.8125,-13.5625,0.77239990234375,-0.0296630859375,-0.6292724609375,-0.0811767578125,-51.0,18.6875,13.5625,9.57,0.55,2.02,moving,1
5.49,615112.569357675,22,1,0,0,0,2.95,-0.49,2.37,-6.61,-1.06,0.3,5.75,25.75,-12.5625,0.77374267578125,-0.02838134765625,-0.6275634765625,-0.08172607421875,-51.0,18.6875,13.5625,9.56,0.57,2.06,moving,1
5.5,615112.583914682,22,1,0,0,0,2.94,-0.7,2.28,-6.61,-1.3,0.18,0.75,22.9375,-10.8125,0.77490234375,-0.027587890625,-0.62603759765625,-0.08251953125,-52.0,16.875,9.75,9.55,0.59,2.1,moving,1
5.51,615112.583914682,22,1,0,0,0,3.19,-0.77,2.32,-6.35,-1.37,0.19,-0.8125,16.0,-8.6875,0.7757568359375,-0.02703857421875,-0.625,-0.08319091796875,-52.0,16.875,9.75,9.55,0.6,2.13,moving,1
5.52,615112.598666268,22,1,0,0,0,3.89,-0.31,2.26,-5.65,-0.92,0.13,-4.0,0.0625,-3.3125,0.77569580078125,-0.02716064453125,-0.62493896484375,-0.0836181640625,-52.0,16.875,9.75,9.55,0.61,2.13,moving,1
5.53,615112.598666268,22,1,0,0,0,5.01,-0.16,2.01,-4.54,-0.76,-0.07,-11.875,-25.3125,4.25,0.7742919921875,-0.02838134765625,-0.6265869140625,-0.08392333984375,-52.0,16.875,9.75,9.56,0.6,2.09,moving,1
5.54,615112.631136402,22,1,0,0,0,6.9,-0.19,1.46,-2.67,-0.76,-0.53,-24.375,-58.1875,11.0,0.77117919921875,-0.03106689453125,-0.6302490234375,-0.0843505859375,-52.0,16.875,9.75,9.58,0.57,1.99,moving,1
5.55,615112.631136402,22,1,0,0,0,10.22,-0.37,0.56,0.6,-0.89,-1.25,-40.125,-104.9375,21.25,0.765380859375,-0.03570556640625,-0.636962890625,-0.0848388671875,-51.375,17.6875,10.25,9.62,0.52,1.82,moving,1
5.56,615112.643309091,22,1,0,0,0,19.9,-0.65,2.38,10.23,-1.08,0.83,-71.875,-165.0,42.4375,0.7562255859375,-0.0440673828125,-0.647216796875,-0.08544921875,-51.375,17.6875,10.25,9.67,0.43,1.55,moving,1
5.57,615112.643309091,22,1,0,0,0,21.92,1.08,1.08,12.21,0.79,-0.21,-64.75,-152.5625,70.3125,0.747802734375,-0.053466796875,-0.65643310546875,-0.0838623046875,-51.375,17.6875,10.25,9.71,0.29,1.29,moving,1
5.58,615112.658284188,22,1,0,0,0,22.31,3.39,2.09,12.58,3.18,0.89,3.875,-60.0625,45.75,0.74468994140625,-0.0562744140625,-0.66015625,-0.08038330078125,-51.375,17.6875,10.25,9.73,0.21,1.19,moving,1
5.59,615112.658284188,22,1,0,0,0,20.26,1.56,1.26,10.53,1.32,0.07,13.9375,-6.4375,-6.5625,0.74432373046875,-0.0550537109375,-0.66070556640625,-0.0799560546875,-51.375,17.6875,10.25,9.73,0.23,1.18,moving,1
5.59,615112.673587737,22,1,0,0,0,20.26,1.56,1.26,10.53,1.32,0.07,13.9375,-6.4375,-6.5625,0.74432373046875,-0.0550537109375,-0.66070556640625,-0.0799560546875,-51.375,17.6875,10.25,9.73,0.23,1.18,moving,1
5.6,615112.673587737,22,1,0,0,0,17.72,0.93,-0.05,7.99,0.66,-1.27,43.75,21.0625,-16.0625,0.74566650390625,-0.05108642578125,-0.65972900390625,-0.07861328125,-50.25,18.6875,14.5,9.72,0.26,1.21,moving,1
5.61,615112.704621347,22,1,0,0,0,17.51,1.93,2.18,7.79,1.63,0.9,47.375,37.1875,-14.3125,0.7479248046875,-0.04693603515625,-0.65765380859375,-0.07696533203125,-50.25,18.6875,14.5,9.71,0.3,1.28,moving,1
5.62,615112.704621347,22,1,0,0,0,14.93,1.02,1.34,5.22,0.71,-0.04,-24.0,61.5,-5.1875,0.75128173828125,-0.04779052734375,-0.65350341796875,-0.07891845703125,-50.25,18.6875,14.5,9.7,0.3,1.38,moving,1
5.63,615112.719381804,22,1,0,0,0,12.95,0.23,2.14,3.26,-0.07,0.65,-44.3125,61.5625,-5.125,0.75457763671875,-0.04998779296875,-0.649169921875,-0.08209228515625,-50.25,18.6875,14.5,9.68,0.3,1.49,moving,1
5.64,615112.719381804,22,1,0,0,0,10.59,1.47,4.07,0.92,1.13,2.43,3.875,89.0,-21.8125,0.75946044921875,-0.0478515625,-0.64337158203125,-0.08367919921875,-50.25,18.6875,14.5,9.66,0.34,1.64,moving,1
5.65,615112.73430136,22,1,0,0,0,8.49,1.43,2.67,-1.13,1.05,0.87,7.25,95.1875,-19.4375,0.7646484375,-0.04559326171875,-0.63720703125,-0.0849609375,-51.25,19.0625,14.0,9.63,0.37,1.8,moving,1
5.66,615112.73430136,22,1,0,0,0,5.28,-0.31,0.3,-4.32,-0.7,-1.64,-5.0625,83.25,-10.125,0.7691650390625,-0.04473876953125,-0.63165283203125,-0.08624267578125,-51.25,19.0625,14.0,9.6,0.39,1.94,moving,1
5.67,615112.750103199,22,1,0,0,0,4.52,-0.72,0.74,-5.04,-1.13,-1.31,3.375,70.25,-6.25,0.77301025390625,-0.04364013671875,-0.626953125,-0.08673095703125,-51.25,19.0625,14.0,9.57,0.4,2.05,moving,1
5.68,615112.750103199,22,1,0,0,0,3.32,-0.36,0.64,-6.22,-0.78,-1.53,17.5,70.8125,-7.3125,0.77685546875,-0.04150390625,-0.622314453125,-0.0865478515625,-51.25,19.0625,14.0,9.55,0.42,2.17,moving,1
5.69,615112.78020643,22,1,0,0,0,2.78,-0.05,1.84,-6.74,-0.51,-0.42,21.6875,59.5625,-13.0,0.780029296875,-0.03887939453125,-0.61846923828125,-0.08648681640625,-51.25,19.0625,14.0,9.52,0.45,2.27,moving,1
5.7,615112.78020643,22,1,0,0,0,2.77,-0.19,2.77,-6.73,-0.68,0.42,18.875,47.9375,-18.625,0.78253173828125,-0.0362548828125,-0.61541748046875,-0.08685302734375,-51.25,16.1875,10.5,9.5,0.49,2.35,moving,1
5.71,615112.792789153,22,1,0,0,0,2.63,-0.22,2.81,-6.85,-0.76,0.4,25.1875,34.0,-21.125,0.7843017578125,-0.0330810546875,-0.61334228515625,-0.0870361328125,-51.25,16.1875,10.5,9.49,0.53,2.4,moving,1
5.72,615112.792789153,22,1,0,0,0,2.48,-0.12,2.31,-6.99,-0.71,-0.12,35.5625,24.75,-20.875,0.78558349609375,-0.02935791015625,-0.61199951171875,-0.086669921875,-51.25,16.1875,10.5,9.47,0.58,2.44,moving,1
5.73,615112.807921924,22,1,0,0,0,2.7,-0.03,2.07,-6.77,-0.66,-0.37,34.9375,5.3125,-19.6875,0.7857666015625,-0.02587890625,-0.6119384765625,-0.086181640625,-51.25,16.1875,10.5,9.47,0.63,2.44,moving,1
5.74,615112.807921924,22,1,0,0,0,3.42,-0.05,1.82,-6.05,-0.71,-0.58,20.0,-22.5625,-13.3125,0.7845458984375,-0.02398681640625,-0.6136474609375,-0.0859375,-51.25,16.1875,10.5,9.48,0.66,2.41,moving,1
5.75,615112.838388803,22,1,0,0,0,3.96,0.15,1.9,-5.53,-0.52,-0.43,3.25,-42.1875,-4.25,0.7822265625,-0.0238037109375,-0.61651611328125,-0.08599853515625,-51.6875,16.875,9.875,9.49,0.67,2.34,stop,1
5.76,615112.838388803,22,1,0,0,0,4.45,0.48,2.35,-5.06,-0.18,0.08,-6.5,-42.1875,1.25,0.77996826171875,-0.024658203125,-0.619384765625,-0.086181640625,-51.6875,16.875,9.875,9.51,0.66,2.27,stop,1
5.77,615112.85343344,22,1,0,0,0,5.2,0.5,2.56,-4.32,-0.15,0.34,-17.3125,-29.375,5.125,0.77838134765625,-0.02630615234375,-0.6212158203125,-0.086669921875,-51.6875,16.875,9.875,9.52,0.65,2.22,stop,1
5.78,615112.85343344,22,1,0,0,0,5.97,0.33,2.34,-3.56,-0.28,0.15,-32.5625,-26.125,10.5625,0.7769775390625,-0.029296875,-0.6226806640625,-0.087646484375,-51.6875,16.875,9.875,9.53,0.62,2.18,stop,1
5.79,615112.868788827,22,1,0,0,0,6.97,-0.03,1.96,-2.58,-0.61,-0.15,-44.125,-42.9375,18.0,0.774658203125,-0.03363037109375,-0.62518310546875,-0.0887451171875,-51.6875,16.875,9.875,9.55,0.57,2.11,stop,1
5.8,615112.868788827,22,1,0,0,0,8.53,-0.44,1.62,-1.04,-0.95,-0.37,-44.875,-71.6875,25.75,0.77081298828125,-0.03863525390625,-0.62957763671875,-0.0892333984375,-51.6875,15.5,10.25,9.58,0.51,2.0,stop,1
5.81,615112.898472502,22,1,0,0,0,13.41,-0.81,1.06,3.79,-1.26,-0.78,-40.875,-97.4375,32.5625,0.76556396484375,-0.04388427734375,-0.63568115234375,-0.08892822265625,-51.6875,15.5,10.25,9.62,0.44,1.84,stop,1
5.82,615112.898472502,22,1,0,0,0,16.96,-0.61,0.01,7.3,-0.98,-1.62,-44.25,-121.75,39.5625,0.7589111328125,-0.04998779296875,-0.64324951171875,-0.0882568359375,-51.6875,15.5,10.25,9.66,0.36,1.64,stop,1
5.83,615112.914174203,22,1,0,0,0,20.77,-0.3,0.65,11.07,-0.58,-0.75,-42.1875,-139.8125,45.8125,0.75115966796875,-0.05645751953125,-0.65191650390625,-0.08697509765625,-51.6875,15.5,10.25,9.7,0.28,1.4,stop,1
5.84,615112.914174203,22,1,0,0,0,23.09,3.45,2.31,13.36,3.23,1.09,5.3125,-109.9375,34.6875,0.74517822265625,-0.05889892578125,-0.65899658203125,-0.0838623046875,-51.6875,15.5,10.25,9.72,0.22,1.22,stop,1
5.85,615112.928987558,22,1,0,0,0,20.86,2.54,2.18,11.12,2.33,1.05,14.0,-52.3125,8.875,0.7423095703125,-0.05889892578125,-0.66241455078125,-0.08221435546875,-51.25,18.6875,13.5625,9.73,0.21,1.13,stop,1
5.85,615112.928987558,22,1,0,0,0,20.86,2.54,2.18,11.12,2.33,1.05,14.0,-52.3125,8.875,0.7423095703125,-0.05889892578125,-0.66241455078125,-0.08221435546875,-51.25,18.6875,13.5625,9.73,0.21,1.13,stop,1
5.86,615112.943276051,22,1,0,0,0,17.67,1.29,1.85,7.93,1.06,0.71,29.3125,4.375,-11.625,0.74261474609375,-0.0562744140625,-0.66241455078125,-0.081298828125,-51.25,18.6875,13.5625,9.73,0.23,1.13,stop,1
5.87,615112.943276051,22,1,0,0,0,13.82,1.04,1.13,4.1,0.75,-0.11,50.4375,64.1875,-24.375,0.74639892578125,-0.0511474609375,-0.65869140625,-0.08026123046875,-51.25,18.6875,13.5625,9.72,0.28,1.24,stop,1
5.88,615112.957325326,22,1,0,0,0,11.15,1.76,3.03,1.44,1.42,1.65,33.875,83.3125,-23.0625,0.7510986328125,-0.04705810546875,-0.653564453125,-0.0802001953125,-51.25,18.6875,13.5625,9.7,0.33,1.38,stop,1
5.89,615112.957325326,22,1,0,0,0,10.21,2.16,3.98,0.53,1.79,2.46,-0.5,82.25,-21.9375,0.755615234375,-0.04522705078125,-0.64825439453125,-0.08197021484375,-51.25,18.6875,13.5625,9.68,0.37,1.52,stop,1
5.9,615112.989163176,22,1,0,0,0,7.93,1.8,3.0,-1.72,1.4,1.34,-36.25,80.5,-18.5625,0.7598876953125,-0.04595947265625,-0.64276123046875,-0.0855712890625,-49.75,17.25,14.0,9.65,0.39,1.66,stop,1
5.91,615112.989163176,22,1,0,0,0,5.39,0.25,1.08,-4.24,-0.15,-0.7,-33.625,73.375,-16.8125,0.76373291015625,-0.04669189453125,-0.6376953125,-0.0888671875,-49.75,17.25,14.0,9.63,0.41,1.78,stop,1
5.92,615113.002661711,22,1,0,0,0,4.39,0.07,1.25,-5.21,-0.36,-0.66,-13.8125,77.625,-19.4375,0.767822265625,-0.0458984375,-0.6324462890625,-0.09124755859375,-49.75,17.25,14.0,9.6,0.44,1.92,stop,1
5.93,615113.002661711,22,1,0,0,0,3.54,-0.11,0.51,-6.02,-0.58,-1.54,0.875,81.6875,-18.125,0.772216796875,-0.044189453125,-0.62701416015625,-0.0927734375,-49.75,17.25,14.0,9.57,0.47,2.05,stop,1
5.94,615113.018376921,22,1,0,0,0,3.19,-0.29,0.85,-6.35,-0.79,-1.31,9.5,70.0,-13.9375,0.77593994140625,-0.042236328125,-0.6224365234375,-0.09344482421875,-49.75,17.25,14.0,9.54,0.49,2.17,stop,1
5.95,615113.018376921,22,1,0,0,0,4.81,-0.58,1.9,-4.71,-1.1,-0.34,12.625,45.5625,-11.0625,0.77838134765625,-0.0404052734375,-0.61944580078125,-0.09368896484375,-51.1875,18.0,11.75,9.53,0.52,2.24,stop,1
5.96,615113.050314137,22,1,0,0,0,6.11,-0.16,2.74,-3.4,-0.69,0.48,0.5,5.6875,-6.75,0.77862548828125,-0.03997802734375,-0.61907958984375,-0.09417724609375,-51.1875,18.0,11.75,9.52,0.53,2.25,stop,1
5.97,615113.050314137,22,1,0,0,0,6.93,0.06,2.73,-2.6,-0.45,0.52,-27.75,-28.375,0.9375,0.7769775390625,-0.04217529296875,-0.62078857421875,-0.09552001953125,-51.1875,18.0,11.75,9.53,0.52,2.21,stop,1
5.98,615113.063098845,22,1,0,0,0,8.02,-0.11,2.6,-1.53,-0.59,0.47,-49.5,-49.9375,7.625,0.774169921875,-0.04632568359375,-0.62371826171875,-0.09747314453125,-51.1875,18.0,11.75,9.55,0.48,2.13,stop,1
5.99,615113.063098845,22,1,0,0,0,9.49,-0.13,1.34,-0.09,-0.58,-0.69,-53.125,-58.5,11.8125,0.7708740234375,-0.05108642578125,-0.62713623046875,-0.09930419921875,-51.1875,18.0,11.75,9.58,0.44,2.04,stop,1
6.0,615113.078919768,22,1,0,0,0,10.44,0.21,1.3,0.84,-0.2,-0.62,-41.875,-67.875,12.5,0.76702880859375,-0.05517578125,-0.63128662109375,-0.1004638671875,-52.25,18.0,10.5625,9.6,0.41,1.93,stop,1
6.01,615113.078919768,22,1,0,0,0,11.3,0.63,1.68,1.67,0.25,-0.12,-29.375,-76.1875,10.875,0.7628173828125,-0.058349609375,-0.63604736328125,-0.10101318359375,-52.25,18.0,10.5625,9.63,0.38,1.8,stop,1
6.02,615113.108621672,22,1,0,0,0,12.89,0.95,1.86,3.24,0.59,0.18,-19.0,-73.0,9.625,0.75872802734375,-0.06085205078125,-0.640625,-0.10101318359375,-52.25,18.0,10.5625,9.65,0.36,1.68,stop,1
6.03,615113.108621672,22,1,0,0,0,13.22,1.01,1.63,3.54,0.65,0.05,-2.1875,-63.6875,7.0,0.75518798828125,-0.0618896484375,-0.644775390625,-0.100341796875,-52.25,18.0,10.5625,9.67,0.35,1.57,stop,1
6.04,615113.123215951,22,1,0,0,0,12.84,0.77,1.74,3.15,0.41,0.25,22.875,-50.4375,1.0,0.75250244140625,-0.0609130859375,-0.6483154296875,-0.0987548828125,-52.25,18.0,10.5625,9.68,0.35,1.49,stop,1
6.05,615113.123215951,22,1,0,0,0,12.12,0.73,1.75,2.43,0.36,0.29,44.25,-15.625,-2.375,0.7518310546875,-0.0579833984375,-0.64971923828125,-0.0963134765625,-51.875,16.875,13.6875,9.68,0.37,1.46,stop,1
6.06,615113.154415496,22,1,0,0,0,10.82,1.44,2.35,1.14,1.04,0.86,35.5625,20.8125,-13.625,0.7530517578125,-0.0546875,-0.648681640625,-0.09527587890625,-51.875,16.875,13.6875,9.68,0.4,1.49,stop,1
6.07,615113.154415496,22,1,0,0,0,9.09,0.58,1.31,-0.57,0.16,-0.25,-4.75,42.25,-12.0,0.75537109375,-0.05401611328125,-0.64593505859375,-0.0965576171875,-51.875,16.875,13.6875,9.67,0.42,1.56,stop,1
6.08,615113.168901783,22,1,0,0,0,9.51,0.48,1.38,-0.14,0.05,-0.22,-11.125,27.875,-7.6875,0.75677490234375,-0.0540771484375,-0.64404296875,-0.09783935546875,-51.875,16.875,13.6875,9.66,0.43,1.61,stop,1
6.09,615113.168901783,22,1,0,0,0,8.93,0.64,2.34,-0.72,0.19,0.71,5.9375,13.0625,-9.875,0.75750732421875,-0.052978515625,-0.64324951171875,-0.09820556640625,-51.875,16.875,13.6875,9.65,0.45,1.63,stop,1
6.1,615113.182652271,22,1,0,0,0,8.16,0.74,1.76,-1.48,0.27,0.13,10.9375,-2.0625,-9.4375,0.75732421875,-0.0517578125,-0.64349365234375,-0.09820556640625,-50.875,16.1875,13.25,9.65,0.47,1.63,stop,1
6.11,615113.182652271,22,1,0,0,0,8.26,0.42,1.85,-1.39,-0.05,0.24,-2.6875,-11.5625,-4.5625,0.75665283203125,-0.0517578125,-0.644287109375,-0.0986328125,-50.875,16.1875,13.25,9.66,0.47,1.61,stop,1
6.12,615113.198083586,22,1,0,0,0,8.19,0.24,1.74,-1.46,-0.23,0.15,-11.0,-15.4375,-2.9375,0.75567626953125,-0.052490234375,-0.64520263671875,-0.099365234375,-50.875,16.1875,13.25,9.66,0.47,1.58,stop,1
6.12,615113.198083586,22,1,0,0,0,8.19,0.24,1.74,-1.46,-0.23,0.15,-11.0,-15.4375,-2.9375,0.75567626953125,-0.052490234375,-0.64520263671875,-0.099365234375,-50.875,16.1875,13.25,9.66,0.47,1.58,stop,1
6.13,615113.213255055,22,1,0,0,0,8.17,0.21,1.47,-1.48,-0.26,-0.09,-11.5625,-7.375,-2.875,0.75518798828125,-0.0531005859375,-0.6456298828125,-0.10015869140625,-50.875,16.1875,13.25,9.66,0.48,1.57,stop,1
6.14,615113.213255055,22,1,0,0,0,7.95,0.2,1.16,-1.7,-0.28,-0.41,-9.5625,2.75,-3.0,0.75531005859375,-0.05352783203125,-0.64532470703125,-0.1009521484375,-50.875,16.1875,13.25,9.66,0.48,1.58,stop,1
6.15,615113.228352467,22,1,0,0,0,8.12,0.2,0.99,-1.54,-0.27,-0.58,-6.5625,-3.6875,-1.75,0.75506591796875,-0.05389404296875,-0.6455078125,-0.10137939453125,-51.1875,16.875,13.6875,9.66,0.48,1.57,stop,1
6.16,615113.228352467,22,1,0,0,0,9.11,0.22,1.24,-0.55,-0.25,-0.3,-4.8125,-15.5625,-0.125,0.754150390625,-0.05438232421875,-0.646484375,-0.10162353515625,-51.1875,16.875,13.6875,9.67,0.48,1.55,stop,1
6.17,615113.258008839,22,1,0,0,0,9.43,0.27,1.28,-0.23,-0.2,-0.23,-5.5,-20.125,2.375,0.75299072265625,-0.0550537109375,-0.64776611328125,-0.1016845703125,-51.1875,16.875,13.6875,9.67,0.47,1.51,stop,1
6.18,615113.258008839,22,1,0,0,0,9.86,0.33,1.31,0.18,-0.13,-0.17,-6.5,-18.0,3.6875,0.75201416015625,-0.05584716796875,-0.64886474609375,-0.1016845703125,-51.1875,16.875,13.6875,9.68,0.47,1.48,stop,1
6.19,615113.274198943,22,1,0,0,0,10.09,0.41,1.21,0.41,-0.04,-0.24,-6.25,-18.375,4.3125,0.7509765625,-0.056640625,-0.64996337890625,-0.1016845703125,-51.1875,16.875,13.6875,9.68,0.46,1.45,stop,1
6.2,615113.274198943,22,1,0,0,0,10.71,0.63,1.65,1.02,0.18,0.23,-2.8125,-20.5625,3.75,0.74981689453125,-0.0572509765625,-0.65130615234375,-0.10150146484375,-51.1875,17.6875,14.5,9.69,0.45,1.42,stop,1
6.21,615113.287895517,22,1,0,0,0,10.64,0.79,1.74,0.94,0.34,0.34,1.625,-11.6875,2.3125,0.74920654296875,-0.057373046875,-0.65203857421875,-0.1011962890625,-51.1875,17.6875,14.5,9.69,0.45,1.4,stop,1
6.22,615113.287895517,22,1,0,0,0,10.37,0.82,1.73,0.67,0.37,0.32,2.3125,3.625,0.3125,0.7493896484375,-0.05718994140625,-0.65185546875,-0.10107421875,-51.1875,17.6875,14.5,9.69,0.45,1.4,stop,1
6.23,615113.318705698,22,1,0,0,0,9.98,0.64,1.55,0.29,0.19,0.12,-1.75,7.25,-0.1875,0.74981689453125,-0.0572509765625,-0.6513671875,-0.10125732421875,-51.1875,17.6875,14.5,9.69,0.45,1.42,stop,1
6.24,615113.318705698,22,1,0,0,0,9.85,0.54,1.7,0.16,0.08,0.28,-1.125,1.4375,-0.0625,0.7498779296875,-0.05731201171875,-0.6512451171875,-0.101318359375,-51.1875,17.6875,14.5,9.69,0.45,1.42,stop,1
6.25,615113.333590911,22,1,0,0,0,9.66,0.54,1.72,-0.02,0.08,0.3,2.6875,2.0,-0.5625,0.75006103515625,-0.05706787109375,-0.651123046875,-0.1011962890625,-51.1875,16.5625,14.5,9.69,0.45,1.42,stop,1
6.26,615113.333590911,22,1,0,0,0,9.4,0.54,1.66,-0.28,0.09,0.22,5.5625,4.4375,-0.6875,0.75030517578125,-0.056640625,-0.65087890625,-0.1009521484375,-51.1875,16.5625,14.5,9.69,0.45,1.43,stop,1
6.27,615113.348392709,22,1,0,0,0,9.15,0.56,1.61,-0.53,0.1,0.17,7.125,3.875,-0.625,0.75054931640625,-0.05609130859375,-0.65069580078125,-0.1005859375,-51.1875,16.5625,14.5,9.68,0.45,1.44,stop,1
6.28,615113.348392709,22,1,0,0,0,9.2,0.6,1.57,-0.48,0.14,0.12,6.75,-0.25,-0.375,0.7506103515625,-0.05560302734375,-0.6507568359375,-0.1002197265625,-51.1875,16.5625,14.5,9.68,0.46,1.44,stop,1
6.29,615113.380680307,22,1,0,0,0,9.26,0.56,1.51,-0.42,0.09,0.08,4.5,-4.3125,0.5,0.7503662109375,-0.05535888671875,-0.65106201171875,-0.0999755859375,-51.1875,16.5625,14.5,9.69,0.46,1.43,stop,1
6.3,615113.380680307,22,1,0,0,0,9.27,0.52,1.47,-0.41,0.06,0.04,2.125,-2.875,0.9375,0.750244140625,-0.0552978515625,-0.6512451171875,-0.0997314453125,-50.5,17.25,14.0625,9.69,0.46,1.42,stop,1
6.31,615113.393869516,22,1,0,0,0,9.29,0.46,1.46,-0.39,0.01,0.03,1.0625,-1.3125,1.1875,0.75018310546875,-0.0552978515625,-0.6513671875,-0.099609375,-50.5,17.25,14.0625,9.69,0.45,1.42,stop,1
6.32,615113.393869516,22,1,0,0,0,9.39,0.42,1.5,-0.29,-0.02,0.08,0.3125,-2.5,1.5625,0.75006103515625,-0.055419921875,-0.6514892578125,-0.0994873046875,-50.5,17.25,14.0625,9.69,0.45,1.42,stop,1
6.33,615113.409244394,22,1,0,0,0,9.5,0.38,1.5,-0.16,-0.06,-0.03,-0.1875,-3.375,1.9375,0.754150390625,-0.055419921875,-0.646728515625,-0.09967041015625,-50.5,17.25,14.0625,9.67,0.44,1.54,stop,1
6.34,615113.409244394,22,1,0,0,0,9.61,0.41,1.53,-0.06,-0.02,0.0,0.8125,-1.875,2.0625,0.7540283203125,-0.05548095703125,-0.6468505859375,-0.0994873046875,-50.5,17.25,14.0625,9.67,0.44,1.53,stop,1
6.35,615113.439893767,22,1,0,0,0,9.62,0.48,1.54,-0.04,0.04,0.0,2.5625,0.0,2.0,0.75408935546875,-0.055419921875,-0.6468505859375,-0.0992431640625,-50.375,17.25,14.5,9.67,0.43,1.53,stop,1
6.36,615113.439893767,22,1,0,0,0,9.69,0.58,1.53,0.02,0.15,0.0,3.875,0.8125,2.125,0.754150390625,-0.0552978515625,-0.6468505859375,-0.098876953125,-50.375,17.25,14.5,9.67,0.43,1.54,stop,1
6.37,615113.454549326,22,1,0,0,0,9.73,0.62,1.57,0.06,0.19,0.02,4.0625,1.1875,1.875,0.7542724609375,-0.05511474609375,-0.64678955078125,-0.0985107421875,-50.375,17.25,14.5,9.67,0.43,1.54,stop,1
6.38,615113.454549326,22,1,0,0,0,9.73,0.59,1.55,0.05,0.16,0.0,3.75,2.0625,1.6875,0.75445556640625,-0.054931640625,-0.64666748046875,-0.09820556640625,-50.375,17.25,14.5,9.67,0.43,1.54,stop,1
6.39,615113.469712086,22,1,0,0,0,9.68,0.55,1.55,0.01,0.11,0.0,3.25,2.8125,1.25,0.754638671875,-0.05474853515625,-0.646484375,-0.09796142578125,-50.375,17.25,14.5,9.67,0.43,1.55,stop,1
6.4,615113.469712086,22,1,0,0,0,9.63,0.49,1.56,-0.03,0.06,0.0,3.625,3.0625,0.9375,0.75482177734375,-0.05450439453125,-0.64630126953125,-0.09771728515625,-49.5625,16.875,14.0625,9.67,0.43,1.55,stop,1
6.41,615113.499951791,22,1,0,0,0,9.58,0.48,1.57,-0.08,0.05,0.01,4.375,3.25,0.5625,0.75506591796875,-0.05419921875,-0.6461181640625,-0.09747314453125,-49.5625,16.875,14.0625,9.67,0.43,1.56,stop,1
6.42,615113.499951791,22,1,0,0,0,9.52,0.49,1.59,-0.14,0.06,0.02,4.625,3.0625,0.5,0.7552490234375,-0.05389404296875,-0.64593505859375,-0.09722900390625,-49.5625,16.875,14.0625,9.67,0.43,1.56,stop,1
6.43,615113.514494597,22,1,0,0,0,9.47,0.52,1.6,-0.19,0.08,0.03,4.6875,2.75,0.8125,0.75543212890625,-0.0535888671875,-0.64581298828125,-0.096923828125,-49.5625,16.875,14.0625,9.67,0.43,1.57,stop,1
6.44,615113.514494597,22,1,0,0,0,9.43,0.53,1.61,-0.23,0.09,0.03,4.625,2.1875,0.9375,0.755615234375,-0.05328369140625,-0.64569091796875,-0.09661865234375,-49.5625,16.875,14.0625,9.66,0.43,1.57,stop,1
6.45,615113.529096607,22,1,0,0,0,9.46,0.52,1.58,-0.2,0.09,0.0,3.5625,1.0625,1.25,0.75567626953125,-0.0531005859375,-0.6456298828125,-0.0963134765625,-50.375,15.875,14.0625,9.66,0.43,1.57,stop,1
6.46,615113.529096607,22,1,0,0,0,9.47,0.51,1.57,-0.19,0.08,0.0,2.5,0.625,1.5625,0.75579833984375,-0.05303955078125,-0.64556884765625,-0.09613037109375,-50.375,15.875,14.0625,9.66,0.43,1.57,stop,1
6.47,615113.560289479,22,1,0,0,0,9.46,0.49,1.57,-0.2,0.06,0.0,2.125,1.625,1.6875,0.75592041015625,-0.05291748046875,-0.64544677734375,-0.09588623046875,-50.375,15.875,14.0625,9.66,0.42,1.58,stop,1
6.48,615113.560289479,22,1,0,0,0,9.45,0.48,1.57,-0.21,0.05,0.0,1.6875,1.8125,1.875,0.75604248046875,-0.05291748046875,-0.64532470703125,-0.095703125,-50.375,15.875,14.0625,9.66,0.42,1.58,stop,1
6.49,615113.574802133,22,1,0,0,0,9.54,0.42,1.51,-0.12,0.0,-0.07,1.75,0.625,2.0,0.756103515625,-0.05291748046875,-0.64532470703125,-0.095458984375,-50.375,15.875,14.0625,9.66,0.42,1.58,stop,1
6.5,615113.574802133,22,1,0,0,0,9.53,0.51,1.54,-0.13,0.08,-0.04,3.9375,0.75,1.4375,0.75616455078125,-0.05267333984375,-0.645263671875,-0.09515380859375,-49.5625,16.875,14.875,9.66,0.42,1.58,stop,1
6.51,615113.589606088,22,1,0,0,0,9.54,0.5,1.58,-0.12,0.08,0.0,4.125,0.5625,1.5,0.7562255859375,-0.052490234375,-0.645263671875,-0.0948486328125,-49.5625,16.875,14.875,9.66,0.42,1.58,stop,1
6.52,615113.589606088,22,1,0,0,0,9.47,0.46,1.42,-0.19,0.04,-0.16,4.0625,0.9375,1.3125,0.75628662109375,-0.05230712890625,-0.64520263671875,-0.09454345703125,-49.5625,16.875,14.875,9.66,0.42,1.58,stop,1
6.53,615113.619906666,22,1,0,0,0,9.54,0.45,1.53,-0.11,0.02,-0.05,5.5625,1.6875,0.8125,0.7564697265625,-0.05194091796875,-0.6451416015625,-0.09417724609375,-49.5625,16.875,14.875,9.66,0.42,1.59,stop,1
6.54,615113.619906666,22,1,0,0,0,9.61,0.43,1.63,-0.05,0.01,0.04,2.9375,0.1875,2.0,0.7564697265625,-0.0518798828125,-0.6451416015625,-0.0938720703125,-49.5625,16.875,14.875,9.66,0.41,1.59,stop,1
6.55,615113.635879078,22,1,0,0,0,9.7,0.43,1.72,0.03,0.01,0.13,0.875,-1.9375,2.5625,0.75640869140625,-0.05194091796875,-0.645263671875,-0.0936279296875,-50.75,16.875,14.5,9.66,0.41,1.58,stop,1
6.56,615113.635879078,22,1,0,0,0,9.6,0.48,1.63,-0.06,0.07,0.04,2.625,-1.0,1.9375,0.75634765625,-0.0518798828125,-0.6453857421875,-0.0933837890625,-50.75,16.875,14.5,9.66,0.41,1.58,stop,1
6.57,615113.64982846,22,1,0,0,0,9.5,0.52,1.57,-0.15,0.1,-0.01,4.6875,1.9375,0.75,0.75653076171875,-0.05157470703125,-0.645263671875,-0.09307861328125,-50.75,16.875,14.5,9.66,0.41,1.58,stop,1
6.58,615113.64982846,22,1,0,0,0,9.45,0.48,1.57,-0.21,0.06,-0.02,4.125,2.0625,0.5,0.75665283203125,-0.05126953125,-0.6451416015625,-0.09283447265625,-50.75,16.875,14.5,9.66,0.41,1.59,stop,1
6.59,615113.68615687,22,1,0,0,0,9.38,0.42,1.58,-0.28,0.01,-0.01,2.75,1.0625,0.9375,0.7567138671875,-0.0511474609375,-0.64508056640625,-0.0926513671875,-50.75,16.875,14.5,9.66,0.41,1.59,stop,1
6.6,615113.68615687,22,1,0,0,0,9.34,0.4,1.51,-0.32,-0.01,-0.08,3.0625,1.5625,0.5,0.7568359375,-0.0509033203125,-0.64501953125,-0.09246826171875,-50.375,18.375,13.6875,9.66,0.41,1.59,stop,1
6.61,615113.693268157,22,1,0,0,0,9.32,0.43,1.46,-0.34,0.02,-0.13,3.8125,2.3125,0.25,0.75701904296875,-0.0506591796875,-0.6448974609375,-0.09228515625,-50.375,18.375,13.6875,9.66,0.41,1.59,stop,1
6.62,615113.693268157,22,1,0,0,0,9.3,0.42,1.43,-0.36,0.0,-0.17,3.3125,1.875,0.1875,0.75714111328125,-0.0504150390625,-0.644775390625,-0.09210205078125,-50.375,18.375,13.6875,9.66,0.41,1.6,stop,1
6.63,615113.708789763,22,1,0,0,0,9.44,0.44,1.47,-0.21,0.02,-0.12,2.5625,0.375,0.4375,0.75714111328125,-0.05023193359375,-0.64483642578125,-0.09197998046875,-50.375,18.375,13.6875,9.66,0.41,1.6,stop,1
6.64,615113.708789763,22,1,0,0,0,9.55,0.44,1.55,-0.11,0.02,-0.04,2.0625,-0.75,0.8125,0.757080078125,-0.05010986328125,-0.6448974609375,-0.091796875,-50.375,18.375,13.6875,9.66,0.41,1.6,stop,1
6.65,615113.73813506,22,1,0,0,0,9.61,0.4,1.58,-0.04,0.0,0.0,1.6875,-0.875,1.1875,0.757080078125,-0.05010986328125,-0.64495849609375,-0.09161376953125,-50.0,16.1875,14.0625,9.66,0.41,1.59,stop,1
6.66,615113.73813506,22,1,0,0,0,9.58,0.4,1.59,-0.08,0.0,0.0,1.5625,0.0,1.25,0.757080078125,-0.050048828125,-0.64495849609375,-0.0914306640625,-50.0,16.1875,14.0625,9.66,0.41,1.59,stop,1
6.67,615113.753346892,22,1,0,0,0,9.55,0.41,1.58,-0.1,0.0,-0.01,1.4375,0.0,1.125,0.757080078125,-0.050048828125,-0.64495849609375,-0.09130859375,-50.0,16.1875,14.0625,9.66,0.41,1.59,stop,1
6.68,615113.753346892,22,1,0,0,0,9.56,0.4,1.58,-0.09,0.0,-0.01,0.875,-0.0625,1.125,0.757080078125,-0.050048828125,-0.64495849609375,-0.0911865234375,-50.0,16.1875,14.0625,9.66,0.41,1.59,stop,1
6.69,615113.767828745,22,1,0,0,0,9.55,0.39,1.56,-0.1,-0.01,-0.03,1.125,0.0,1.0625,0.75714111328125,-0.04998779296875,-0.64495849609375,-0.09100341796875,-50.0,16.1875,14.0625,9.66,0.4,1.59,stop,1
6.7,615113.767828745,22,1,0,0,0,9.48,0.45,1.62,-0.18,0.05,0.02,2.4375,1.125,0.9375,0.7572021484375,-0.04986572265625,-0.6448974609375,-0.0908203125,-50.75,18.375,14.0625,9.66,0.4,1.6,stop,1
6.71,615113.800847747,22,1,0,0,0,9.5,0.48,1.66,-0.16,0.08,0.06,3.0,0.5,0.8125,0.75726318359375,-0.04974365234375,-0.6448974609375,-0.09063720703125,-50.75,18.375,14.0625,9.66,0.4,1.6,stop,1
6.72,615113.800847747,22,1,0,0,0,9.53,0.47,1.6,-0.13,0.07,0.0,2.75,-0.8125,1.0,0.7572021484375,-0.04962158203125,-0.64495849609375,-0.09039306640625,-50.75,18.375,14.0625,9.66,0.4,1.59,stop,1
6.73,615113.812567555,22,1,0,0,0,9.53,0.44,1.59,-0.12,0.03,0.0,2.9375,-1.125,1.125,0.75714111328125,-0.04949951171875,-0.64508056640625,-0.09014892578125,-50.75,18.375,14.0625,9.66,0.4,1.59,stop,1
6.74,615113.812567555,22,1,0,0,0,9.56,0.45,1.63,-0.1,0.04,0.03,3.5625,-0.0625,1.0625,0.7572021484375,-0.04931640625,-0.64508056640625,-0.08990478515625,-50.75,18.375,14.0625,9.66,0.4,1.59,stop,1
6.75,615113.827745533,22,1,0,0,0,9.59,0.46,1.66,-0.07,0.06,0.07,2.25,-1.1875,1.5,0.75714111328125,-0.0491943359375,-0.64520263671875,-0.08966064453125,-50.75,17.25,13.25,9.66,0.4,1.59,stop,1
6.76,615113.827745533,22,1,0,0,0,9.6,0.38,1.63,-0.06,-0.01,0.04,0.3125,-1.3125,2.25,0.757080078125,-0.04937744140625,-0.645263671875,-0.0894775390625,-50.75,17.25,13.25,9.66,0.39,1.59,stop,1
6.77,615113.86006194,22,1,0,0,0,9.53,0.37,1.61,-0.12,-0.02,0.02,1.5,-0.25,2.0,0.75714111328125,-0.04937744140625,-0.645263671875,-0.08929443359375,-50.75,17.25,13.25,9.66,0.39,1.59,stop,1
6.78,615113.86006194,22,1,0,0,0,9.6,0.37,1.61,-0.06,-0.02,0.02,2.5625,-0.125,1.6875,0.75714111328125,-0.04931640625,-0.645263671875,-0.08905029296875,-50.75,17.25,13.25,9.66,0.39,1.59,stop,1
6.79,615113.875124358,22,1,0,0,0,9.61,0.36,1.67,-0.04,-0.02,0.08,2.875,-1.3125,1.9375,0.75714111328125,-0.0491943359375,-0.64532470703125,-0.0887451171875,-50.75,17.25,13.25,9.66,0.39,1.59,stop,1
6.8,615113.875124358,22,1,0,0,0,9.63,0.38,1.69,-0.03,0.0,0.11,3.0625,-1.25,2.0625,0.757080078125,-0.04913330078125,-0.64544677734375,-0.08843994140625,-50.0,17.25,13.6875,9.66,0.38,1.58,stop,1
6.81,615113.889277638,22,1,0,0,0,9.52,0.42,1.63,-0.14,0.03,0.05,3.3125,-0.625,2.1875,0.757080078125,-0.04901123046875,-0.6455078125,-0.08807373046875,-50.0,17.25,13.6875,9.66,0.38,1.58,stop,1
6.82,615113.889277638,22,1,0,0,0,9.48,0.4,1.57,-0.18,0.01,-0.01,3.8125,0.0,2.125,0.75714111328125,-0.04888916015625,-0.6455078125,-0.08770751953125,-50.0,17.25,13.6875,9.66,0.38,1.58,stop,1
6.83,615113.919917368,22,1,0,0,0,9.45,0.39,1.5,-0.21,0.01,-0.08,3.875,0.5,1.9375,0.75714111328125,-0.04876708984375,-0.6455078125,-0.08740234375,-50.0,17.25,13.6875,9.66,0.38,1.58,stop,1
6.84,615113.919917368,22,1,0,0,0,9.39,0.38,1.5,-0.27,0.0,-0.07,3.5625,0.4375,2.125,0.7572021484375,-0.04864501953125,-0.6455078125,-0.0870361328125,-50.0,17.25,13.6875,9.66,0.37,1.58,stop,1
6.85,615113.932917124,22,1,0,0,0,9.42,0.43,1.52,-0.24,0.05,-0.06,3.625,0.25,2.0625,0.7572021484375,-0.04852294921875,-0.64556884765625,-0.08673095703125,-51.375,18.0,13.0,9.67,0.37,1.58,stop,1
6.86,615113.932917124,22,1,0,0,0,9.43,0.44,1.59,-0.23,0.06,0.0,3.375,0.0,2.125,0.75726318359375,-0.04840087890625,-0.64556884765625,-0.08636474609375,-51.375,18.0,13.0,9.67,0.37,1.58,stop,1
6.87,615113.948384897,22,1,0,0,0,9.47,0.43,1.57,-0.19,0.06,0.0,2.375,-1.0,2.1875,0.7572021484375,-0.04833984375,-0.6456298828125,-0.08612060546875,-51.375,18.0,13.0,9.67,0.37,1.58,stop,1
6.88,615113.948384897,22,1,0,0,0,9.49,0.39,1.58,-0.17,0.02,0.0,1.625,-1.5,2.3125,0.75714111328125,-0.04840087890625,-0.645751953125,-0.08587646484375,-51.375,18.0,13.0,9.67,0.36,1.58,stop,1
6.89,615113.979475758,22,1,0,0,0,9.51,0.36,1.57,-0.15,0.0,0.0,1.75,-1.9375,2.1875,0.757080078125,-0.04840087890625,-0.6458740234375,-0.0855712890625,-51.375,18.0,13.0,9.67,0.36,1.57,stop,1
6.9,615113.979475758,22,1,0,0,0,9.54,0.38,1.53,-0.12,0.02,-0.04,2.0,-2.375,2.1875,0.7569580078125,-0.04840087890625,-0.64605712890625,-0.0853271484375,-49.5625,17.25,13.0,9.67,0.36,1.57,stop,1
6.91,615113.994730478,22,1,0,0,0,9.55,0.39,1.47,-0.12,0.03,-0.09,2.25,-2.75,2.0,0.7568359375,-0.04840087890625,-0.646240234375,-0.0850830078125,-49.5625,17.25,13.0,9.67,0.35,1.57,stop,1
6.92,615113.994730478,22,1,0,0,0,9.53,0.35,1.47,-0.13,0.0,-0.08,2.75,-2.625,1.75,0.7567138671875,-0.04833984375,-0.64642333984375,-0.08477783203125,-49.5625,17.25,13.0,9.67,0.35,1.56,stop,1
6.93,615114.009308237,22,1,0,0,0,9.48,0.36,1.5,-0.18,0.01,-0.05,3.25,-2.0625,1.4375,0.75665283203125,-0.0482177734375,-0.64654541015625,-0.08447265625,-49.5625,17.25,13.0,9.67,0.35,1.56,stop,1
6.94,615114.009308237,22,1,0,0,0,9.47,0.34,1.53,-0.2,-0.01,-0.02,3.3125,-1.375,1.0,0.756591796875,-0.04803466796875,-0.64666748046875,-0.084228515625,-49.5625,17.25,13.0,9.67,0.35,1.55,stop,1
6.95,615114.039439788,22,1,0,0,0,9.48,0.35,1.58,-0.19,0.0,0.02,2.8125,-1.4375,1.0,0.75653076171875,-0.04791259765625,-0.64678955078125,-0.083984375,-49.5625,18.6875,13.6875,9.67,0.35,1.55,stop,1
6.96,615114.039439788,22,1,0,0,0,9.49,0.36,1.56,-0.18,0.01,0.01,2.5625,-1.8125,0.9375,0.75640869140625,-0.04779052734375,-0.64691162109375,-0.08380126953125,-49.5625,18.6875,13.6875,9.67,0.35,1.55,stop,1
6.97,615114.054182301,22,1,0,0,0,9.54,0.37,1.56,-0.13,0.02,0.01,2.5625,-1.6875,1.125,0.75634765625,-0.0477294921875,-0.64703369140625,-0.08355712890625,-49.5625,18.6875,13.6875,9.67,0.35,1.55,stop,1
6.98,615114.054182301,22,1,0,0,0,9.54,0.33,1.56,-0.13,-0.01,0.01,1.75,-1.4375,1.3125,0.75628662109375,-0.04766845703125,-0.64715576171875,-0.0833740234375,-49.5625,18.6875,13.6875,9.67,0.35,1.54,stop,1
6.99,615114.068462941,22,1,0,0,0,9.5,0.32,1.38,-0.17,-0.02,-0.15,2.1875,-1.4375,1.125,0.7562255859375,-0.047607421875,-0.64727783203125,-0.0831298828125,-49.5625,18.6875,13.6875,9.67,0.34,1.54,stop,1
7.0,615114.068462941,22,1,0,0,0,9.52,0.34,1.47,-0.14,0.0,-0.07,4.4375,-1.5625,0.4375,0.75616455078125,-0.04730224609375,-0.64739990234375,-0.0828857421875,-50.0,19.5,13.6875,9.67,0.35,1.54,stop,1
7.01,615114.100017669,22,1,0,0,0,9.55,0.33,1.52,-0.12,-0.01,-0.01,3.375,-2.0625,0.75,0.75604248046875,-0.04718017578125,-0.6475830078125,-0.0826416015625,-50.0,19.5,13.6875,9.67,0.35,1.53,stop,1
7.02,615114.100017669,22,1,0,0,0,9.48,0.31,1.5,-0.19,-0.03,-0.03,1.4375,-2.0625,1.0,0.75592041015625,-0.047119140625,-0.647705078125,-0.08245849609375,-50.0,19.5,13.6875,9.67,0.34,1.53,stop,1
7.03,615114.132566741,22,1,0,0,0,9.54,0.35,1.52,-0.13,0.0,-0.01,2.125,-0.875,0.625,0.75592041015625,-0.04705810546875,-0.64776611328125,-0.08233642578125,-50.0,19.5,13.6875,9.67,0.34,1.53,stop,1
7.04,615114.132566741,22,1,0,0,0,9.56,0.37,1.54,-0.11,0.03,0.01,0.6875,-0.9375,1.3125,0.755859375,-0.04705810546875,-0.6478271484375,-0.08221435546875,-50.0,19.5,13.6875,9.68,0.34,1.53,stop,1
7.05,615114.138140065,22,1,0,0,0,9.58,0.37,1.68,-0.09,0.02,0.15,-0.8125,-1.3125,1.625,0.75579833984375,-0.0472412109375,-0.64788818359375,-0.0821533203125,-50.375,18.6875,13.6875,9.68,0.34,1.52,stop,1
7.06,615114.138140065,22,1,0,0,0,9.55,0.36,1.59,-0.12,0.02,0.07,-0.25,-1.4375,1.375,0.7557373046875,-0.04730224609375,-0.64794921875,-0.08203125,-50.375,18.6875,13.6875,9.68,0.34,1.52,stop,1
7.07,615114.158848276,22,1,0,0,0,9.5,0.36,1.51,-0.17,0.02,0.0,0.75,-0.75,0.5625,0.7557373046875,-0.04730224609375,-0.64801025390625,-0.08197021484375,-50.375,18.6875,13.6875,9.68,0.34,1.52,stop,1
7.08,615114.158848276,22,1,0,0,0,9.48,0.33,1.52,-0.2,0.0,0.0,1.125,0.0,0.0,0.7557373046875,-0.0472412109375,-0.64801025390625,-0.0819091796875,-50.375,18.6875,13.6875,9.68,0.34,1.52,stop,1
7.09,615114.173570851,22,1,0,0,0,9.44,0.26,1.55,-0.23,-0.07,0.02,0.5625,0.0,0.1875,0.7557373046875,-0.04718017578125,-0.64801025390625,-0.08184814453125,-50.375,18.6875,13.6875,9.68,0.34,1.52,stop,1
7.1,615114.173570851,22,1,0,0,0,9.41,0.26,1.55,-0.26,-0.07,0.03,0.5625,-0.875,0.1875,0.75567626953125,-0.047119140625,-0.6480712890625,-0.081787109375,-50.0,18.6875,13.0,9.68,0.34,1.52,stop,1
7.11,615114.189273406,22,1,0,0,0,9.38,0.23,1.49,-0.3,-0.1,-0.02,1.4375,-0.3125,-0.25,0.75567626953125,-0.04705810546875,-0.6480712890625,-0.08172607421875,-50.0,18.6875,13.0,9.68,0.34,1.52,stop,1
7.12,615114.189273406,22,1,0,0,0,9.34,0.29,1.48,-0.33,-0.04,-0.04,1.875,0.0,-0.4375,0.7557373046875,-0.04693603515625,-0.6480712890625,-0.08160400390625,-50.0,18.6875,13.0,9.68,0.34,1.52,stop,1
7.13,615114.22703366,22,1,0,0,0,9.35,0.3,1.56,-0.32,-0.03,0.03,1.25,-0.25,-0.375,0.7557373046875,-0.046875,-0.6480712890625,-0.08154296875,-50.0,18.6875,13.0,9.68,0.34,1.52,stop,1
7.14,615114.22703366,22,1,0,0,0,9.31,0.33,1.57,-0.36,-0.01,0.04,0.875,-0.3125,-0.125,0.7557373046875,-0.04681396484375,-0.6480712890625,-0.08148193359375,-50.0,18.6875,13.0,9.68,0.34,1.52,stop,1
7.15,615114.234024627,22,1,0,0,0,9.26,0.27,1.55,-0.41,-0.06,0.02,0.375,0.0,0.0,0.7557373046875,-0.04681396484375,-0.6480712890625,-0.08148193359375,-50.75,19.5,13.25,9.68,0.34,1.52,stop,1
7.16,615114.234024627,22,1,0,0,0,9.23,0.26,1.47,-0.44,-0.07,-0.05,0.4375,0.0,-0.0625,0.7557373046875,-0.04681396484375,-0.6480712890625,-0.08148193359375,-50.75,19.5,13.25,9.68,0.34,1.52,stop,1
7.17,615114.248751027,22,1,0,0,0,9.23,0.28,1.44,-0.44,-0.05,-0.07,1.0,-0.3125,-0.125,0.7557373046875,-0.0467529296875,-0.6480712890625,-0.0814208984375,-50.75,19.5,13.25,9.68,0.34,1.52,stop,1
7.18,615114.248751027,22,1,0,0,0,9.25,0.3,1.45,-0.43,-0.04,-0.06,1.375,-1.5,-0.0625,0.75567626953125,-0.046630859375,-0.648193359375,-0.08135986328125,-50.75,19.5,13.25,9.68,0.34,1.52,stop,1
7.19,615114.278618418,22,1,0,0,0,9.27,0.34,1.47,-0.41,0.0,-0.05,1.4375,-1.875,0.0,0.75555419921875,-0.04656982421875,-0.6483154296875,-0.08123779296875,-50.75,19.5,13.25,9.68,0.34,1.52,stop,1
7.2,615114.278618418,22,1,0,0,0,9.34,0.39,1.34,-0.33,0.04,-0.17,1.75,-2.25,0.0,0.75543212890625,-0.04644775390625,-0.64849853515625,-0.08111572265625,-50.0,19.0625,13.25,9.68,0.34,1.51,stop,1
7.21,615114.29238803,22,1,0,0,0,9.35,0.41,1.32,-0.33,0.07,-0.19,2.4375,-2.125,0.0,0.75537109375,-0.04632568359375,-0.648681640625,-0.08099365234375,-50.0,19.0625,13.25,9.68,0.34,1.51,stop,1
7.22,615114.29238803,22,1,0,0,0,9.31,0.43,1.31,-0.37,0.09,-0.19,2.4375,-1.625,-0.1875,0.7552490234375,-0.046142578125,-0.6488037109375,-0.08087158203125,-50.0,19.0625,13.25,9.68,0.34,1.5,stop,1
7.23,615114.307937794,22,1,0,0,0,9.25,0.42,1.34,-0.43,0.07,-0.15,2.375,-1.6875,-0.3125,0.755126953125,-0.04595947265625,-0.64892578125,-0.08074951171875,-50.0,19.0625,13.25,9.68,0.34,1.5,stop,1
7.24,615114.307937794,22,1,0,0,0,9.19,0.37,1.29,-0.48,0.02,-0.2,3.0,-1.25,-0.625,0.75506591796875,-0.04571533203125,-0.6490478515625,-0.08062744140625,-50.0,19.0625,13.25,9.68,0.34,1.5,stop,1
7.25,615114.338441334,22,1,0,0,0,9.22,0.35,1.33,-0.45,0.0,-0.16,1.9375,-1.375,-0.1875,0.75494384765625,-0.04559326171875,-0.649169921875,-0.08050537109375,-50.375,16.875,13.6875,9.68,0.34,1.49,stop,1
7.26,615114.338441334,22,1,0,0,0,9.33,0.36,1.37,-0.34,0.02,-0.11,0.0,-2.6875,0.5625,0.75482177734375,-0.045654296875,-0.6494140625,-0.0804443359375,-50.375,16.875,13.6875,9.68,0.34,1.49,stop,1
7.27,615114.353590708,22,1,0,0,0,9.58,0.41,1.68,-0.1,0.06,0.19,-1.25,-4.9375,1.0,0.7545166015625,-0.04583740234375,-0.64971923828125,-0.0804443359375,-50.375,16.875,13.6875,9.68,0.34,1.48,stop,1
7.28,615114.353590708,22,1,0,0,0,9.72,0.42,1.8,0.03,0.07,0.32,-2.6875,-5.5,1.125,0.75421142578125,-0.046142578125,-0.6500244140625,-0.08050537109375,-50.375,16.875,13.6875,9.68,0.34,1.47,stop,1
7.29,615114.36883257,22,1,0,0,0,9.85,0.45,1.98,0.16,0.11,0.51,-4.625,-5.3125,0.9375,0.75390625,-0.0465087890625,-0.65032958984375,-0.0806884765625,-50.375,16.875,13.6875,9.69,0.34,1.46,stop,1
7.3,615114.36883257,22,1,0,0,0,9.93,0.44,2.11,0.24,0.1,0.65,-7.6875,-4.125,1.375,0.753662109375,-0.047119140625,-0.65057373046875,-0.08099365234375,-49.5625,16.1875,14.0625,9.69,0.33,1.46,stop,1
7.31,615114.399482798,22,1,0,0,0,9.81,0.4,2.14,0.12,0.07,0.68,-10.3125,-1.5,1.8125,0.7535400390625,-0.04791259765625,-0.65057373046875,-0.08148193359375,-49.5625,16.1875,14.0625,9.69,0.33,1.46,stop,1
7.32,615114.399482798,22,1,0,0,0,9.66,0.33,2.14,-0.02,0.0,0.67,-10.4375,2.75,1.5625,0.753662109375,-0.0487060546875,-0.65032958984375,-0.08197021484375,-49.5625,16.1875,14.0625,9.69,0.32,1.46,stop,1
7.33,615114.415407399,22,1,0,0,0,9.73,0.28,2.14,0.05,-0.03,0.66,-8.9375,6.125,1.0,0.75396728515625,-0.04925537109375,-0.64984130859375,-0.08245849609375,-49.5625,16.1875,14.0625,9.68,0.32,1.47,stop,1
7.34,615114.415407399,22,1,0,0,0,10.7,0.04,2.06,1.01,-0.27,0.58,-10.0,3.8125,1.75,0.754150390625,-0.04998779296875,-0.64947509765625,-0.0828857421875,-49.5625,16.1875,14.0625,9.68,0.31,1.48,stop,1
7.34,615114.429828948,22,1,0,0,0,10.7,0.04,2.06,1.01,-0.27,0.58,-10.0,3.8125,1.75,0.754150390625,-0.04998779296875,-0.64947509765625,-0.0828857421875,-49.5625,16.1875,14.0625,9.68,0.31,1.48,stop,1
7.35,615114.429828948,22,1,0,0,0,11.36,0.01,2.01,1.67,-0.29,0.53,-12.9375,-4.8125,3.75,0.75390625,-0.05108642578125,-0.64971923828125,-0.0833740234375,-49.5625,16.5625,14.0625,9.68,0.3,1.47,stop,1
7.36,615114.445077036,22,1,0,0,0,11.96,0.12,1.94,2.27,-0.16,0.49,-13.125,-13.8125,6.375,0.75311279296875,-0.05242919921875,-0.65045166015625,-0.0836181640625,-49.5625,16.5625,14.0625,9.69,0.29,1.45,stop,1
7.37,615114.445077036,22,1,0,0,0,12.38,0.33,1.93,2.68,0.05,0.5,-7.4375,-16.875,6.875,0.75213623046875,-0.053466796875,-0.6514892578125,-0.08349609375,-49.5625,16.5625,14.0625,9.69,0.27,1.42,stop,1
7.38,615114.459851816,22,1,0,0,0,12.67,0.69,1.82,2.97,0.42,0.42,0.625,-12.6875,4.8125,0.75146484375,-0.05377197265625,-0.65228271484375,-0.0831298828125,-49.5625,16.5625,14.0625,9.7,0.27,1.4,stop,1
7.39,615114.459851816,22,1,0,0,0,12.61,0.67,1.72,2.9,0.4,0.32,5.875,-4.8125,1.875,0.751220703125,-0.05352783203125,-0.65264892578125,-0.0826416015625,-49.5625,16.5625,14.0625,9.7,0.26,1.39,stop,1
7.4,615114.498685963,22,1,0,0,0,12.36,0.64,1.68,2.66,0.37,0.27,4.4375,2.875,0.25,0.75140380859375,-0.05322265625,-0.6524658203125,-0.0823974609375,-50.0,19.0625,14.875,9.7,0.27,1.4,stop,1
7.41,615114.498685963,22,1,0,0,0,11.98,0.64,1.81,2.28,0.37,0.39,1.25,8.25,-0.3125,0.75189208984375,-0.05303955078125,-0.6519775390625,-0.08233642578125,-50.0,19.0625,14.875,9.7,0.27,1.41,stop,1
7.42,615114.504098439,22,1,0,0,0,11.03,0.66,1.79,1.33,0.38,0.36,2.25,12.0625,-2.625,0.7525634765625,-0.05267333984375,-0.65118408203125,-0.08245849609375,-50.0,19.0625,14.875,9.69,0.27,1.43,stop,1
7.43,615114.504098439,22,1,0,0,0,10.62,0.66,1.61,0.92,0.38,0.16,4.75,12.8125,-4.9375,0.7532958984375,-0.052001953125,-0.650390625,-0.08258056640625,-50.0,19.0625,14.875,9.69,0.28,1.45,stop,1
7.44,615114.518902923,22,1,0,0,0,10.18,0.59,1.48,0.48,0.29,0.0,4.1875,11.1875,-5.375,0.75390625,-0.05133056640625,-0.64971923828125,-0.082763671875,-50.0,19.0625,14.875,9.69,0.29,1.47,stop,1
7.45,615114.518902923,22,1,0,0,0,9.18,0.6,1.46,-0.49,0.3,-0.03,3.875,12.3125,-5.9375,0.75457763671875,-0.05059814453125,-0.64892578125,-0.08294677734375,-50.0,17.25,14.75,9.68,0.3,1.49,stop,1
7.46,615114.548562306,22,1,0,0,0,8.65,0.6,1.42,-1.03,0.28,-0.09,5.0,14.375,-7.0625,0.75537109375,-0.0498046875,-0.6480712890625,-0.083251953125,-50.0,17.25,14.75,9.68,0.32,1.52,stop,1
7.47,615114.548562306,22,1,0,0,0,8.13,0.55,1.2,-1.54,0.21,-0.33,7.125,14.375,-8.25,0.75616455078125,-0.04876708984375,-0.647216796875,-0.08343505859375,-50.0,17.25,14.75,9.67,0.33,1.54,stop,1
7.48,615114.563493988,22,1,0,0,0,7.64,0.51,1.06,-2.02,0.16,-0.5,10.0,14.1875,-9.6875,0.7569580078125,-0.04742431640625,-0.6463623046875,-0.08355712890625,-50.0,17.25,14.75,9.67,0.35,1.56,stop,1
7.49,615114.563493988,22,1,0,0,0,6.75,0.46,0.76,-2.91,0.09,-0.82,12.75,15.125,-10.6875,0.75775146484375,-0.04583740234375,-0.6455078125,-0.0836181640625,-50.0,17.25,14.75,9.66,0.37,1.59,stop,1
7.5,615114.578670501,22,1,0,0,0,6.4,0.4,0.6,-3.26,0.0,-1.01,15.1875,14.6875,-10.6875,0.75860595703125,-0.04412841796875,-0.6446533203125,-0.08355712890625,-50.375,18.6875,14.0,9.66,0.39,1.61,stop,1
7.51,615114.578670501,22,1,0,0,0,6.11,0.44,0.52,-3.54,0.02,-1.1,18.5625,11.9375,-10.75,0.75927734375,-0.042236328125,-0.64404296875,-0.083251953125,-50.375,18.6875,14.0,9.66,0.42,1.63,stop,1
7.52,615114.610262746,22,1,0,0,0,5.81,0.47,0.36,-3.83,0.02,-1.28,21.5625,7.1875,-10.375,0.7596435546875,-0.0401611328125,-0.643798828125,-0.082763671875,-50.375,18.6875,14.0,9.65,0.44,1.64,stop,1
7.53,615114.610262746,22,1,0,0,0,5.76,0.55,0.4,-3.89,0.08,-1.24,22.75,1.375,-9.625,0.759765625,-0.0380859375,-0.64385986328125,-0.0821533203125,-50.375,18.6875,14.0,9.65,0.46,1.64,stop,1
7.54,615114.623519053,22,1,0,0,0,5.78,0.57,0.51,-3.87,0.08,-1.12,22.1875,-2.3125,-9.0625,0.7596435546875,-0.0361328125,-0.64422607421875,-0.08148193359375,-50.375,18.6875,14.0,9.65,0.49,1.64,stop,1
7.55,615114.623519053,22,1,0,0,0,5.95,0.73,0.96,-3.69,0.22,-0.66,19.25,-5.0,-8.4375,0.75933837890625,-0.03436279296875,-0.64471435546875,-0.0809326171875,-51.0625,18.6875,14.75,9.65,0.51,1.63,stop,1
7.56,615114.6392105,22,1,0,0,0,6.44,1.23,2.29,-3.2,0.7,0.68,10.3125,-8.0,-7.0,0.75885009765625,-0.03338623046875,-0.64532470703125,-0.080810546875,-51.0625,18.6875,14.75,9.65,0.52,1.61,stop,1
7.57,615114.6392105,22,1,0,0,0,6.69,1.26,2.61,-2.96,0.73,1.01,-4.625,-10.5625,-5.1875,0.75823974609375,-0.033447265625,-0.64599609375,-0.08135986328125,-51.0625,18.6875,14.75,9.66,0.53,1.59,stop,1
7.58,615114.669808888,22,1,0,0,0,7.1,1.1,2.83,-2.56,0.56,1.25,-21.875,-11.75,-4.4375,0.7574462890625,-0.03472900390625,-0.64666748046875,-0.0828857421875,-51.0625,18.6875,14.75,9.66,0.53,1.58,stop,1
7.59,615114.669808888,22,1,0,0,0,8.78,0.31,2.01,-0.88,-0.22,0.44,-37.875,-7.375,-4.1875,0.75689697265625,-0.03704833984375,-0.6468505859375,-0.08526611328125,-51.0625,18.6875,14.75,9.66,0.53,1.57,stop,1
7.6,615114.683576182,22,1,0,0,0,10.07,-0.29,1.16,0.4,-0.81,-0.41,-52.0,0.8125,-2.6875,0.75677490234375,-0.04034423828125,-0.64642333984375,-0.08837890625,-50.75,18.375,12.5,9.66,0.52,1.57,moving,1
7.61,615114.683576182,22,1,0,0,0,11.8,-0.79,0.42,2.13,-1.29,-1.15,-64.25,-0.6875,3.0,0.75653076171875,-0.04473876953125,-0.64593505859375,-0.09185791015625,-50.75,18.375,12.5,9.66,0.49,1.58,moving,1
7.61,615114.698782358,22,1,0,0,0,11.8,-0.79,0.42,2.13,-1.29,-1.15,-64.25,-0.6875,3.0,0.75653076171875,-0.04473876953125,-0.64593505859375,-0.09185791015625,-50.75,18.375,12.5,9.66,0.49,1.58,moving,1
7.62,615114.698782358,22,1,0,0,0,13.79,-1.04,0.1,4.12,-1.5,-1.45,-69.0,-16.0,11.625,0.75543212890625,-0.050048828125,-0.64642333984375,-0.09490966796875,-50.75,18.375,12.5,9.67,0.46,1.56,moving,1
7.63,615114.713395314,22,1,0,0,0,16.43,-0.03,1.19,6.75,-0.44,-0.32,-58.1875,-29.9375,17.25,0.75360107421875,-0.05511474609375,-0.6478271484375,-0.096923828125,-50.75,18.375,12.5,9.67,0.41,1.51,moving,1
7.64,615114.713395314,22,1,0,0,0,17.13,1.51,2.07,7.45,1.12,0.59,-9.9375,-19.75,10.8125,0.75250244140625,-0.05657958984375,-0.64898681640625,-0.0966796875,-50.75,18.375,12.5,9.68,0.39,1.48,moving,1
7.65,615114.728823659,22,1,0,0,0,17.02,1.69,1.26,7.33,1.29,-0.21,2.6875,2.1875,-0.9375,0.75262451171875,-0.0562744140625,-0.64886474609375,-0.0965576171875,-50.75,15.5,14.5,9.68,0.39,1.48,moving,1
7.66,615114.728823659,22,1,0,0,0,17.7,1.27,0.96,8.02,0.86,-0.53,6.125,8.0625,-5.8125,0.75311279296875,-0.05548095703125,-0.6484375,-0.0966796875,-50.75,15.5,14.5,9.68,0.4,1.5,moving,1
7.67,615114.759962819,22,1,0,0,0,14.49,0.5,1.67,4.82,0.07,0.15,22.875,11.4375,-7.625,0.7537841796875,-0.053466796875,-0.64788818359375,-0.09588623046875,-50.75,15.5,14.5,9.67,0.42,1.51,moving,1
7.68,615114.759962819,22,1,0,0,0,12.53,0.89,1.97,2.86,0.43,0.43,31.0625,16.625,-10.125,0.7547607421875,-0.05072021484375,-0.6470947265625,-0.09490966796875,-50.75,15.5,14.5,9.67,0.45,1.54,moving,1
7.69,615114.773516937,22,1,0,0,0,11.1,0.97,2.13,1.44,0.48,0.53,37.375,33.1875,-12.9375,0.7567138671875,-0.0472412109375,-0.645263671875,-0.09381103515625,-50.75,15.5,14.5,9.66,0.48,1.59,moving,1
7.7,615114.773516937,22,1,0,0,0,7.69,1.59,2.36,-1.95,1.06,0.69,58.8125,42.5625,-16.5,0.7591552734375,-0.04205322265625,-0.64300537109375,-0.09173583984375,-50.75,18.375,14.875,9.65,0.53,1.66,moving,1
7.71,615114.78961561,22,1,0,0,0,6.82,1.26,1.79,-2.81,0.68,0.05,74.25,48.125,-18.125,0.761962890625,-0.03570556640625,-0.64044189453125,-0.0889892578125,-50.75,18.375,14.875,9.63,0.58,1.73,moving,1
7.72,615114.78961561,22,1,0,0,0,5.31,0.74,1.11,-4.3,0.1,-0.68,73.875,40.0625,-17.4375,0.7642822265625,-0.029541015625,-0.638427734375,-0.08612060546875,-50.75,18.375,14.875,9.61,0.63,1.79,moving,1
7.73,615114.818342091,22,1,0,0,0,4.41,0.95,0.87,-5.2,0.28,-0.95,59.75,25.9375,-12.125,0.76580810546875,-0.024658203125,-0.63714599609375,-0.08367919921875,-50.75,18.375,14.875,9.61,0.67,1.83,moving,1
7.74,615114.818342091,22,1,0,0,0,3.37,0.33,0.45,-6.22,-0.35,-1.4,36.25,17.5,-6.75,0.76678466796875,-0.021728515625,-0.63623046875,-0.0821533203125,-50.75,18.375,14.875,9.6,0.69,1.85,moving,1
7.75,615114.849031097,22,1,0,0,0,3.35,-0.1,0.66,-6.24,-0.81,-1.21,23.875,14.75,-6.375,0.767578125,-0.0196533203125,-0.63543701171875,-0.081298828125,-52.1875,17.25,12.875,9.59,0.71,1.87,moving,1
7.76,615114.849031097,22,1,0,0,0,3.21,-0.25,0.74,-6.37,-0.99,-1.15,30.0,18.375,-8.0,0.76861572265625,-0.01708984375,-0.63446044921875,-0.0802001953125,-52.1875,17.25,12.875,9.59,0.74,1.9,moving,1
7.77,615114.854682424,22,1,0,0,0,3.5,0.19,1.36,-6.07,-0.57,-0.56,38.3125,18.75,-7.875,0.7696533203125,-0.013916015625,-0.63348388671875,-0.07861328125,-52.1875,17.25,12.875,9.58,0.76,1.93,moving,1
7.78,615114.854682424,22,1,0,0,0,3.68,0.44,1.75,-5.89,-0.34,-0.19,33.625,11.0625,-5.9375,0.770263671875,-0.01129150390625,-0.6329345703125,-0.07720947265625,-52.1875,17.25,12.875,9.57,0.78,1.94,moving,1
7.79,615114.880298106,22,1,0,0,0,4.07,0.36,2.02,-5.5,-0.43,0.07,14.125,-2.25,-2.0625,0.7701416015625,-0.01019287109375,-0.6331787109375,-0.0765380859375,-52.1875,17.25,12.875,9.57,0.79,1.94,moving,1
7.8,615114.880298106,22,1,0,0,0,4.48,0.2,1.83,-5.09,-0.58,-0.09,-8.375,-9.1875,3.0625,0.7696533203125,-0.010986328125,-0.6337890625,-0.0767822265625,-51.0625,17.6875,11.25,9.58,0.78,1.92,moving,1
7.81,615114.893393605,22,1,0,0,0,6.57,0.15,0.89,-3.01,-0.61,-1.01,-21.0625,-12.125,7.875,0.76898193359375,-0.012939453125,-0.6343994140625,-0.077392578125,-51.0625,17.6875,11.25,9.58,0.76,1.9,moving,1
7.82,615114.893393605,22,1,0,0,0,8.56,0.38,0.39,-1.03,-0.35,-1.47,-26.375,-24.5,12.5625,0.7677001953125,-0.01556396484375,-0.6358642578125,-0.0780029296875,-51.0625,17.6875,11.25,9.59,0.73,1.87,moving,1
7.83,615114.909256195,22,1,0,0,0,11.35,0.49,0.26,1.73,-0.19,-1.51,-35.625,-56.375,20.5625,0.7646484375,-0.01947021484375,-0.63934326171875,-0.07855224609375,-51.0625,17.6875,11.25,9.61,0.69,1.78,moving,1
7.84,615114.909256195,22,1,0,0,0,18.33,1.35,1.92,8.67,0.73,0.3,-55.5625,-100.125,32.0625,0.7591552734375,-0.025634765625,-0.64556884765625,-0.079345703125,-51.0625,17.6875,11.25,9.65,0.62,1.61,moving,1
7.85,615114.93932138,22,1,0,0,0,20.48,1.1,2.87,10.79,0.58,1.47,-92.875,-135.0,45.5625,0.75152587890625,-0.0352783203125,-0.6536865234375,-0.08123779296875,-51.0625,16.5625,11.6875,9.69,0.52,1.4,moving,1
7.86,615114.93932138,22,1,0,0,0,19.27,2.65,0.62,9.55,2.24,-0.57,-89.3125,-123.125,51.75,0.74456787109375,-0.04498291015625,-0.66094970703125,-0.08251953125,-51.0625,16.5625,11.6875,9.72,0.41,1.19,moving,1
7.87,615114.944820078,22,1,0,0,0,19.27,2.65,0.62,9.55,2.24,-0.57,-89.3125,-123.125,51.75,0.74456787109375,-0.04498291015625,-0.66094970703125,-0.08251953125,-51.0625,16.5625,11.6875,9.72,0.41,1.19,moving,1
7.87,615114.944820078,22,1,0,0,0,19.57,1.11,0.48,9.83,0.73,-0.62,-18.1875,-55.0,15.0625,0.74139404296875,-0.04742431640625,-0.664306640625,-0.0823974609375,-51.0625,16.5625,11.6875,9.73,0.38,1.1,moving,1
7.88,615114.969566253,22,1,0,0,0,16.4,0.41,1.05,6.66,0.01,-0.02,12.1875,-16.6875,-10.8125,0.7403564453125,-0.046142578125,-0.66552734375,-0.08233642578125,-51.0625,16.5625,11.6875,9.73,0.4,1.07,moving,1
7.89,615114.969566253,22,1,0,0,0,15.32,1.24,1.98,5.59,0.8,0.87,58.8125,23.25,-13.8125,0.74188232421875,-0.04132080078125,-0.66448974609375,-0.07989501953125,-51.0625,16.5625,11.6875,9.73,0.43,1.11,moving,1
7.9,615114.983310679,22,1,0,0,0,13.03,1.23,1.59,3.31,0.74,0.41,49.75,45.9375,-18.375,0.74456787109375,-0.0367431640625,-0.66192626953125,-0.078369140625,-49.25,18.0,15.5,9.72,0.48,1.18,moving,1
7.91,615114.983310679,22,1,0,0,0,11.4,0.96,2.27,1.69,0.46,0.99,7.25,58.0,-7.4375,0.74786376953125,-0.035400390625,-0.658203125,-0.07861328125,-49.25,18.0,15.5,9.7,0.49,1.28,moving,1
7.92,615114.998205414,22,1,0,0,0,8.45,0.0,1.61,-1.23,-0.5,0.23,1.9375,58.75,-4.75,0.751220703125,-0.03460693359375,-0.6544189453125,-0.0789794921875,-49.25,18.0,15.5,9.69,0.5,1.38,moving,1
7.93,615114.998205414,22,1,0,0,0,7.12,0.51,1.96,-2.54,-0.01,0.45,30.0625,77.8125,-11.0,0.755615234375,-0.031494140625,-0.6495361328125,-0.0782470703125,-49.25,18.0,15.5,9.67,0.53,1.51,moving,1
7.94,615115.030454315,22,1,0,0,0,5.03,1.07,0.96,-4.61,0.51,-0.7,41.5625,93.5,-11.75,0.76092529296875,-0.02740478515625,-0.6436767578125,-0.076904296875,-49.25,18.0,15.5,9.64,0.56,1.66,moving,1
7.95,615115.030454315,22,1,0,0,0,3.29,-0.35,0.14,-6.33,-0.92,-1.64,24.0625,75.875,-1.4375,0.76519775390625,-0.02520751953125,-0.6387939453125,-0.07586669921875,-50.375,18.6875,14.5,9.62,0.57,1.79,moving,1
7.96,615115.043523773,22,1,0,0,0,3.12,-0.2,0.4,-6.48,-0.77,-1.47,14.375,54.0625,0.25,0.76824951171875,-0.02386474609375,-0.63525390625,-0.0751953125,-50.375,18.6875,14.5,9.6,0.57,1.88,moving,1
7.97,615115.043523773,22,1,0,0,0,2.88,-0.02,0.79,-6.7,-0.61,-1.15,20.6875,37.1875,-2.3125,0.77032470703125,-0.02215576171875,-0.6329345703125,-0.07427978515625,-50.375,18.6875,14.5,9.59,0.58,1.94,moving,1
7.98,615115.059648854,22,1,0,0,0,2.89,0.15,1.29,-6.69,-0.44,-0.69,24.5625,31.0,-6.0625,0.77203369140625,-0.01995849609375,-0.6309814453125,-0.0733642578125,-50.375,18.6875,14.5,9.58,0.6,1.98,moving,1
7.99,615115.059648854,22,1,0,0,0,3.13,-0.12,1.89,-6.44,-0.75,-0.13,21.375,22.375,-8.625,0.77325439453125,-0.01788330078125,-0.629638671875,-0.07281494140625,-50.375,18.6875,14.5,9.57,0.62,2.02,moving,1
8.0,615115.088270111,22,1,0,0,0,3.14,-0.08,2.19,-6.42,-0.72,0.13,19.125,22.0,-7.75,0.7744140625,-0.0159912109375,-0.6282958984375,-0.07232666015625,-51.0625,18.0,10.5625,9.56,0.64,2.05,moving,1
8.01,615115.088270111,22,1,0,0,0,2.67,0.01,1.99,-6.87,-0.65,-0.1,20.4375,24.0,-8.25,0.7757568359375,-0.0140380859375,-0.6268310546875,-0.07177734375,-51.0625,18.0,10.5625,9.55,0.66,2.09,moving,1
8.02,615115.103788259,22,1,0,0,0,2.48,0.19,2.34,-7.05,-0.5,0.21,14.4375,19.5,-10.125,0.7767333984375,-0.0123291015625,-0.6256103515625,-0.07171630859375,-51.0625,18.0,10.5625,9.54,0.69,2.12,moving,1
8.03,615115.103788259,22,1,0,0,0,3.04,0.07,2.34,-6.49,-0.62,0.2,-2.0625,5.375,-8.875,0.7769775390625,-0.011962890625,-0.625244140625,-0.07244873046875,-51.0625,18.0,10.5625,9.54,0.7,2.13,moving,1
8.04,615115.119464569,22,1,0,0,0,4.35,-0.09,2.15,-5.19,-0.8,0.04,-16.6875,-13.0625,-2.75,0.7762451171875,-0.0130615234375,-0.6259765625,-0.07354736328125,-51.0625,18.0,10.5625,9.54,0.7,2.11,moving,1
8.05,615115.119464569,22,1,0,0,0,6.28,-0.09,1.4,-3.29,-0.76,-0.58,-16.5,-76.625,16.875,0.77215576171875,-0.01556396484375,-0.63104248046875,-0.0732421875,-51.375,18.0,9.875,9.57,0.67,1.99,moving,1
8.06,615115.149205902,22,1,0,0,0,14.08,0.46,0.5,4.48,-0.16,-1.36,-16.5,-76.625,16.875,0.76800537109375,-0.01812744140625,-0.63604736328125,-0.0728759765625,-51.375,18.0,9.875,9.6,0.63,1.86,moving,1
8.07,615115.149205902,22,1,0,0,0,20.41,0.35,1.77,10.75,-0.2,0.15,-34.4375,-147.9375,34.0,0.7598876953125,-0.02325439453125,-0.6456298828125,-0.072265625,-51.375,18.0,9.875,9.65,0.56,1.62,moving,1
8.08,615115.16340093,22,1,0,0,0,25.43,-0.86,3.95,15.71,-1.31,2.7,-89.4375,-222.125,59.9375,0.74737548828125,-0.033935546875,-0.6595458984375,-0.0728759765625,-51.375,18.0,9.875,9.71,0.44,1.25,moving,1
8.09,615115.16340093,22,1,0,0,0,23.39,2.58,-1.2,13.63,2.29,-2.15,-76.5,-180.5625,84.625,0.7371826171875,-0.044921875,-0.67041015625,-0.07122802734375,-51.375,18.0,9.875,9.75,0.28,0.95,moving,1
8.1,615115.178716319,22,1,0,0,0,22.06,1.45,0.03,12.3,1.14,-0.9,28.8125,-8.1875,-11.0625,0.73675537109375,-0.04248046875,-0.67120361328125,-0.0701904296875,-51.75,18.375,11.75,9.75,0.31,0.93,moving,1
8.11,615115.178716319,22,1,0,0,0,20.15,0.36,-0.67,10.4,0.03,-1.59,28.8125,-8.1875,-11.0625,0.73626708984375,-0.0400390625,-0.67193603515625,-0.0692138671875,-51.75,18.375,11.75,9.75,0.33,0.91,moving,1
8.12,615115.195108612,22,1,0,0,0,17.37,1.85,-0.48,7.62,1.48,-1.45,71.9375,28.5625,-15.4375,0.73809814453125,-0.0343017578125,-0.67059326171875,-0.06610107421875,-51.75,18.375,11.75,9.75,0.37,0.96,moving,1
8.12,615115.195108612,22,1,0,0,0,17.37,1.85,-0.48,7.62,1.48,-1.45,71.9375,28.5625,-15.4375,0.73809814453125,-0.0343017578125,-0.67059326171875,-0.06610107421875,-51.75,18.375,11.75,9.75,0.37,0.96,moving,1
8.13,615115.210396332,22,1,0,0,0,13.7,0.88,0.98,3.97,0.48,-0.12,21.375,82.8125,-16.6875,0.74285888671875,-0.031494140625,-0.6654052734375,-0.066162109375,-51.75,18.375,11.75,9.73,0.4,1.1,moving,1
8.14,615115.210396332,22,1,0,0,0,11.76,1.48,2.08,2.05,1.04,0.79,15.4375,110.9375,-18.6875,0.74920654296875,-0.02874755859375,-0.6583251953125,-0.0667724609375,-51.75,18.375,11.75,9.71,0.43,1.29,moving,1
8.15,615115.239534597,22,1,0,0,0,8.7,1.96,3.66,-0.98,1.48,2.2,10.6875,99.125,-18.4375,0.7547607421875,-0.02642822265625,-0.65191650390625,-0.067626953125,-49.5625,20.875,15.25,9.68,0.47,1.45,moving,1
8.16,615115.239534597,22,1,0,0,0,7.13,1.35,2.12,-2.52,0.86,0.54,-7.0625,71.0625,-10.1875,0.75872802734375,-0.02587890625,-0.647216796875,-0.06884765625,-49.5625,20.875,15.25,9.66,0.48,1.57,moving,1
8.17,615115.255503469,22,1,0,0,0,4.82,-0.29,0.16,-4.82,-0.78,-1.49,-8.5625,51.8125,-2.25,0.7615966796875,-0.0260009765625,-0.64373779296875,-0.069580078125,-49.5625,20.875,15.25,9.65,0.49,1.66,moving,1
8.18,615115.255503469,22,1,0,0,0,3.89,-0.26,0.24,-5.73,-0.75,-1.5,0.6875,51.0625,-2.3125,0.76446533203125,-0.0255126953125,-0.640380859375,-0.06982421875,-49.5625,20.875,15.25,9.63,0.49,1.75,moving,1
8.19,615115.268506724,22,1,0,0,0,2.76,-0.38,0.2,-6.84,-0.89,-1.65,4.6875,60.8125,-6.9375,0.767822265625,-0.0244140625,-0.6363525390625,-0.0701904296875,-49.5625,20.875,15.25,9.61,0.5,1.85,moving,1
8.2,615115.268506724,22,1,0,0,0,1.92,-0.14,1.36,-7.66,-0.67,-0.58,-0.3125,63.375,-12.4375,0.771240234375,-0.02337646484375,-0.63214111328125,-0.07110595703125,-51.0625,18.0,11.75,9.59,0.52,1.95,moving,1
8.21,615115.299276133,22,1,0,0,0,2.19,-0.25,1.9,-7.37,-0.8,-0.15,-4.625,57.4375,-14.3125,0.7742919921875,-0.02252197265625,-0.62823486328125,-0.07244873046875,-51.0625,18.0,11.75,9.57,0.55,2.05,moving,1
8.22,615115.299276133,22,1,0,0,0,2.49,-0.23,2.36,-7.05,-0.81,0.23,0.0,46.375,-16.1875,0.7767333984375,-0.02130126953125,-0.6251220703125,-0.07366943359375,-51.0625,18.0,11.75,9.55,0.57,2.13,moving,1
8.23,615115.313610443,22,1,0,0,0,2.41,-0.42,2.33,-7.12,-1.04,0.14,9.25,35.4375,-20.5,0.778564453125,-0.01934814453125,-0.62286376953125,-0.0745849609375,-51.0625,18.0,11.75,9.53,0.61,2.19,moving,1
8.24,615115.313610443,22,1,0,0,0,2.39,-0.23,2.25,-7.12,-0.89,0.01,10.5,24.6875,-21.25,0.77978515625,-0.017333984375,-0.62127685546875,-0.07550048828125,-51.0625,18.0,11.75,9.52,0.65,2.23,moving,1
8.24,615115.329245941,22,1,0,0,0,2.68,-0.32,2.44,-6.84,-1.0,0.2,1.1875,8.5625,-16.75,0.78009033203125,-0.01629638671875,-0.6207275390625,-0.07659912109375,-50.75,19.5,9.875,9.52,0.68,2.24,moving,1
8.26,615115.329245941,22,1,0,0,0,3.08,-0.13,2.45,-6.44,-0.82,0.21,-9.875,-8.4375,-4.75,0.77960205078125,-0.0167236328125,-0.6212158203125,-0.07745361328125,-50.75,19.5,9.875,9.52,0.68,2.23,moving,1
8.27,615115.360501149,22,1,0,0,0,4.93,0.37,2.56,-4.6,-0.29,0.38,-17.0625,-30.25,5.125,0.7779541015625,-0.01837158203125,-0.6231689453125,-0.0780029296875,-50.75,19.5,9.875,9.53,0.67,2.18,moving,1
8.28,615115.360501149,22,1,0,0,0,6.59,0.73,2.24,-2.96,0.09,0.17,-29.375,-67.0,11.4375,0.77435302734375,-0.021484375,-0.62750244140625,-0.0787353515625,-50.75,19.5,9.875,9.56,0.64,2.07,moving,1
8.29,615115.373829519,22,1,0,0,0,9.16,0.81,1.95,-0.44,0.22,0.07,-47.0625,-118.0625,22.9375,0.76788330078125,-0.0267333984375,-0.635009765625,-0.07952880859375,-50.75,19.5,9.875,9.6,0.58,1.88,moving,1
8.3,615115.373829519,22,1,0,0,0,12.49,0.5,1.35,2.83,0.0,-0.25,-69.375,-163.4375,40.375,0.7589111328125,-0.03472900390625,-0.64532470703125,-0.08026123046875,-51.375,17.25,8.6875,9.65,0.49,1.61,moving,1
8.31,615115.403906667,22,1,0,0,0,24.6,-2.41,1.75,14.88,-2.77,0.47,-100.6875,-203.0625,64.8125,0.7474365234375,-0.04644775390625,-0.65771484375,-0.08099365234375,-51.375,17.25,8.6875,9.71,0.36,1.27,moving,1
8.32,615115.403906667,22,1,0,0,0,26.51,0.44,-0.37,16.76,0.23,-1.39,-28.0,-158.5,85.75,0.73876953125,-0.0543212890625,-0.66741943359375,-0.07635498046875,-51.375,17.25,8.6875,9.75,0.21,1.01,moving,1
8.33,615115.419574676,22,1,0,0,0,26.25,3.71,2.25,16.48,3.54,1.32,26.5,-47.875,29.8125,0.73626708984375,-0.0546875,-0.6705322265625,-0.0726318359375,-51.375,17.25,8.6875,9.76,0.16,0.92,moving,1
8.34,615115.419574676,22,1,0,0,0,21.97,3.24,1.9,12.22,3.0,0.93,40.875,21.6875,-37.5,0.73748779296875,-0.0496826171875,-0.6695556640625,-0.07275390625,-51.375,17.25,8.6875,9.75,0.23,0.96,moving,1
8.35,615115.433365936,22,1,0,0,0,15.09,0.21,-1.79,5.35,-0.1,-2.85,86.625,62.5,-37.375,0.74127197265625,-0.04156494140625,-0.66619873046875,-0.07037353515625,-50.375,16.875,15.1875,9.74,0.31,1.06,moving,1
8.36,615115.433365936,22,1,0,0,0,13.83,0.66,0.82,4.11,0.28,-0.35,68.25,71.0,-27.625,0.74542236328125,-0.03509521484375,-0.662109375,-0.0684814453125,-50.375,16.875,15.1875,9.72,0.37,1.18,moving,1
8.37,615115.44995993,22,1,0,0,0,12.79,1.61,2.24,3.09,1.21,0.91,-19.4375,85.875,-14.0625,0.750244140625,-0.0350341796875,-0.65643310546875,-0.07080078125,-50.375,16.875,15.1875,9.7,0.39,1.33,moving,1
8.37,615115.44995993,22,1,0,0,0,12.79,1.61,2.24,3.09,1.21,0.91,-19.4375,85.875,-14.0625,0.750244140625,-0.0350341796875,-0.65643310546875,-0.07080078125,-50.375,16.875,15.1875,9.7,0.39,1.33,moving,1
8.38,615115.46424708,22,1,0,0,0,9.42,0.04,3.55,-0.25,-0.38,2.05,-15.75,96.0,-22.125,0.7554931640625,-0.0341796875,-0.650146484375,-0.07342529296875,-50.375,16.875,15.1875,9.68,0.42,1.49,moving,1
8.39,615115.46424708,22,1,0,0,0,6.5,1.71,2.38,-3.14,1.24,0.72,2.3125,99.75,-21.25,0.760986328125,-0.03216552734375,-0.64361572265625,-0.07501220703125,-50.375,16.875,15.1875,9.65,0.46,1.66,moving,1
8.4,615115.479211599,22,1,0,0,0,5.28,0.66,1.41,-4.34,0.18,-0.35,-12.25,63.375,-10.5,0.76446533203125,-0.031982421875,-0.63934326171875,-0.0765380859375,-49.25,20.1875,15.1875,9.63,0.48,1.76,moving,1
8.41,615115.479211599,22,1,0,0,0,4.69,-0.72,0.21,-4.92,-1.2,-1.63,-11.625,45.25,-2.75,0.76690673828125,-0.03228759765625,-0.63623046875,-0.0775146484375,-49.25,20.1875,15.1875,9.61,0.48,1.84,moving,1
8.42,615115.509189219,22,1,0,0,0,3.67,-0.55,0.74,-5.93,-1.04,-1.18,16.0625,48.5,-3.8125,0.76959228515625,-0.03070068359375,-0.63311767578125,-0.0770263671875,-49.25,20.1875,15.1875,9.6,0.49,1.92,moving,1
8.43,615115.509189219,22,1,0,0,0,3.22,0.09,1.2,-6.35,-0.43,-0.82,28.4375,63.5,-11.0,0.77313232421875,-0.0277099609375,-0.6290283203125,-0.07635498046875,-49.25,20.1875,15.1875,9.57,0.52,2.03,moving,1
8.44,615115.523602915,22,1,0,0,0,3.28,0.44,2.68,-6.27,-0.1,0.55,10.6875,62.0,-15.0,0.77642822265625,-0.0257568359375,-0.62493896484375,-0.076904296875,-49.25,20.1875,15.1875,9.55,0.55,2.13,moving,1
8.45,615115.523602915,22,1,0,0,0,3.0,-0.19,2.73,-6.52,-0.76,0.51,-15.625,53.625,-12.9375,0.77923583984375,-0.0257568359375,-0.6212158203125,-0.07879638671875,-50.875,19.0625,11.0,9.53,0.56,2.22,moving,1
8.46,615115.539408946,22,1,0,0,0,2.75,-0.43,2.16,-6.75,-1.01,-0.12,-16.8125,41.8125,-11.8125,0.7813720703125,-0.02593994140625,-0.6182861328125,-0.08062744140625,-50.875,19.0625,11.0,9.51,0.57,2.29,moving,1
8.47,615115.539408946,22,1,0,0,0,2.86,-0.45,1.95,-6.64,-1.05,-0.36,-1.75,15.125,-14.75,0.7821044921875,-0.02520751953125,-0.6173095703125,-0.08172607421875,-50.875,19.0625,11.0,9.5,0.6,2.32,moving,1
8.48,615115.569260223,22,1,0,0,0,3.37,-0.27,2.29,-6.14,-0.89,0.01,0.625,-22.5625,-10.75,0.78076171875,-0.02471923828125,-0.61883544921875,-0.0823974609375,-50.875,19.0625,11.0,9.51,0.62,2.28,moving,1
8.49,615115.569260223,22,1,0,0,0,5.2,0.7,3.45,-4.33,0.07,1.25,-9.375,-52.0,-3.9375,0.7779541015625,-0.0255126953125,-0.622314453125,-0.08306884765625,-50.875,19.0625,11.0,9.53,0.62,2.19,moving,1
8.49,615115.584299611,22,1,0,0,0,6.07,1.0,3.58,-3.48,0.38,1.47,-16.5,-56.0,-1.625,0.77484130859375,-0.0269775390625,-0.6259765625,-0.08392333984375,-51.1875,18.6875,10.25,9.55,0.62,2.1,moving,1
8.51,615115.584299611,22,1,0,0,0,7.3,0.98,3.27,-2.27,0.37,1.25,-17.375,-54.5,0.0,0.77178955078125,-0.02850341796875,-0.6295166015625,-0.08477783203125,-51.1875,18.6875,10.25,9.57,0.61,2.01,moving,1
8.52,615115.600398326,22,1,0,0,0,10.83,0.42,1.3,1.23,-0.17,-0.59,-25.0625,-71.625,7.375,0.76788330078125,-0.0311279296875,-0.6341552734375,-0.08544921875,-51.1875,18.6875,10.25,9.6,0.59,1.9,moving,1
8.53,615115.600398326,22,1,0,0,0,14.24,-0.48,0.67,4.59,-1.03,-1.03,-45.625,-118.0,20.6875,0.76129150390625,-0.0362548828125,-0.6416015625,-0.0863037109375,-51.1875,18.6875,10.25,9.64,0.54,1.7,moving,1
8.54,615115.629758718,22,1,0,0,0,18.47,-1.72,1.13,8.78,-2.18,-0.3,-68.9375,-167.4375,40.75,0.751953125,-0.04437255859375,-0.6519775390625,-0.0869140625,-51.1875,18.6875,10.25,9.69,0.45,1.43,moving,1
8.55,615115.629758718,22,1,0,0,0,21.2,-0.03,-0.28,11.48,-0.42,-1.52,4.6875,-111.9375,41.3125,0.745849609375,-0.0472412109375,-0.65911865234375,-0.08349609375,-50.75,18.0,9.75,9.72,0.38,1.24,moving,1
8.56,615115.659282522,22,1,0,0,0,20.74,1.57,1.88,11.02,1.19,0.65,11.375,-10.125,7.3125,0.74542236328125,-0.0469970703125,-0.65985107421875,-0.082275390625,-50.75,18.0,9.75,9.72,0.37,1.22,moving,1
8.57,615115.659282522,22,1,0,0,0,19.55,2.27,1.58,9.84,1.87,0.27,12.75,51.5625,-10.875,0.74835205078125,-0.045166015625,-0.6566162109375,-0.08245849609375,-50.75,18.0,9.75,9.71,0.39,1.31,moving,1
8.58,615115.664167979,22,1,0,0,0,16.49,1.46,-0.16,6.79,1.02,-1.57,33.3125,56.75,-13.875,0.7515869140625,-0.041748046875,-0.6531982421875,-0.08172607421875,-50.75,18.0,9.75,9.69,0.43,1.4,moving,1
8.59,615115.664167979,22,1,0,0,0,15.86,0.83,0.68,6.17,0.38,-0.74,11.5625,18.9375,-9.875,0.752685546875,-0.04034423828125,-0.65203857421875,-0.081787109375,-50.75,18.0,9.75,9.69,0.45,1.43,moving,1
8.6,615115.688529633,22,1,0,0,0,14.32,0.52,2.22,4.64,0.06,0.74,-21.25,20.6875,-5.6875,0.75372314453125,-0.041259765625,-0.65057373046875,-0.08343505859375,-50.375,18.6875,14.375,9.68,0.45,1.47,moving,1
8.61,615115.688529633,22,1,0,0,0,11.97,1.09,3.96,2.3,0.61,2.36,-4.875,75.8125,-19.4375,0.75787353515625,-0.0399169921875,-0.6456298828125,-0.08526611328125,-50.375,18.6875,14.375,9.66,0.48,1.6,moving,1
8.62,615115.703176361,22,1,0,0,0,8.89,1.88,3.53,-0.74,1.36,1.78,-16.4375,85.25,-24.625,0.76239013671875,-0.0389404296875,-0.639892578125,-0.08807373046875,-50.375,18.6875,14.375,9.63,0.52,1.74,moving,1
8.63,615115.703176361,22,1,0,0,0,5.66,-0.43,0.87,-3.95,-0.97,-0.97,-28.0625,60.875,-15.8125,0.76556396484375,-0.03948974609375,-0.63568115234375,-0.0909423828125,-50.375,18.6875,14.375,9.61,0.54,1.85,moving,1
8.63,615115.719351491,22,1,0,0,0,5.66,-0.43,0.87,-3.95,-0.97,-0.97,-28.0625,60.875,-15.8125,0.76556396484375,-0.03948974609375,-0.63568115234375,-0.0909423828125,-50.375,18.6875,14.375,9.61,0.54,1.85,moving,1
8.64,615115.719351491,22,1,0,0,0,5.05,-0.2,0.53,-4.54,-0.76,-1.4,-10.4375,51.1875,-17.8125,0.7681884765625,-0.03875732421875,-0.63226318359375,-0.0928955078125,-50.375,18.6875,14.375,9.59,0.56,1.93,moving,1
8.65,615115.733425385,22,1,0,0,0,3.94,-0.17,0.51,-5.63,-0.78,-1.51,14.25,60.3125,-23.9375,0.7713623046875,-0.0360107421875,-0.62835693359375,-0.0938720703125,-50.75,16.875,13.1875,9.57,0.61,2.03,moving,1
8.66,615115.733425385,22,1,0,0,0,3.29,-0.15,1.0,-6.25,-0.82,-1.13,25.375,66.75,-26.5625,0.77490234375,-0.03228759765625,-0.6241455078125,-0.094482421875,-50.75,16.875,13.1875,9.54,0.66,2.14,moving,1
8.67,615115.748196788,22,1,0,0,0,2.64,-0.14,1.73,-6.86,-0.85,-0.52,23.625,74.375,-24.0,0.77880859375,-0.02880859375,-0.619384765625,-0.09503173828125,-50.75,16.875,13.1875,9.51,0.71,2.26,moving,1
8.68,615115.748196788,22,1,0,0,0,2.73,-0.08,1.99,-6.74,-0.84,-0.38,23.5,74.5,-21.4375,0.78265380859375,-0.025390625,-0.61456298828125,-0.09539794921875,-50.75,16.875,13.1875,9.48,0.75,2.38,moving,1
8.69,615115.779665131,22,1,0,0,0,2.56,-0.07,1.97,-6.88,-0.87,-0.51,23.875,64.1875,-18.875,0.7860107421875,-0.022216796875,-0.61041259765625,-0.0955810546875,-50.75,16.875,13.1875,9.45,0.8,2.48,moving,1
8.7,615115.779665131,22,1,0,0,0,2.72,0.17,1.69,-6.7,-0.65,-0.85,16.5,38.75,-14.125,0.7879638671875,-0.02001953125,-0.60791015625,-0.095703125,-51.75,15.875,10.1875,9.43,0.83,2.55,moving,1
8.71,615115.793092417,22,1,0,0,0,3.03,0.16,1.81,-6.39,-0.68,-0.74,3.125,5.875,-7.3125,0.7882080078125,-0.01934814453125,-0.6075439453125,-0.0960693359375,-51.75,15.875,10.1875,9.42,0.84,2.56,moving,1
8.72,615115.793092417,22,1,0,0,0,3.48,0.29,1.97,-5.94,-0.55,-0.55,-6.5625,-14.9375,-1.5,0.78741455078125,-0.01983642578125,-0.6085205078125,-0.09649658203125,-51.75,15.875,10.1875,9.43,0.84,2.53,moving,1
8.73,615115.808574148,22,1,0,0,0,4.0,0.59,2.3,-5.43,-0.24,-0.2,-12.5625,-19.5625,0.625,0.786376953125,-0.02093505859375,-0.6097412109375,-0.09710693359375,-51.75,15.875,10.1875,9.44,0.83,2.5,moving,1
8.74,615115.808574148,22,1,0,0,0,6.6,0.83,1.93,-2.85,0.01,-0.52,-27.3125,-30.5,4.25,0.78472900390625,-0.0233154296875,-0.611572265625,-0.09820556640625,-51.75,15.875,10.1875,9.45,0.81,2.46,moving,1
8.75,615115.838703461,22,1,0,0,0,9.22,0.63,1.44,-0.26,-0.13,-0.9,-54.0625,-73.6875,15.0625,0.78082275390625,-0.0284423828125,-0.6160888671875,-0.09991455078125,-51.375,16.5625,8.1875,9.49,0.77,2.34,moving,1
8.76,615115.838703461,22,1,0,0,0,12.88,0.39,1.1,3.32,-0.29,-1.01,-84.75,-146.375,30.6875,0.77288818359375,-0.037109375,-0.62518310546875,-0.10198974609375,-51.375,16.5625,8.1875,9.55,0.68,2.11,moving,1
8.77,615115.853713308,22,1,0,0,0,20.49,-0.52,4.2,10.87,-1.09,2.41,-113.6875,-199.8125,48.125,0.76190185546875,-0.0491943359375,-0.6373291015625,-0.104248046875,-51.375,16.5625,8.1875,9.62,0.56,1.79,moving,1
8.78,615115.853713308,22,1,0,0,0,19.32,2.28,1.67,9.65,1.81,0.09,-49.875,-127.9375,47.125,0.75494384765625,-0.0562744140625,-0.6451416015625,-0.10333251953125,-51.375,16.5625,8.1875,9.66,0.47,1.58,moving,1
8.79,615115.869072479,22,1,0,0,0,19.7,1.82,0.84,10.03,1.36,-0.67,-20.125,-36.75,5.1875,0.7528076171875,-0.0582275390625,-0.6473388671875,-0.10394287109375,-51.375,16.5625,8.1875,9.67,0.45,1.52,moving,1
8.8,615115.869072479,22,1,0,0,0,18.61,1.2,1.55,8.93,0.7,0.05,19.6875,-15.8125,-17.1875,0.75189208984375,-0.05609130859375,-0.64862060546875,-0.1038818359375,-51.75,15.1875,11.25,9.67,0.49,1.49,moving,1
8.81,615115.898497813,22,1,0,0,0,17.0,2.11,0.89,7.32,1.57,-0.58,66.75,-8.5,-13.625,0.7515869140625,-0.051025390625,-0.64984130859375,-0.1009521484375,-51.75,15.1875,11.25,9.68,0.53,1.47,moving,1
8.82,615115.898497813,22,1,0,0,0,16.72,2.55,1.82,7.04,1.98,0.36,39.5625,0.5,-15.25,0.75164794921875,-0.047607421875,-0.6502685546875,-0.0997314453125,-51.75,15.1875,11.25,9.67,0.57,1.46,moving,1
8.83,615115.914024465,22,1,0,0,0,14.25,1.96,1.78,4.57,1.4,0.27,-30.0,22.0625,-0.875,0.75274658203125,-0.04931640625,-0.6485595703125,-0.1015625,-51.75,15.1875,11.25,9.67,0.56,1.5,moving,1
8.84,615115.914024465,22,1,0,0,0,14.48,0.8,2.4,4.83,0.24,0.8,-25.625,54.5625,-4.0,0.75567626953125,-0.05029296875,-0.644775390625,-0.103515625,-51.75,15.1875,11.25,9.65,0.56,1.6,moving,1
8.85,615115.930116913,22,1,0,0,0,9.29,1.3,2.83,-0.33,0.71,1.08,4.75,84.625,-15.5625,0.76031494140625,-0.04833984375,-0.6392822265625,-0.10467529296875,-51.375,16.1875,13.25,9.63,0.59,1.74,moving,1
8.86,615115.930116913,22,1,0,0,0,7.81,0.66,1.69,-1.78,0.05,-0.18,10.3125,83.6875,-10.0,0.764892578125,-0.04632568359375,-0.63385009765625,-0.1051025390625,-51.375,16.1875,13.25,9.6,0.61,1.88,moving,1
8.87,615115.959192922,22,1,0,0,0,5.59,-0.06,0.53,-3.98,-0.68,-1.46,17.5625,70.0,-5.8125,0.76873779296875,-0.044189453125,-0.62933349609375,-0.10479736328125,-51.375,16.1875,13.25,9.57,0.62,2.0,moving,1
8.88,615115.959192922,22,1,0,0,0,3.67,0.12,0.43,-5.88,-0.52,-1.66,21.8125,57.3125,-9.625,0.77191162109375,-0.0416259765625,-0.625732421875,-0.1044921875,-51.375,16.1875,13.25,9.55,0.65,2.09,moving,1
8.89,615115.973874766,22,1,0,0,0,3.4,0.2,1.39,-6.13,-0.48,-0.76,22.375,41.8125,-13.3125,0.77410888671875,-0.03900146484375,-0.6231689453125,-0.10430908203125,-51.375,16.1875,13.25,9.54,0.68,2.16,moving,1
8.9,615115.973874766,22,1,0,0,0,3.4,0.2,1.39,-6.13,-0.48,-0.76,22.375,41.8125,-13.3125,0.77410888671875,-0.03900146484375,-0.6231689453125,-0.10430908203125,-51.375,16.1875,13.25,9.54,0.68,2.16,moving,1
8.9,615115.988505259,22,1,0,0,0,3.06,0.06,1.24,-6.46,-0.65,-0.97,21.375,38.0625,-17.375,0.776123046875,-0.0362548828125,-0.620849609375,-0.10443115234375,-51.0625,16.875,11.0,9.52,0.71,2.22,moving,1
8.91,615115.988505259,22,1,0,0,0,2.89,0.0,1.61,-6.61,-0.76,-0.65,27.9375,33.1875,-20.875,0.77777099609375,-0.032958984375,-0.618896484375,-0.10443115234375,-51.0625,16.875,11.0,9.5,0.76,2.27,moving,1
8.92,615116.00321994,22,1,0,0,0,2.61,0.18,1.55,-6.87,-0.62,-0.76,34.125,29.875,-21.8125,0.779296875,-0.0291748046875,-0.61724853515625,-0.10418701171875,-51.0625,16.875,11.0,9.49,0.81,2.31,moving,1
8.93,615116.00321994,22,1,0,0,0,2.96,0.31,1.81,-6.52,-0.54,-0.52,29.8125,14.8125,-22.0625,0.77996826171875,-0.02581787109375,-0.6165771484375,-0.1041259765625,-51.0625,16.875,11.0,9.48,0.86,2.33,moving,1
8.94,615116.018369639,22,1,0,0,0,3.03,0.25,1.57,-6.45,-0.64,-0.75,12.1875,-2.0625,-17.3125,0.77972412109375,-0.0240478515625,-0.6168212890625,-0.1046142578125,-51.0625,16.875,11.0,9.48,0.89,2.33,moving,1
8.95,615116.018369639,22,1,0,0,0,4.06,0.05,1.82,-5.42,-0.85,-0.47,-6.125,-16.3125,-9.0,0.77874755859375,-0.024169921875,-0.617919921875,-0.10552978515625,-51.75,13.875,10.25,9.48,0.91,2.3,moving,1
8.96,615116.049947764,22,1,0,0,0,4.84,0.27,2.07,-4.65,-0.62,-0.19,-19.5,-22.8125,-0.25,0.7774658203125,-0.02569580078125,-0.6192626953125,-0.1065673828125,-51.75,13.875,10.25,9.49,0.9,2.27,moving,1
8.97,615116.049947764,22,1,0,0,0,6.15,0.55,1.97,-3.35,-0.32,-0.24,-33.125,-34.1875,8.625,0.775634765625,-0.02874755859375,-0.62127685546875,-0.107666015625,-51.75,13.875,10.25,9.51,0.87,2.22,moving,1
8.98,615116.063440399,22,1,0,0,0,8.24,0.59,1.57,-1.29,-0.22,-0.54,-54.5625,-68.25,19.125,0.77197265625,-0.03411865234375,-0.62530517578125,-0.109130859375,-51.75,13.875,10.25,9.54,0.82,2.11,moving,1
8.99,615116.063440399,22,1,0,0,0,15.83,0.57,1.31,6.24,-0.15,-0.59,-85.4375,-127.0625,37.0,0.76507568359375,-0.0430908203125,-0.63287353515625,-0.1109619140625,-51.75,13.875,10.25,9.59,0.73,1.91,moving,1
9.0,615116.079005341,22,1,0,0,0,18.86,0.41,3.69,9.22,-0.18,2.02,-104.375,-154.875,61.75,0.756591796875,-0.054931640625,-0.641845703125,-0.11199951171875,-52.5,15.75,9.5,9.64,0.59,1.66,moving,1
9.01,615116.079005341,22,1,0,0,0,18.61,1.49,2.41,8.94,1.01,0.87,-58.5,-76.0625,56.4375,0.7525634765625,-0.06268310546875,-0.64599609375,-0.11114501953125,-52.5,15.75,9.5,9.67,0.48,1.54,moving,1
9.02,615116.111006562,22,1,0,0,0,17.0,1.11,1.46,7.33,0.65,-0.09,-30.5,7.75,8.0625,0.7529296875,-0.0650634765625,-0.6451416015625,-0.11236572265625,-52.5,15.75,9.5,9.67,0.46,1.55,moving,1
9.03,615116.111006562,22,1,0,0,0,15.47,0.56,1.49,5.81,0.07,-0.11,19.375,31.875,-16.1875,0.754638671875,-0.06256103515625,-0.64337158203125,-0.112548828125,-52.5,15.75,9.5,9.66,0.49,1.61,moving,1
9.04,615116.124440562,22,1,0,0,0,15.38,1.22,1.33,5.73,0.68,-0.31,40.75,24.5,-19.6875,0.75604248046875,-0.05853271484375,-0.6422119140625,-0.1116943359375,-52.5,15.75,9.5,9.65,0.53,1.64,moving,1
9.05,615116.124440562,22,1,0,0,0,13.66,1.15,1.22,4.01,0.6,-0.43,-3.4375,4.375,-7.25,0.7562255859375,-0.058349609375,-0.6419677734375,-0.11236572265625,-50.75,15.0625,13.6875,9.64,0.54,1.65,moving,1
9.06,615116.138652436,22,1,0,0,0,12.51,0.57,3.5,2.86,0.04,1.81,-37.375,11.75,0.875,0.7567138671875,-0.06072998046875,-0.64080810546875,-0.114501953125,-50.75,15.0625,13.6875,9.64,0.53,1.68,moving,1
9.07,615116.138652436,22,1,0,0,0,10.75,0.21,2.8,1.12,-0.33,1.03,-20.8125,53.3125,-8.0625,0.75946044921875,-0.0611572265625,-0.6370849609375,-0.116455078125,-50.75,15.0625,13.6875,9.62,0.54,1.77,moving,1
9.08,615116.168895884,22,1,0,0,0,9.0,-0.01,2.94,-0.59,-0.59,1.01,33.1875,91.875,-17.5625,0.7645263671875,-0.0570068359375,-0.63140869140625,-0.11627197265625,-50.75,15.0625,13.6875,9.59,0.58,1.92,moving,1
9.09,615116.168895884,22,1,0,0,0,6.47,1.14,2.15,-3.09,0.51,0.11,39.25,74.0,-17.875,0.76861572265625,-0.05267333984375,-0.626953125,-0.11566162109375,-50.75,15.0625,13.6875,9.57,0.62,2.04,moving,1
9.1,615116.183720836,22,1,0,0,0,5.09,-0.07,0.93,-4.46,-0.72,-1.15,22.25,27.125,-8.5625,0.7701416015625,-0.0504150390625,-0.62542724609375,-0.1151123046875,-51.75,16.75,13.6875,9.56,0.65,2.08,moving,1
9.11,615116.183720836,22,1,0,0,0,4.71,0.12,0.72,-4.84,-0.54,-1.36,23.4375,3.625,-6.5,0.77032470703125,-0.0484619140625,-0.62542724609375,-0.11431884765625,-51.75,16.75,13.6875,9.55,0.67,2.08,moving,1
9.12,615116.198052338,22,1,0,0,0,4.64,0.1,1.1,-4.9,-0.59,-1.0,38.3125,10.75,-11.6875,0.77099609375,-0.04510498046875,-0.6251220703125,-0.113037109375,-51.75,16.75,13.6875,9.55,0.7,2.1,moving,1
9.13,615116.198052338,22,1,0,0,0,3.78,0.42,1.55,-5.75,-0.31,-0.58,43.9375,24.9375,-15.0625,0.7723388671875,-0.04107666015625,-0.6239013671875,-0.11175537109375,-51.75,16.75,13.6875,9.54,0.74,2.13,moving,1
9.14,615116.228984426,22,1,0,0,0,3.33,0.39,1.29,-6.18,-0.38,-0.9,40.25,36.5,-13.5,0.77435302734375,-0.03729248046875,-0.62188720703125,-0.110595703125,-51.75,16.75,13.6875,9.52,0.78,2.19,moving,1
9.15,615116.228984426,22,1,0,0,0,3.15,0.35,1.52,-6.35,-0.45,-0.72,38.6875,37.375,-12.75,0.7763671875,-0.03363037109375,-0.6197509765625,-0.1094970703125,-52.1875,16.5,11.6875,9.5,0.81,2.25,moving,1
9.15,615116.234591238,22,1,0,0,0,3.15,0.35,1.52,-6.35,-0.45,-0.72,38.6875,37.375,-12.75,0.7763671875,-0.03363037109375,-0.6197509765625,-0.1094970703125,-52.1875,16.5,11.6875,9.5,0.81,2.25,moving,1
9.16,615116.234591238,22,1,0,0,0,2.99,0.58,1.72,-6.49,-0.26,-0.56,34.125,28.9375,-13.375,0.77789306640625,-0.03033447265625,-0.6181640625,-0.108642578125,-52.1875,16.5,11.6875,9.49,0.85,2.29,moving,1
9.17,615116.259788218,22,1,0,0,0,3.85,0.97,2.25,-5.63,0.09,-0.05,17.625,7.25,-11.125,0.77825927734375,-0.0284423828125,-0.61785888671875,-0.10845947265625,-52.1875,16.5,11.6875,9.49,0.88,2.3,moving,1
9.18,615116.259788218,22,1,0,0,0,4.71,0.83,1.99,-4.78,-0.05,-0.28,-7.625,-17.3125,-4.125,0.7772216796875,-0.02886962890625,-0.61895751953125,-0.109130859375,-52.1875,16.5,11.6875,9.49,0.88,2.27,moving,1
9.19,615116.274309621,22,1,0,0,0,6.09,0.58,1.59,-3.42,-0.28,-0.62,-27.5625,-34.0625,3.5,0.775390625,-0.03131103515625,-0.62103271484375,-0.11029052734375,-52.1875,16.5,11.6875,9.51,0.86,2.22,moving,1
9.2,615116.274309621,22,1,0,0,0,11.3,0.14,0.54,1.76,-0.68,-1.59,-42.375,-53.0,12.375,0.77252197265625,-0.03533935546875,-0.6241455078125,-0.111572265625,-51.75,15.0625,9.75,9.53,0.83,2.14,moving,1
9.21,615116.288835948,22,1,0,0,0,15.19,0.35,1.43,5.62,-0.4,-0.56,-68.6875,-94.375,26.5625,0.767333984375,-0.04229736328125,-0.62969970703125,-0.11328125,-51.75,15.0625,9.75,9.57,0.76,1.99,moving,1
9.22,615116.288835948,22,1,0,0,0,18.53,-0.18,4.45,8.91,-0.82,2.66,-106.0625,-125.1875,47.0625,0.760498046875,-0.05322265625,-0.63677978515625,-0.115478515625,-51.75,15.0625,9.75,9.61,0.64,1.79,moving,1
9.23,615116.32222344,22,1,0,0,0,18.32,0.67,2.51,8.67,0.13,0.83,-70.125,-71.0625,46.25,0.75665283203125,-0.0611572265625,-0.64056396484375,-0.115966796875,-51.75,15.0625,9.75,9.64,0.54,1.68,moving,1
9.24,615116.32222344,22,1,0,0,0,18.6,1.42,0.07,8.95,0.9,-1.57,-45.9375,-20.1875,7.9375,0.75531005859375,-0.06488037109375,-0.641357421875,-0.11785888671875,-51.75,15.0625,9.75,9.65,0.52,1.65,moving,1
9.24,615116.33409905,22,1,0,0,0,19.65,0.58,1.44,9.99,0.04,-0.16,-2.125,-29.375,-13.3125,0.7535400390625,-0.0645751953125,-0.64337158203125,-0.11871337890625,-52.1875,13.875,13.5625,9.65,0.54,1.6,moving,1
9.26,615116.33409905,22,1,0,0,0,18.85,1.18,1.24,9.18,0.62,-0.3,36.375,-29.875,-7.125,0.751953125,-0.06207275390625,-0.645751953125,-0.116943359375,-52.1875,13.875,13.5625,9.66,0.56,1.55,moving,1
9.27,615116.349182424,22,1,0,0,0,16.12,1.97,2.81,6.45,1.39,1.27,33.75,-8.0,-5.9375,0.75164794921875,-0.05963134765625,-0.64666748046875,-0.11541748046875,-52.1875,13.875,13.5625,9.66,0.58,1.53,moving,1
9.28,615116.349182424,22,1,0,0,0,15.04,2.0,3.73,5.38,1.41,2.16,-2.25,24.0625,-2.4375,0.75299072265625,-0.05938720703125,-0.64508056640625,-0.1158447265625,-52.1875,13.875,13.5625,9.66,0.58,1.57,moving,1
9.29,615116.382627167,22,1,0,0,0,12.87,1.19,2.72,3.22,0.59,1.06,-12.625,53.1875,-10.0625,0.75579833984375,-0.05908203125,-0.6414794921875,-0.11749267578125,-52.1875,13.875,13.5625,9.64,0.6,1.66,moving,1
9.3,615116.382627167,22,1,0,0,0,10.63,0.65,2.88,1.01,0.0,1.07,29.3125,86.1875,-21.375,0.760498046875,-0.0550537109375,-0.63616943359375,-0.11767578125,-51.0625,14.6875,14.0,9.61,0.64,1.8,moving,1
9.31,615116.39526946,22,1,0,0,0,5.84,1.19,1.32,-3.73,0.49,-0.64,39.5,97.5625,-23.0,0.765869140625,-0.0501708984375,-0.63018798828125,-0.11749267578125,-51.0625,14.6875,14.0,9.58,0.69,1.96,moving,1
9.32,615116.39526946,22,1,0,0,0,4.83,-0.16,0.72,-4.71,-0.89,-1.37,24.3125,80.5625,-13.9375,0.77020263671875,-0.04693603515625,-0.6251220703125,-0.117431640625,-51.0625,14.6875,14.0,9.55,0.73,2.09,moving,1
9.33,615116.409827932,22,1,0,0,0,3.71,-0.51,0.03,-5.8,-1.26,-2.17,26.6875,71.25,-10.0,0.77410888671875,-0.04388427734375,-0.62066650390625,-0.116943359375,-51.0625,14.6875,14.0,9.52,0.75,2.21,moving,1
9.34,615116.409827932,22,1,0,0,0,3.13,-0.62,0.65,-6.35,-1.42,-1.66,47.875,69.875,-12.5625,0.77789306640625,-0.03924560546875,-0.616455078125,-0.115478515625,-51.0625,14.6875,14.0,9.49,0.79,2.32,moving,1
9.35,615116.440937063,22,1,0,0,0,2.1,0.04,1.73,-7.35,-0.8,-0.69,58.3125,74.375,-17.875,0.78192138671875,-0.0335693359375,-0.61199951171875,-0.11376953125,-52.5,14.6875,11.0,9.46,0.85,2.43,moving,1
9.36,615116.440937063,22,1,0,0,0,1.97,0.33,2.06,-7.45,-0.56,-0.48,49.25,72.125,-18.0625,0.78570556640625,-0.028564453125,-0.60760498046875,-0.11260986328125,-52.5,14.6875,11.0,9.42,0.9,2.54,moving,1
9.37,615116.453221934,22,1,0,0,0,1.82,0.28,2.2,-7.56,-0.65,-0.44,34.375,65.625,-15.75,0.7890625,-0.02471923828125,-0.603515625,-0.11199951171875,-52.5,14.6875,11.0,9.39,0.94,2.65,moving,1
9.38,615116.453221934,22,1,0,0,0,1.75,0.23,2.1,-7.6,-0.74,-0.63,26.375,54.0625,-13.4375,0.7918701171875,-0.02166748046875,-0.60003662109375,-0.11163330078125,-52.5,14.6875,11.0,9.36,0.97,2.73,moving,1
9.39,615116.471429373,22,1,0,0,0,1.8,0.42,2.03,-7.54,-0.58,-0.74,18.25,28.1875,-12.0,0.793212890625,-0.01947021484375,-0.5982666015625,-0.111572265625,-52.5,14.6875,11.0,9.35,1.0,2.77,moving,1
9.4,615116.471429373,22,1,0,0,0,1.86,0.57,1.74,-7.49,-0.44,-1.01,1.625,-9.5,-8.125,0.79266357421875,-0.01904296875,-0.5989990234375,-0.112060546875,-52.875,14.25,8.25,9.35,1.02,2.76,moving,1
9.41,615116.484281179,22,1,0,0,0,2.22,0.64,1.63,-7.15,-0.37,-1.05,-15.25,-44.8125,-2.8125,0.790283203125,-0.0203857421875,-0.6019287109375,-0.11297607421875,-52.875,14.25,8.25,9.37,1.01,2.69,moving,1
9.41,615116.484281179,22,1,0,0,0,2.22,0.64,1.63,-7.15,-0.37,-1.05,-15.25,-44.8125,-2.8125,0.790283203125,-0.0203857421875,-0.6019287109375,-0.11297607421875,-52.875,14.25,8.25,9.37,1.01,2.69,moving,1
9.42,615116.498997488,22,1,0,0,0,3.86,0.34,1.56,-5.53,-0.65,-1.03,-24.0,-64.25,0.8125,0.786865234375,-0.022705078125,-0.6060791015625,-0.11407470703125,-52.875,14.25,8.25,9.4,1.0,2.59,moving,1
9.43,615116.498997488,22,1,0,0,0,5.25,0.4,1.7,-4.18,-0.58,-0.76,-26.9375,-74.125,4.25,0.78289794921875,-0.0255126953125,-0.61090087890625,-0.11505126953125,-52.875,14.25,8.25,9.43,0.98,2.47,moving,1
9.44,615116.529652151,22,1,0,0,0,6.84,0.51,1.65,-2.62,-0.43,-0.68,-35.5,-86.1875,9.5625,0.7783203125,-0.02935791015625,-0.61639404296875,-0.1160888671875,-52.875,14.25,8.25,9.47,0.95,2.33,moving,1
9.45,615116.529652151,22,1,0,0,0,10.49,0.72,1.92,0.97,-0.18,-0.24,-55.6875,-104.25,17.9375,0.772705078125,-0.03515625,-0.622802734375,-0.11761474609375,-52.875,15.375,7.5625,9.51,0.9,2.17,stop,1
9.46,615116.545284434,22,1,0,0,0,11.92,0.76,2.68,2.36,-0.06,0.68,-78.8125,-111.5,28.1875,0.7666015625,-0.04315185546875,-0.62939453125,-0.11962890625,-52.875,15.375,7.5625,9.56,0.82,2.0,stop,1
9.47,615116.545284434,22,1,0,0,0,13.63,0.46,2.37,4.03,-0.27,0.51,-90.25,-91.8125,32.875,0.76153564453125,-0.05194091796875,-0.6343994140625,-0.12200927734375,-52.875,15.375,7.5625,9.59,0.74,1.86,stop,1
9.48,615116.558913463,22,1,0,0,0,16.98,0.0,0.22,7.35,-0.65,-1.49,-69.5625,-91.9375,33.0625,0.7564697265625,-0.05938720703125,-0.63958740234375,-0.12322998046875,-52.875,15.375,7.5625,9.63,0.66,1.71,stop,1
9.49,615116.558913463,22,1,0,0,0,22.0,1.92,1.72,12.33,1.32,0.25,-27.3125,-145.9375,33.5625,0.74847412109375,-0.06463623046875,-0.648681640625,-0.12176513671875,-52.875,15.375,7.5625,9.67,0.6,1.47,stop,1
9.5,615116.590352061,22,1,0,0,0,22.17,3.3,3.73,12.46,2.74,2.44,-0.5,-112.25,24.125,0.7423095703125,-0.067138671875,-0.65582275390625,-0.11956787109375,-51.375,14.6875,13.0,9.7,0.56,1.28,stop,1
9.51,615116.590352061,22,1,0,0,0,18.43,2.93,2.6,8.73,2.36,1.31,15.4375,4.3125,-4.75,0.74261474609375,-0.06585693359375,-0.65576171875,-0.1190185546875,-51.375,14.6875,13.0,9.7,0.57,1.28,stop,1
9.52,615116.603321259,22,1,0,0,0,11.81,1.14,0.91,2.12,0.51,-0.46,33.1875,59.25,-27.4375,0.74591064453125,-0.0615234375,-0.65240478515625,-0.1192626953125,-51.375,14.6875,13.0,9.68,0.62,1.38,stop,1
9.53,615116.603321259,22,1,0,0,0,11.45,1.19,1.68,1.78,0.52,0.21,19.0,51.4375,-22.3125,0.74871826171875,-0.0584716796875,-0.64935302734375,-0.119873046875,-51.375,14.6875,13.0,9.67,0.66,1.46,stop,1
9.54,615116.618278005,22,1,0,0,0,11.55,0.9,1.98,1.89,0.22,0.47,-10.6875,20.8125,-14.0,0.74969482421875,-0.05816650390625,-0.64794921875,-0.12152099609375,-51.375,14.6875,13.0,9.66,0.68,1.5,stop,1
9.55,615116.618278005,22,1,0,0,0,11.53,0.35,3.63,1.87,-0.35,2.09,1.4375,21.5625,-13.5,0.750732421875,-0.05706787109375,-0.6466064453125,-0.1224365234375,-51.0625,14.6875,14.875,9.65,0.71,1.54,stop,1
9.56,615116.649090709,22,1,0,0,0,9.34,1.28,2.43,-0.3,0.55,0.82,5.875,36.625,-9.8125,0.75274658203125,-0.05572509765625,-0.64434814453125,-0.1229248046875,-51.0625,14.6875,14.875,9.64,0.73,1.6,stop,1
9.57,615116.649090709,22,1,0,0,0,9.21,0.56,1.37,-0.42,-0.16,-0.26,-12.0625,23.875,0.9375,0.7540283203125,-0.0562744140625,-0.64263916015625,-0.1236572265625,-51.0625,14.6875,14.875,9.64,0.72,1.64,stop,1
9.58,615116.664174693,22,1,0,0,0,8.57,0.61,0.96,-1.05,-0.1,-0.71,-10.0,19.3125,4.5625,0.755126953125,-0.0570068359375,-0.6412353515625,-0.1240234375,-51.0625,14.6875,14.875,9.63,0.71,1.67,stop,1
9.59,615116.664174693,22,1,0,0,0,8.61,0.61,1.93,-1.0,-0.09,0.21,0.6875,26.9375,1.875,0.75665283203125,-0.0567626953125,-0.639404296875,-0.12396240234375,-51.0625,14.6875,14.875,9.62,0.71,1.72,stop,1
9.6,615116.679137909,22,1,0,0,0,8.1,0.72,3.21,-1.51,0.01,1.43,-4.0,33.3125,0.0,0.75848388671875,-0.05670166015625,-0.63720703125,-0.1243896484375,-50.0,13.25,13.6875,9.61,0.71,1.78,stop,1
9.61,615116.679137909,22,1,0,0,0,7.84,0.74,2.61,-1.76,0.04,0.79,-13.5,22.0,2.875,0.75970458984375,-0.0574951171875,-0.63555908203125,-0.12506103515625,-50.0,13.25,13.6875,9.61,0.7,1.81,stop,1
9.62,615116.708992035,22,1,0,0,0,7.62,0.52,2.21,-1.98,-0.16,0.39,-14.5625,1.0625,4.25,0.75970458984375,-0.05865478515625,-0.63531494140625,-0.12554931640625,-50.0,13.25,13.6875,9.61,0.69,1.82,stop,1
9.63,615116.708992035,22,1,0,0,0,7.35,-0.27,1.63,-2.25,-0.94,-0.19,-19.75,0.625,4.8125,0.75970458984375,-0.06024169921875,-0.635009765625,-0.1263427734375,-50.0,13.25,13.6875,9.61,0.67,1.82,stop,1
9.64,615116.723270722,22,1,0,0,0,7.68,-0.26,2.19,-1.92,-0.92,0.33,-21.375,16.9375,4.4375,0.7606201171875,-0.06170654296875,-0.63360595703125,-0.1273193359375,-50.0,13.25,13.6875,9.6,0.66,1.85,stop,1
9.65,615116.723270722,22,1,0,0,0,7.55,-0.09,2.3,-2.04,-0.74,0.4,-11.5625,25.875,3.1875,0.76202392578125,-0.0623779296875,-0.63177490234375,-0.1279296875,-51.0625,15.375,13.6875,9.59,0.65,1.9,stop,1
9.66,615116.738649384,22,1,0,0,0,8.36,0.19,2.82,-1.23,-0.45,0.9,0.25,6.8125,2.9375,0.76239013671875,-0.0625,-0.63128662109375,-0.12774658203125,-51.0625,15.375,13.6875,9.59,0.64,1.91,stop,1
9.67,615116.738649384,22,1,0,0,0,9.6,0.75,2.74,0.0,0.11,0.86,3.0625,-17.1875,7.1875,0.7615966796875,-0.0628662109375,-0.63238525390625,-0.12701416015625,-51.0625,15.375,13.6875,9.6,0.63,1.88,stop,1
9.68,615116.769855073,22,1,0,0,0,9.92,0.8,2.71,0.31,0.18,0.86,0.0,-19.25,8.5625,0.7606201171875,-0.06353759765625,-0.63360595703125,-0.1263427734375,-51.0625,15.375,13.6875,9.6,0.62,1.85,stop,1
9.69,615116.769855073,22,1,0,0,0,9.61,0.71,2.47,0.0,0.11,0.62,-5.125,-1.0625,8.5,0.7606201171875,-0.06439208984375,-0.63360595703125,-0.12603759765625,-51.0625,15.375,13.6875,9.61,0.6,1.85,stop,1
9.7,615116.782926565,22,1,0,0,0,9.33,0.6,2.3,-0.27,0.01,0.45,-6.5625,2.4375,7.8125,0.76080322265625,-0.06524658203125,-0.63330078125,-0.12591552734375,-50.75,13.5625,12.5625,9.61,0.59,1.85,stop,1
9.71,615116.782926565,22,1,0,0,0,9.64,0.44,2.31,0.03,-0.13,0.47,-4.8125,-12.625,7.125,0.76019287109375,-0.0660400390625,-0.634033203125,-0.1256103515625,-50.75,13.5625,12.5625,9.61,0.57,1.83,stop,1
9.72,615116.798239431,22,1,0,0,0,9.62,0.48,2.22,0.0,-0.07,0.41,-0.5,-16.875,6.4375,0.75927734375,-0.06658935546875,-0.6351318359375,-0.12506103515625,-50.75,13.5625,12.5625,9.62,0.56,1.8,stop,1
9.73,615116.798239431,22,1,0,0,0,9.49,0.46,2.14,-0.13,-0.09,0.33,-1.3125,0.5625,3.375,0.7593994140625,-0.06689453125,-0.635009765625,-0.12493896484375,-50.75,13.5625,12.5625,9.62,0.56,1.8,stop,1
9.74,615116.829059947,22,1,0,0,0,8.82,0.25,1.97,-0.78,-0.29,0.14,-4.8125,9.25,3.25,0.7598876953125,-0.0672607421875,-0.63433837890625,-0.12506103515625,-50.75,13.5625,12.5625,9.61,0.55,1.82,stop,1
9.75,615116.829059947,22,1,0,0,0,9.15,0.3,2.12,-0.47,-0.23,0.3,-1.875,-4.0625,4.125,0.75970458984375,-0.06768798828125,-0.634521484375,-0.1248779296875,-51.375,15.375,13.0,9.62,0.54,1.81,stop,1
9.76,615116.843734508,22,1,0,0,0,9.39,0.25,2.09,-0.23,-0.28,0.3,1.75,-13.625,4.4375,0.759033203125,-0.0679931640625,-0.63543701171875,-0.1243896484375,-51.375,15.375,13.0,9.62,0.53,1.79,stop,1
9.76,615116.843734508,22,1,0,0,0,9.39,0.25,2.09,-0.23,-0.28,0.3,1.75,-13.625,4.4375,0.759033203125,-0.0679931640625,-0.63543701171875,-0.1243896484375,-51.375,15.375,13.0,9.62,0.53,1.79,stop,1
9.77,615116.849182058,22,1,0,0,0,9.37,0.37,2.18,-0.25,-0.15,0.4,2.5,-9.5625,5.1875,0.75860595703125,-0.06817626953125,-0.63604736328125,-0.12384033203125,-51.375,15.375,13.0,9.62,0.53,1.78,stop,1
9.78,615116.849182058,22,1,0,0,0,9.28,0.4,2.15,-0.34,-0.12,0.37,1.0,-0.5,4.625,0.7586669921875,-0.068359375,-0.63604736328125,-0.12347412109375,-51.375,15.375,13.0,9.62,0.52,1.78,stop,1
