timestamp,android_nano_timestamp,temperature,calib_mag,calib_accel,calib_gyro,calib_sys,acc_x,acc_y,acc_z,lacc_x,lacc_y,lacc_z,gyro_x,gyro_y,gyro_z,quat_w,quat_x,quat_y,quat_z,mag_x,mag_y,mag_z,gravity_x,gravity_y,gravity_z,label,person
4.63,1848319.580960272,23,3,3,0,3,23.24,1.29,-1.88,13.58,-0.39,-2.14,-26.75,-12.0,-3.0625,0.716064453125,0.10198974609375,-0.6903076171875,-0.01904296875,-33.5625,42.5,-10.0625,9.65,1.68,0.25,moving,3
4.64,1848319.580960272,23,3,3,0,3,17.33,3.06,-1.73,7.7,1.31,-2.14,2.75,96.0625,-39.625,0.7216796875,0.10467529296875,-0.6839599609375,-0.02044677734375,-33.5625,42.5,-10.0625,9.63,1.75,0.41,moving,3
4.66,1848319.592760036,23,3,3,0,3,14.99,3.41,-1.19,5.38,1.56,-1.78,3.125,106.1875,-53.75,0.7279052734375,0.1082763671875,-0.67669677734375,-0.022705078125,-33.5625,42.5,-10.0625,9.61,1.84,0.59,moving,3
4.67,1848319.592760036,23,3,3,0,3,13.51,3.86,-0.53,3.93,1.92,-1.24,-37.375,62.625,-58.75,0.73175048828125,0.10858154296875,-0.6722412109375,-0.02899169921875,-32.75,44.25,-5.75,9.58,1.94,0.71,moving,3
4.68,1848319.604184556,23,3,3,0,3,12.72,3.96,0.18,3.16,1.93,-0.62,-86.3125,40.75,-59.9375,0.7347412109375,0.10662841796875,-0.6688232421875,-0.03753662109375,-32.75,44.25,-5.75,9.56,2.02,0.8,moving,3
4.69,1848319.604184556,23,3,3,0,3,10.08,3.48,1.13,0.55,1.38,0.18,-122.4375,55.125,-57.3125,0.7388916015625,0.102294921875,-0.664306640625,-0.04779052734375,-32.75,44.25,-5.75,9.53,2.1,0.94,moving,3
4.7,1848319.638905707,23,3,3,0,3,8.58,3.11,1.2,-0.9,0.93,0.05,-136.625,88.6875,-57.5625,0.74493408203125,0.09716796875,-0.65740966796875,-0.05865478515625,-32.75,44.25,-5.75,9.49,2.17,1.14,moving,3
4.7,1848319.638905707,23,3,3,0,3,7.44,2.0,1.18,-1.99,-0.24,-0.19,-130.625,116.0,-62.1875,0.75225830078125,0.09283447265625,-0.64862060546875,-0.06915283203125,-32.75,44.25,-5.75,9.44,2.24,1.38,moving,3
4.71,1848319.653972561,23,3,3,0,3,6.73,0.8,1.04,-2.64,-1.51,-0.58,-115.625,124.25,-65.75,0.75970458984375,0.0897216796875,-0.63916015625,-0.0789794921875,-33.1875,43.5625,-7.75,9.38,2.32,1.63,moving,3
4.72,1848319.653972561,23,3,3,0,3,5.44,-1.03,1.39,-3.87,-3.44,-0.47,-99.9375,120.125,-67.125,0.76666259765625,0.087646484375,-0.62994384765625,-0.08807373046875,-33.1875,43.5625,-7.75,9.32,2.4,1.87,moving,3
4.74,1848319.66767007,23,3,3,0,3,4.66,-1.68,1.53,-4.58,-4.16,-0.57,-93.875,121.1875,-68.25,0.7734375,0.0860595703125,-0.6204833984375,-0.09686279296875,-33.1875,43.5625,-7.75,9.24,2.48,2.1,moving,3
4.75,1848319.66767007,23,3,3,0,3,3.72,-1.85,1.43,-5.44,-4.4,-0.93,-98.5625,134.5625,-67.9375,0.78076171875,0.08416748046875,-0.6099853515625,-0.10577392578125,-33.1875,43.5625,-7.75,9.16,2.55,2.36,moving,3
4.76,1848319.694699896,23,3,3,0,3,1.75,-1.38,0.83,-7.3,-4.0,-1.82,-105.0625,156.8125,-68.25,0.78912353515625,0.08209228515625,-0.5977783203125,-0.11480712890625,-33.1875,43.5625,-7.75,9.06,2.61,2.66,moving,3
4.77,1848319.694699896,23,3,3,0,3,1.01,-0.92,0.38,-7.93,-3.59,-2.61,-107.5,180.5625,-68.4375,0.79852294921875,0.08001708984375,-0.58367919921875,-0.123779296875,-36.75,42.875,-7.75,8.94,2.67,2.99,moving,3
4.78,1848319.709901556,23,3,3,0,3,0.56,-0.43,-0.01,-8.24,-3.15,-3.35,-100.625,188.0,-65.6875,0.80792236328125,0.078369140625,-0.56890869140625,-0.13214111328125,-36.75,42.875,-7.75,8.81,2.71,3.33,moving,3
4.79,1848319.709901556,23,3,3,0,3,-0.16,-0.07,-0.39,-8.84,-2.82,-4.01,-85.125,163.5,-58.125,0.8157958984375,0.07708740234375,-0.55596923828125,-0.13934326171875,-36.75,42.875,-7.75,8.68,2.75,3.62,moving,3
4.79,1848319.744668239,23,3,3,0,3,-0.94,0.82,0.01,-9.53,-1.95,-3.81,-70.75,109.9375,-48.5625,0.82098388671875,0.07574462890625,-0.546875,-0.14544677734375,-36.75,42.875,-7.75,8.59,2.78,3.82,moving,3
4.81,1848319.744668239,23,3,3,0,3,-1.15,1.08,0.46,-9.69,-1.72,-3.46,-58.6875,51.8125,-45.4375,0.8232421875,0.0743408203125,-0.5421142578125,-0.15118408203125,-36.75,42.875,-7.75,8.53,2.8,3.93,moving,3
4.82,1848319.754169216,23,3,3,0,3,-1.23,1.37,0.62,-9.74,-1.45,-3.35,-49.9375,10.6875,-40.75,0.82379150390625,0.0738525390625,-0.540283203125,-0.15484619140625,-37.875,41.75,-9.25,8.5,2.83,3.97,moving,3
4.82,1848319.754169216,23,3,3,0,3,-1.23,1.37,0.62,-9.74,-1.45,-3.35,-49.9375,10.6875,-40.75,0.82379150390625,0.0738525390625,-0.540283203125,-0.15484619140625,-37.875,41.75,-9.25,8.5,2.83,3.97,moving,3
4.83,1848319.762202094,23,3,3,0,3,-1.14,1.69,0.57,-9.64,-1.16,-3.39,-44.875,-20.375,-33.1875,0.82269287109375,0.0718994140625,-0.54095458984375,-0.159423828125,-37.875,41.75,-9.25,8.5,2.85,3.96,moving,3
4.84,1848319.762202094,23,3,3,0,3,0.55,2.49,-0.01,-7.97,-0.37,-3.91,-40.3125,-58.375,-27.625,0.81976318359375,0.06951904296875,-0.54437255859375,-0.1636962890625,-37.875,41.75,-9.25,8.52,2.86,3.89,moving,3
4.85,1848319.789551662,23,3,3,0,3,1.65,2.68,0.04,-6.94,-0.19,-3.69,-32.0625,-116.375,-19.6875,0.8140869140625,0.06646728515625,-0.5521240234375,-0.16729736328125,-37.875,41.75,-9.25,8.59,2.87,3.74,moving,3
4.86,1848319.789551662,23,3,3,0,3,2.98,2.97,0.27,-5.72,0.1,-3.2,-18.25,-177.1875,-5.5625,0.80548095703125,0.06280517578125,-0.5643310546875,-0.16961669921875,-37.875,41.75,-9.25,8.7,2.86,3.48,moving,3
4.87,1848319.804497422,23,3,3,0,3,4.86,3.21,0.58,-3.98,0.35,-2.54,-1.0,-234.9375,10.1875,0.7939453125,0.05877685546875,-0.58074951171875,-0.170166015625,-38.25,40.6875,-8.5,8.84,2.85,3.12,moving,3
4.88,1848319.804497422,23,3,3,0,3,9.86,3.62,1.52,0.85,0.8,-1.13,15.25,-291.8125,26.5,0.7791748046875,0.05413818359375,-0.60113525390625,-0.16900634765625,-38.25,40.6875,-8.5,9.0,2.81,2.66,moving,3
4.89,1848319.834194078,23,3,3,0,3,13.67,4.3,2.51,4.5,1.53,0.39,30.25,-334.4375,40.5,0.76177978515625,0.04913330078125,-0.62420654296875,-0.16619873046875,-38.25,40.6875,-8.5,9.16,2.76,2.11,moving,3
4.9,1848319.834194078,23,3,3,0,3,20.48,5.47,9.22,11.19,2.78,7.61,25.9375,-304.625,52.3125,0.74560546875,0.0435791015625,-0.64483642578125,-0.16253662109375,-38.25,40.6875,-8.5,9.29,2.69,1.61,moving,3
4.91,1848319.844174628,23,3,3,0,3,22.65,6.38,0.57,13.29,3.81,-0.79,-45.3125,-159.875,65.3125,0.73760986328125,0.03466796875,-0.65478515625,-0.16143798828125,-38.25,40.6875,-8.5,9.36,2.57,1.37,moving,3
4.92,1848319.844174628,23,3,3,0,3,24.9,3.71,-3.19,15.5,1.23,-4.51,-82.125,-58.4375,46.0625,0.73504638671875,0.025634765625,-0.657470703125,-0.16357421875,-39.25,40.0,-1.25,9.39,2.47,1.31,moving,3
4.93,1848319.85899433,23,3,3,0,3,26.61,2.27,-1.81,17.19,-0.15,-3.07,-59.9375,-51.125,25.125,0.73260498046875,0.0196533203125,-0.65997314453125,-0.16552734375,-39.25,40.0,-1.25,9.41,2.42,1.25,moving,3
4.94,1848319.85899433,23,3,3,0,3,24.95,3.3,-0.02,15.53,0.87,-1.3,8.5,14.6875,-1.75,0.7333984375,0.0205078125,-0.65911865234375,-0.16510009765625,-39.25,40.0,-1.25,9.41,2.42,1.27,moving,3
4.95,1848319.893736273,23,3,3,0,3,19.72,6.0,0.7,10.33,3.52,-0.69,128.5625,102.875,-13.3125,0.73876953125,0.03094482421875,-0.65435791015625,-0.15838623046875,-39.25,40.0,-1.25,9.38,2.48,1.39,moving,3
4.96,1848319.893736273,23,3,3,0,3,16.96,9.33,4.32,7.6,6.78,2.88,205.0625,87.3125,-12.1875,0.742919921875,0.04608154296875,-0.65142822265625,-0.14715576171875,-39.25,40.0,-1.25,9.35,2.55,1.44,moving,3
4.97,1848319.907277899,23,3,3,0,3,15.48,11.08,4.45,6.12,8.49,3.08,131.75,-6.375,-3.8125,0.74188232421875,0.0548095703125,-0.6534423828125,-0.13983154296875,-36.75,41.0625,4.75,9.35,2.58,1.37,moving,3
4.98,1848319.907277899,23,3,3,0,3,15.73,8.15,1.86,6.34,5.58,0.61,32.0625,-69.375,15.875,0.73797607421875,0.05511474609375,-0.65838623046875,-0.1373291015625,-36.75,41.0625,4.75,9.38,2.57,1.24,moving,3
4.99,1848319.922427883,23,3,3,0,3,14.97,6.56,2.29,5.58,4.01,1.13,32.5,-39.9375,13.125,0.73565673828125,0.0560302734375,-0.66143798828125,-0.134765625,-36.75,41.0625,4.75,9.39,2.55,1.16,moving,3
5.0,1848319.922427883,23,3,3,0,3,13.09,6.75,2.39,3.69,4.18,1.21,65.25,23.25,4.5,0.7366943359375,0.06024169921875,-0.66070556640625,-0.130615234375,-36.75,41.0625,4.75,9.39,2.56,1.17,moving,3
5.01,1848319.949527533,23,3,3,0,3,11.45,6.4,2.09,2.06,3.83,0.89,71.1875,39.625,1.5,0.73858642578125,0.065185546875,-0.65899658203125,-0.126220703125,-36.75,41.0625,4.75,9.38,2.57,1.2,moving,3
5.02,1848319.949527533,23,3,3,0,3,10.35,5.35,1.71,0.97,2.76,0.49,65.125,24.4375,1.3125,0.73968505859375,0.0697021484375,-0.65814208984375,-0.1220703125,-37.875,41.0625,0.6875,9.38,2.58,1.21,moving,3
5.03,1848319.966536892,23,3,3,0,3,7.89,3.65,1.65,-1.48,1.05,0.42,70.5625,26.875,0.375,0.74078369140625,0.0745849609375,-0.6571044921875,-0.11785888671875,-37.875,41.0625,0.6875,9.37,2.6,1.22,moving,3
5.04,1848319.966536892,23,3,3,0,3,6.31,3.09,1.71,-3.04,0.47,0.43,82.125,52.25,-3.625,0.7431640625,0.08062744140625,-0.654541015625,-0.113037109375,-37.875,41.0625,0.6875,9.36,2.62,1.27,moving,3
5.05,1848319.982643296,23,3,3,0,3,4.68,2.54,1.74,-4.65,-0.1,0.38,87.25,79.125,-6.0,0.7469482421875,0.08740234375,-0.65020751953125,-0.10791015625,-37.875,41.0625,0.6875,9.34,2.65,1.36,moving,3
5.06,1848319.982643296,23,3,3,0,3,2.08,1.1,2.05,-7.22,-1.57,0.55,85.375,102.9375,-3.6875,0.75201416015625,0.09417724609375,-0.64422607421875,-0.10247802734375,-37.875,41.0625,0.6875,9.31,2.68,1.49,moving,3
5.07,1848320.000361151,23,3,3,0,3,1.14,0.32,2.25,-8.13,-2.38,0.58,77.75,130.375,0.125,0.75872802734375,0.1009521484375,-0.63629150390625,-0.09649658203125,-37.5,41.375,-2.375,9.27,2.7,1.66,moving,3
5.07,1848320.000361151,23,3,3,0,3,1.14,0.32,2.25,-8.13,-2.38,0.58,77.75,130.375,0.125,0.75872802734375,0.1009521484375,-0.63629150390625,-0.09649658203125,-37.5,41.375,-2.375,9.27,2.7,1.66,moving,3
5.08,1848320.011606553,23,3,3,0,3,0.4,-0.23,2.36,-8.82,-2.95,0.46,64.375,162.375,3.875,0.76708984375,0.10638427734375,-0.62603759765625,-0.0911865234375,-37.5,41.375,-2.375,9.22,2.72,1.89,moving,3
5.09,1848320.011606553,23,3,3,0,3,-0.22,-0.43,2.44,-9.39,-3.15,0.25,48.0625,199.125,7.375,0.7774658203125,0.11077880859375,-0.613037109375,-0.08624267578125,-37.5,41.375,-2.375,9.16,2.72,2.19,moving,3
5.1,1848320.045106268,23,3,3,0,3,-2.02,0.2,2.68,-11.09,-2.51,0.12,29.125,238.1875,8.0,0.789794921875,0.11407470703125,-0.5970458984375,-0.08184814453125,-37.5,41.375,-2.375,9.06,2.72,2.55,moving,3
5.11,1848320.045106268,23,3,3,0,3,-2.96,0.58,2.61,-11.89,-2.13,-0.38,2.125,278.5,5.3125,0.8040771484375,0.11590576171875,-0.5777587890625,-0.07855224609375,-37.5,41.375,-2.375,8.93,2.71,2.99,moving,3
5.12,1848320.056478013,23,3,3,0,3,-3.64,0.86,1.94,-12.4,-1.82,-1.55,-31.9375,315.8125,6.0,0.820068359375,0.115478515625,-0.55523681640625,-0.0765380859375,-36.5,41.0625,-8.5,8.75,2.69,3.49,moving,3
5.13,1848320.056478013,23,3,3,0,3,-4.09,0.66,1.01,-12.65,-1.96,-3.0,-66.5,322.3125,13.875,0.83612060546875,0.1121826171875,-0.53167724609375,-0.07550048828125,-36.5,41.0625,-8.5,8.55,2.62,4.01,moving,3
5.14,1848320.071505194,23,3,3,0,3,-4.71,-0.36,-0.4,-13.06,-2.89,-4.89,-95.9375,293.6875,23.3125,0.8504638671875,0.10601806640625,-0.5096435546875,-0.0753173828125,-36.5,41.0625,-8.5,8.34,2.52,4.49,moving,3
5.15,1848320.071505194,23,3,3,0,3,-4.04,-0.95,-1.06,-12.19,-3.34,-5.96,-115.5,250.3125,30.5625,0.8626708984375,0.09771728515625,-0.490478515625,-0.07586669921875,-36.5,41.0625,-8.5,8.15,2.38,4.9,moving,3
5.16,1848320.086975531,23,3,3,0,3,-2.05,-1.54,-1.89,-10.06,-3.77,-7.09,-119.4375,183.25,34.5625,0.87158203125,0.08843994140625,-0.47607421875,-0.07684326171875,-36.5,41.0625,-8.5,8.0,2.22,5.2,moving,3
5.17,1848320.086975531,23,3,3,0,3,0.79,-1.92,-2.39,-7.18,-3.98,-7.71,-97.0,53.3125,55.875,0.87506103515625,0.0802001953125,-0.4715576171875,-0.07421875,-33.875,42.1875,-17.0,7.97,2.06,5.31,moving,3
5.18,1848320.120852566,23,3,3,0,3,10.07,-2.02,-3.89,1.89,-3.91,-8.96,-41.4375,-186.5625,90.9375,0.86810302734375,0.07208251953125,-0.486083984375,-0.07025146484375,-33.875,42.1875,-17.0,8.17,1.89,5.07,moving,3
5.19,1848320.120852566,23,3,3,0,3,16.19,-2.4,-4.33,7.52,-4.17,-8.57,65.375,-552.5,127.4375,0.843994140625,0.06817626953125,-0.5284423828125,-0.06121826171875,-33.875,42.1875,-17.0,8.66,1.76,4.23,moving,3
5.2,1848320.133741238,23,3,3,0,3,22.1,-2.81,-5.59,12.82,-4.44,-8.28,219.0625,-947.125,168.0,0.7969970703125,0.07122802734375,-0.59814453125,-0.04425048828125,-33.875,42.1875,-17.0,9.28,1.63,2.68,moving,3
5.21,1848320.133741238,23,3,3,0,3,35.15,-1.13,-13.25,25.46,-2.55,-13.85,383.625,-1196.875,194.9375,0.7283935546875,0.0826416015625,-0.67987060546875,-0.01800537109375,-33.875,42.1875,-17.0,9.68,1.42,0.6,moving,3
5.22,1848320.147503689,23,3,3,0,3,38.88,0.19,-5.51,29.23,-0.95,-4.17,442.1875,-1093.0,144.0625,0.6571044921875,0.09991455078125,-0.7470703125,0.00946044921875,-30.25,44.6875,-14.6875,9.64,1.14,-1.33,moving,3
5.23,1848320.147503689,23,3,3,0,3,39.25,0.68,5.33,29.69,-0.38,7.27,295.125,-328.375,-4.9375,0.63262939453125,0.1173095703125,-0.76507568359375,0.0255126953125,-30.25,44.6875,-14.6875,9.55,1.07,-1.94,moving,3
5.24,1848320.179368313,23,3,3,0,3,38.05,12.21,13.93,28.37,11.04,15.0,40.4375,522.5,-62.0625,0.66650390625,0.12237548828125,-0.7347412109375,0.0301513671875,-30.25,44.6875,-14.6875,9.67,1.16,-1.07,moving,3
5.25,1848320.179368313,23,3,3,0,3,10.48,6.7,-3.52,0.76,5.44,-3.61,-175.5625,665.25,-50.125,0.7098388671875,0.11346435546875,-0.69476318359375,0.02301025390625,-30.25,44.6875,-14.6875,9.72,1.26,0.08,moving,3
5.26,1848320.192331854,23,3,3,0,3,12.03,-0.59,-3.25,2.33,-1.91,-3.77,-214.1875,225.875,-38.5625,0.7254638671875,0.10205078125,-0.68060302734375,0.0098876953125,-30.25,44.6875,-14.6875,9.7,1.31,0.51,moving,3
5.27,1848320.192331854,23,3,3,0,3,14.57,-0.37,-1.99,4.86,-1.67,-2.32,-144.25,-126.875,6.6875,0.7191162109375,0.09259033203125,-0.688720703125,0.00067138671875,-31.375,45.75,-6.25,9.71,1.29,0.33,moving,3
5.28,1848320.208886298,23,3,3,0,3,16.58,1.1,-1.53,6.86,-0.21,-1.47,-45.8125,-239.1875,-14.375,0.7049560546875,0.090576171875,-0.70343017578125,-0.00494384765625,-31.375,45.75,-6.25,9.71,1.32,-0.05,moving,3
5.29,1848320.208886298,23,3,3,0,3,16.68,2.94,-1.19,6.98,1.54,-0.83,36.5625,-169.625,-49.4375,0.694091796875,0.09576416015625,-0.71343994140625,-0.007080078125,-31.375,45.75,-6.25,9.69,1.4,-0.35,moving,3
5.3,1848320.238039374,23,3,3,0,3,14.95,2.97,-0.78,5.27,1.48,-0.34,42.125,-40.0,-53.375,0.69122314453125,0.10162353515625,-0.7154541015625,-0.00799560546875,-31.375,45.75,-6.25,9.68,1.48,-0.43,moving,3
5.31,1848320.238039374,23,3,3,0,3,13.39,2.38,-0.23,3.72,0.8,0.08,-32.125,61.375,-50.4375,0.69525146484375,0.10284423828125,-0.71124267578125,-0.01251220703125,-31.375,45.75,-6.25,9.67,1.57,-0.32,moving,3
5.32,1848320.251637478,23,3,3,0,3,11.87,0.63,0.78,2.21,-1.05,0.86,-121.25,123.5625,-60.5,0.703857421875,0.099365234375,-0.7030029296875,-0.0225830078125,-31.375,46.1875,-5.75,9.66,1.68,-0.08,moving,3
5.33,1848320.251637478,23,3,3,0,3,7.84,-2.08,2.55,-1.78,-3.89,2.22,-174.125,209.8125,-75.4375,0.71783447265625,0.09368896484375,-0.68896484375,-0.03607177734375,-31.375,46.1875,-5.75,9.63,1.8,0.32,moving,3
5.33,1848320.267015733,23,3,3,0,3,7.84,-2.08,2.55,-1.78,-3.89,2.22,-174.125,209.8125,-75.4375,0.71783447265625,0.09368896484375,-0.68896484375,-0.03607177734375,-31.375,46.1875,-5.75,9.63,1.8,0.32,moving,3
5.34,1848320.267015733,23,3,3,0,3,4.53,-1.86,2.48,-5.03,-3.78,1.56,-186.75,314.75,-81.9375,0.73760986328125,0.08782958984375,-0.6676025390625,-0.0498046875,-31.375,46.1875,-5.75,9.57,1.92,0.91,moving,3
5.35,1848320.281381496,23,3,3,0,3,1.03,-1.36,2.06,-8.42,-3.37,0.46,-186.0,376.0,-80.1875,0.76007080078125,0.08209228515625,-0.6416015625,-0.0628662109375,-31.375,46.1875,-5.75,9.46,2.01,1.6,moving,3
5.36,1848320.281381496,23,3,3,0,3,-1.53,-0.59,1.41,-10.84,-2.67,-0.87,-193.875,380.8125,-81.5625,0.78173828125,0.07586669921875,-0.6142578125,-0.0762939453125,-31.375,46.1875,-5.75,9.3,2.08,2.29,moving,3
5.37,1848320.312699327,23,3,3,0,3,-4.73,1.1,1.08,-13.83,-1.03,-1.87,-205.75,365.125,-96.375,0.80145263671875,0.0693359375,-0.58697509765625,-0.0914306640625,-33.1875,44.6875,-6.1875,9.1,2.14,2.95,moving,3
5.38,1848320.312699327,23,3,3,0,3,-4.75,1.43,-0.06,-13.6,-0.76,-3.67,-208.625,372.0,-114.0625,0.82025146484375,0.06353759765625,-0.55816650390625,-0.10772705078125,-33.1875,44.6875,-6.1875,8.84,2.2,3.61,moving,3
5.39,1848320.325619574,23,3,3,0,3,-4.93,1.51,-1.82,-13.5,-0.7,-6.03,-213.375,336.5,-112.0,0.836181640625,0.05682373046875,-0.5311279296875,-0.12420654296875,-33.1875,44.6875,-6.1875,8.57,2.22,4.21,moving,3
5.4,1848320.325619574,23,3,3,0,3,-5.9,0.86,-4.98,-14.24,-1.34,-9.64,-229.125,242.6875,-107.1875,0.8470458984375,0.04766845703125,-0.51019287109375,-0.141357421875,-33.1875,44.6875,-6.1875,8.34,2.2,4.65,moving,3
5.41,1848320.342040351,23,3,3,0,3,-4.4,-0.35,-6.65,-12.59,-2.52,-11.6,-236.6875,138.0625,-109.0625,0.8525390625,0.0367431640625,-0.4964599609375,-0.1593017578125,-33.1875,44.6875,-6.1875,8.18,2.16,4.94,moving,3
5.42,1848320.342040351,23,3,3,0,3,-2.55,-2.18,-7.75,-10.68,-4.31,-12.8,-215.8125,17.25,-105.9375,0.852294921875,0.0255126953125,-0.49176025390625,-0.17645263671875,-35.375,44.6875,-9.25,8.13,2.12,5.05,moving,3
5.43,1848320.37490115,23,3,3,0,3,-0.67,-3.19,-7.83,-8.87,-5.3,-12.77,-159.0625,-118.1875,-88.0625,0.8460693359375,0.015625,-0.497802734375,-0.1900634765625,-35.375,44.6875,-9.25,8.2,2.11,4.94,moving,3
5.44,1848320.37490115,23,3,3,0,3,3.12,-1.7,-5.22,-5.24,-3.84,-9.86,-68.1875,-227.125,-60.375,0.8350830078125,0.00946044921875,-0.5133056640625,-0.19769287109375,-35.375,44.6875,-9.25,8.37,2.14,4.63,moving,3
5.45,1848320.388659695,23,3,3,0,3,4.31,-1.02,-4.63,-4.27,-3.23,-8.81,24.75,-300.6875,-31.4375,0.82073974609375,0.0074462890625,-0.535400390625,-0.1990966796875,-35.375,44.6875,-9.25,8.58,2.21,4.18,moving,3
5.46,1848320.388659695,23,3,3,0,3,5.56,-0.72,-4.19,-3.28,-3.0,-7.72,90.6875,-401.375,-7.0625,0.80126953125,0.00732421875,-0.56536865234375,-0.1954345703125,-35.375,44.6875,-9.25,8.85,2.28,3.53,moving,3
5.47,1848320.402149848,23,3,3,0,3,7.69,-1.0,-2.69,-1.44,-3.33,-5.38,149.75,-501.8125,16.1875,0.77587890625,0.0084228515625,-0.6024169921875,-0.18707275390625,-36.5,41.75,-3.1875,9.13,2.33,2.68,moving,3
5.48,1848320.402149848,23,3,3,0,3,12.91,-0.11,-0.03,3.57,-2.51,-1.81,240.625,-504.1875,24.1875,0.74871826171875,0.01513671875,-0.6397705078125,-0.17291259765625,-36.5,41.75,-3.1875,9.34,2.39,1.77,moving,3
5.49,1848320.431823757,23,3,3,0,3,16.73,1.16,3.19,7.28,-1.28,2.28,345.0625,-437.25,15.25,0.72320556640625,0.03021240234375,-0.67279052734375,-0.15301513671875,-36.5,41.75,-3.1875,9.45,2.44,0.91,moving,3
5.5,1848320.431823757,23,3,3,0,3,32.29,14.1,33.72,22.8,11.66,33.47,317.125,-321.875,23.4375,0.7032470703125,0.04449462890625,-0.69683837890625,-0.1336669921875,-36.5,41.75,-3.1875,9.49,2.44,0.24,moving,3
5.51,1848320.447871772,23,3,3,0,3,28.68,15.53,13.21,19.15,13.21,13.01,-30.875,-35.0,69.5625,0.7020263671875,0.0379638671875,-0.69891357421875,-0.13140869140625,-36.5,41.75,-3.1875,9.52,2.32,0.19,moving,3
5.52,1848320.447871772,23,3,3,0,3,22.52,3.81,-7.18,12.96,1.59,-7.3,-97.25,-73.5,61.375,0.698486328125,0.02740478515625,-0.70245361328125,-0.1337890625,-36.0,42.1875,5.5625,9.55,2.21,0.11,moving,3
5.53,1848320.461813748,23,3,3,0,3,24.76,5.35,-5.72,15.2,3.18,-5.6,9.625,-134.375,29.125,0.6905517578125,0.02459716796875,-0.71075439453125,-0.1317138671875,-36.0,42.1875,5.5625,9.56,2.16,-0.11,moving,3
5.54,1848320.461813748,23,3,3,0,3,26.38,7.88,-4.22,16.82,5.67,-4.0,114.9375,-41.1875,-29.375,0.68731689453125,0.03289794921875,-0.7144775390625,-0.12646484375,-36.0,42.1875,5.5625,9.55,2.21,-0.22,moving,3
5.55,1848320.49333983,23,3,3,0,3,22.02,8.68,-2.33,12.48,6.4,-2.18,148.25,86.5,-42.5,0.6917724609375,0.04534912109375,-0.71075439453125,-0.1195068359375,-36.0,42.1875,5.5625,9.53,2.28,-0.14,moving,3
5.56,1848320.49333983,23,3,3,0,3,20.6,7.76,-1.37,11.08,5.43,-1.38,96.3125,110.4375,-27.875,0.6978759765625,0.0540771484375,-0.70489501953125,-0.11474609375,-36.0,42.1875,5.5625,9.52,2.32,0.0,moving,3
5.57,1848320.508333279,23,3,3,0,3,19.49,7.05,-0.91,9.97,4.7,-0.97,26.0,40.1875,-10.875,0.7000732421875,0.05670166015625,-0.70269775390625,-0.1136474609375,-33.75,42.5,6.25,9.52,2.34,0.05,moving,3
5.58,1848320.508333279,23,3,3,0,3,19.38,6.38,0.26,9.86,4.04,0.23,16.25,-11.9375,4.3125,0.69927978515625,0.05731201171875,-0.70361328125,-0.1124267578125,-33.75,42.5,6.25,9.52,2.33,0.03,moving,3
5.59,1848320.523971462,23,3,3,0,3,17.54,5.13,1.24,8.01,2.79,1.22,53.5625,5.9375,0.0,0.69940185546875,0.0606689453125,-0.7037353515625,-0.10906982421875,-33.75,42.5,6.25,9.52,2.33,0.02,moving,3
5.59,1848320.523971462,23,3,3,0,3,17.54,5.13,1.24,8.01,2.79,1.22,53.5625,5.9375,0.0,0.69940185546875,0.0606689453125,-0.7037353515625,-0.10906982421875,-33.75,42.5,6.25,9.52,2.33,0.02,moving,3
5.6,1848320.538080471,23,3,3,0,3,15.12,4.6,0.63,5.6,2.25,0.56,90.3125,50.3125,-7.3125,0.701904296875,0.06707763671875,-0.70147705078125,-0.10369873046875,-33.75,42.5,6.25,9.52,2.35,0.06,moving,3
5.61,1848320.538080471,23,3,3,0,3,12.95,4.18,0.33,3.43,1.81,0.19,102.125,69.1875,-11.0625,0.70538330078125,0.07464599609375,-0.69805908203125,-0.09771728515625,-33.75,42.5,6.25,9.51,2.37,0.13,moving,3
5.62,1848320.551535834,23,3,3,0,3,11.08,3.57,0.08,1.58,1.17,-0.14,100.5,80.75,-15.5,0.70947265625,0.08245849609375,-0.69384765625,-0.092041015625,-35.5625,42.875,3.25,9.5,2.39,0.23,moving,3
5.63,1848320.551535834,23,3,3,0,3,7.59,2.48,0.49,-1.9,0.04,0.13,96.625,100.375,-16.0,0.71466064453125,0.0902099609375,-0.688232421875,-0.08648681640625,-35.5625,42.875,3.25,9.49,2.43,0.35,moving,3
5.64,1848320.584540473,23,3,3,0,3,5.79,2.13,0.91,-3.68,-0.32,0.39,83.0,120.5,-12.8125,0.7210693359375,0.0970458984375,-0.68121337890625,-0.081298828125,-35.5625,42.875,3.25,9.47,2.45,0.52,moving,3
5.65,1848320.584540473,23,3,3,0,3,4.11,1.56,1.32,-5.33,-0.91,0.59,60.1875,146.1875,-10.625,0.72906494140625,0.10247802734375,-0.67230224609375,-0.0771484375,-35.5625,42.875,3.25,9.45,2.48,0.73,moving,3
5.66,1848320.593936347,23,3,3,0,3,2.48,0.77,1.61,-6.93,-1.73,0.58,33.4375,191.875,-9.4375,0.7398681640625,0.1064453125,-0.66015625,-0.0740966796875,-35.5625,42.875,3.25,9.42,2.5,1.03,moving,3
5.67,1848320.593936347,23,3,3,0,3,-1.21,-0.71,1.48,-10.58,-3.23,0.02,3.4375,257.4375,-7.9375,0.75439453125,0.1087646484375,-0.643310546875,-0.07196044921875,-36.6875,43.1875,-3.5625,9.36,2.51,1.45,moving,3
5.68,1848320.607638292,23,3,3,0,3,-2.8,-1.43,1.02,-12.06,-3.95,-0.99,-29.1875,338.5625,-8.9375,0.77325439453125,0.10943603515625,-0.6204833984375,-0.07098388671875,-36.6875,43.1875,-3.5625,9.25,2.52,2.02,moving,3
5.69,1848320.607638292,23,3,3,0,3,-3.84,-1.57,0.23,-12.92,-4.08,-2.49,-66.8125,424.1875,-10.6875,0.7962646484375,0.10809326171875,-0.5909423828125,-0.07122802734375,-36.6875,43.1875,-3.5625,9.07,2.51,2.72,moving,3
5.7,1848320.64338052,23,3,3,0,3,-5.09,-0.64,-2.24,-13.89,-3.11,-5.8,-104.6875,503.5,-13.9375,0.822265625,0.10455322265625,-0.55462646484375,-0.07275390625,-36.6875,43.1875,-3.5625,8.79,2.47,3.55,moving,3
5.71,1848320.64338052,23,3,3,0,3,-5.3,-0.14,-4.22,-13.7,-2.54,-8.66,-133.75,548.1875,-9.75,0.84893798828125,0.09881591796875,-0.5137939453125,-0.0748291015625,-36.6875,43.1875,-3.5625,8.4,2.39,4.43,moving,3
5.72,1848320.652689928,23,3,3,0,3,-5.14,0.25,-6.35,-13.13,-2.01,-11.56,-140.5625,499.8125,9.75,0.8717041015625,0.09112548828125,-0.4754638671875,-0.0760498046875,-35.5625,43.1875,-10.0625,7.99,2.26,5.21,moving,3
5.73,1848320.652689928,23,3,3,0,3,-4.36,0.15,-7.66,-12.05,-1.97,-13.36,-104.8125,329.0625,28.125,0.88592529296875,0.0841064453125,-0.44976806640625,-0.07562255859375,-35.5625,43.1875,-10.0625,7.69,2.12,5.7,moving,3
5.74,1848320.674282131,23,3,3,0,3,0.31,-0.21,-3.79,-7.31,-2.26,-9.59,-16.0625,75.0,45.0625,0.8892822265625,0.08160400390625,-0.4442138671875,-0.07220458984375,-35.5625,43.1875,-10.0625,7.63,2.05,5.8,moving,3
5.75,1848320.674282131,23,3,3,0,3,2.16,-0.11,-2.03,-5.63,-2.15,-7.61,88.1875,-144.3125,72.5,0.8834228515625,0.084716796875,-0.4564208984375,-0.064208984375,-35.5625,43.1875,-10.0625,7.8,2.04,5.58,moving,3
5.76,1848320.701882066,23,3,3,0,3,3.55,0.24,-1.35,-4.55,-1.81,-6.46,167.8125,-294.625,102.0625,0.87060546875,0.0919189453125,-0.4805908203125,-0.05181884765625,-35.5625,43.1875,-10.0625,8.11,2.05,5.11,moving,3
5.77,1848320.701882066,23,3,3,0,3,4.94,0.63,-0.95,-3.57,-1.43,-5.33,224.625,-446.375,117.75,0.8497314453125,0.1019287109375,-0.51593017578125,-0.0369873046875,-29.0625,44.6875,-17.0,8.52,2.07,4.38,moving,3
5.78,1848320.717501817,23,3,3,0,3,8.76,1.35,-0.65,-0.21,-0.72,-3.99,276.125,-610.5,121.25,0.8187255859375,0.11474609375,-0.56219482421875,-0.02093505859375,-29.0625,44.6875,-17.0,8.98,2.07,3.34,moving,3
5.79,1848320.717501817,23,3,3,0,3,11.61,1.99,-0.09,2.23,-0.03,-2.1,326.875,-761.0,123.6875,0.77630615234375,0.13031005859375,-0.61676025390625,-0.003662109375,-29.0625,44.6875,-17.0,9.38,2.02,2.01,moving,3
5.8,1848320.744197415,23,3,3,0,3,18.31,4.07,5.04,8.7,2.18,4.51,343.1875,-827.6875,129.5,0.72564697265625,0.1458740234375,-0.67230224609375,0.01409912109375,-29.0625,44.6875,-17.0,9.6,1.89,0.52,moving,3
5.81,1848320.744197415,23,3,3,0,3,36.45,12.61,26.0,26.8,10.97,26.44,158.4375,-541.375,149.1875,0.6907958984375,0.14764404296875,-0.70733642578125,0.02587890625,-29.0625,44.6875,-17.0,9.65,1.64,-0.43,moving,3
5.82,1848320.754696397,23,3,3,0,3,25.16,-0.92,-8.08,15.47,-2.37,-7.71,-144.625,13.125,116.4375,0.693115234375,0.13165283203125,-0.70831298828125,0.024169921875,-30.0625,44.0,-14.6875,9.69,1.45,-0.37,moving,3
5.83,1848320.754696397,23,3,3,0,3,23.43,-1.98,-6.61,13.72,-3.36,-6.51,-212.0,132.75,50.4375,0.70343017578125,0.11541748046875,-0.70111083984375,0.015625,-30.0625,44.0,-14.6875,9.7,1.37,-0.09,moving,3
5.84,1848320.777623237,23,3,3,0,3,21.31,-1.68,-3.99,11.6,-3.0,-4.11,-173.6875,101.875,33.5,0.71124267578125,0.10260009765625,-0.69537353515625,0.00811767578125,-30.0625,44.0,-14.6875,9.71,1.32,0.11,moving,3
5.85,1848320.777623237,23,3,3,0,3,21.31,-1.68,-3.99,11.6,-3.0,-4.11,-173.6875,101.875,33.5,0.71124267578125,0.10260009765625,-0.69537353515625,0.00811767578125,-30.0625,44.0,-14.6875,9.71,1.32,0.11,moving,3
5.85,1848320.793113919,23,3,3,0,3,20.26,-1.57,-0.21,10.54,-2.88,-0.57,-65.8125,132.8125,2.4375,0.7198486328125,0.0982666015625,-0.6871337890625,0.00543212890625,-30.0625,44.0,-14.6875,9.71,1.31,0.35,moving,3
5.86,1848320.793113919,23,3,3,0,3,20.54,0.54,3.49,10.85,-0.8,2.92,48.75,135.625,-17.0,0.72747802734375,0.10223388671875,-0.67840576171875,0.00848388671875,-30.0625,44.0,-14.6875,9.69,1.34,0.57,moving,3
5.87,1848320.806380195,23,3,3,0,3,20.71,3.88,8.21,11.03,2.49,7.54,109.375,72.9375,-15.6875,0.73077392578125,0.11004638671875,-0.67352294921875,0.01458740234375,-30.375,46.1875,-7.0,9.68,1.38,0.67,moving,3
5.88,1848320.806380195,23,3,3,0,3,19.01,5.55,5.94,9.33,4.14,5.26,61.75,15.125,-12.875,0.7310791015625,0.11468505859375,-0.67236328125,0.017578125,-30.375,46.1875,-7.0,9.68,1.41,0.68,moving,3
5.89,1848320.823078762,23,3,3,0,3,19.32,2.16,1.16,9.63,0.73,0.59,-30.0625,-71.25,-16.375,0.72723388671875,0.11383056640625,-0.6767578125,0.0140380859375,-30.375,46.1875,-7.0,9.68,1.43,0.56,moving,3
5.9,1848320.823078762,23,3,3,0,3,19.31,1.57,1.2,9.63,0.1,0.77,-74.5,-92.8125,-21.0,0.72247314453125,0.1104736328125,-0.6824951171875,0.00738525390625,-30.375,46.1875,-7.0,9.68,1.46,0.43,moving,3
5.91,1848320.857311876,23,3,3,0,3,17.34,1.14,0.42,7.66,-0.36,-0.01,-77.375,-7.8125,-28.875,0.72271728515625,0.1072998046875,-0.6827392578125,0.00091552734375,-30.375,46.1875,-7.0,9.67,1.5,0.43,moving,3
5.92,1848320.857311876,23,3,3,0,3,14.77,0.83,-0.14,5.11,-0.73,-0.72,-63.0625,71.1875,-41.1875,0.7275390625,0.10577392578125,-0.6778564453125,-0.0047607421875,-29.375,46.0625,-11.1875,9.66,1.57,0.57,moving,3
5.93,1848320.869793281,23,3,3,0,3,10.56,-0.02,0.69,0.93,-1.68,-0.04,-51.0625,88.875,-55.25,0.73321533203125,0.1058349609375,-0.671630859375,-0.010498046875,-29.375,46.0625,-11.1875,9.63,1.65,0.73,moving,3
5.94,1848320.869793281,23,3,3,0,3,9.12,-0.21,1.4,-0.48,-1.97,0.5,-44.5,90.0625,-63.875,0.73876953125,0.10675048828125,-0.66522216796875,-0.01629638671875,-29.375,46.0625,-11.1875,9.6,1.76,0.9,moving,3
5.95,1848320.883357774,23,3,3,0,3,7.73,-0.22,1.75,-1.82,-2.07,0.65,-39.0,111.375,-63.5625,0.7454833984375,0.10809326171875,-0.6573486328125,-0.0216064453125,-29.375,46.0625,-11.1875,9.56,1.85,1.1,moving,3
5.96,1848320.883357774,23,3,3,0,3,5.86,0.22,2.15,-3.64,-1.72,0.8,-31.75,142.625,-61.0,0.7537841796875,0.1097412109375,-0.64739990234375,-0.02606201171875,-29.375,46.0625,-11.1875,9.51,1.95,1.35,moving,3
5.97,1848320.913818102,23,3,3,0,3,1.01,1.53,3.01,-8.42,-0.51,1.35,-26.375,182.9375,-62.625,0.76409912109375,0.1119384765625,-0.63458251953125,-0.0299072265625,-30.75,46.0625,-8.875,9.44,2.05,1.66,moving,3
5.98,1848320.913818102,23,3,3,0,3,-1.02,2.06,2.68,-10.37,-0.07,0.63,-40.75,225.5,-66.0,0.776611328125,0.11346435546875,-0.61871337890625,-0.03436279296875,-30.75,46.0625,-8.875,9.34,2.14,2.04,moving,3
5.99,1848320.931137397,23,3,3,0,3,-1.94,2.69,1.85,-11.17,0.47,-0.61,-83.75,242.625,-65.5,0.7901611328125,0.11199951171875,-0.6011962890625,-0.0408935546875,-30.75,46.0625,-8.875,9.22,2.21,2.47,moving,3
6.0,1848320.931137397,23,3,3,0,3,-2.43,2.91,1.02,-11.52,0.65,-1.87,-135.75,230.25,-67.0625,0.8031005859375,0.10693359375,-0.58404541015625,-0.05035400390625,-30.75,46.0625,-8.875,9.09,2.26,2.89,moving,3
6.01,1848320.943662503,23,3,3,0,3,-3.18,2.19,0.14,-12.13,-0.08,-3.14,-178.6875,212.5,-72.125,0.81500244140625,0.0989990234375,-0.5675048828125,-0.0625,-30.75,46.0625,-8.875,8.95,2.27,3.29,moving,3
6.02,1848320.943662503,23,3,3,0,3,-3.75,1.52,-0.29,-12.55,-0.74,-3.98,-216.8125,201.9375,-79.1875,0.826171875,0.08856201171875,-0.55108642578125,-0.07708740234375,-31.875,44.875,-12.0,8.79,2.26,3.69,moving,3
6.03,1848320.974148668,23,3,3,0,3,-3.71,0.44,-0.75,-12.34,-1.77,-4.85,-251.4375,205.5,-82.625,0.83709716796875,0.07574462890625,-0.53369140625,-0.093505859375,-31.875,44.875,-12.0,8.62,2.22,4.1,moving,3
6.04,1848320.974148668,23,3,3,0,3,-2.02,-1.61,-2.26,-10.47,-3.74,-6.77,-280.3125,202.5625,-77.625,0.8472900390625,0.060546875,-0.515869140625,-0.11083984375,-31.875,44.875,-12.0,8.44,2.12,4.51,moving,3
6.05,1848321.031311998,23,3,3,0,3,-1.15,-2.64,-3.51,-9.42,-4.64,-8.38,-281.5,173.9375,-72.5,0.8555908203125,0.04461669921875,-0.49969482421875,-0.12786865234375,-31.875,44.875,-12.0,8.27,2.0,4.87,moving,3
6.06,1848321.031311998,23,3,3,0,3,-0.36,-3.53,-4.66,-8.51,-5.43,-9.77,-233.4375,109.4375,-69.625,0.8602294921875,0.03143310546875,-0.48846435546875,-0.14276123046875,-31.875,44.875,-12.0,8.15,1.89,5.1,moving,3
6.07,1848321.04559219,23,3,3,0,3,0.26,-3.75,-4.68,-7.87,-5.6,-9.83,-135.75,-3.8125,-52.875,0.8597412109375,0.0234375,-0.48687744140625,-0.15252685546875,-32.5625,44.875,-10.75,8.13,1.85,5.14,moving,3
6.08,1848321.04559219,23,3,3,0,3,3.23,-2.44,-2.38,-5.0,-4.32,-7.35,-13.375,-122.8125,-26.875,0.8541259765625,0.02197265625,-0.495849609375,-0.15533447265625,-32.5625,44.875,-10.75,8.23,1.87,4.97,moving,3
6.09,1848321.053667304,23,3,3,0,3,4.95,-1.76,-1.52,-3.48,-3.73,-6.12,101.375,-233.0625,-4.25,0.84356689453125,0.0264892578125,-0.51446533203125,-0.15167236328125,-32.5625,44.875,-10.75,8.43,1.96,4.6,moving,3
6.1,1848321.053667304,23,3,3,0,3,6.99,-0.96,-0.86,-1.71,-3.05,-4.86,198.875,-354.0625,15.5,0.826904296875,0.03570556640625,-0.5428466796875,-0.142333984375,-32.5625,44.875,-10.75,8.7,2.09,4.0,moving,3
6.11,1848321.056758857,23,3,3,0,3,6.99,-0.96,-0.86,-1.71,-3.05,-4.86,198.875,-354.0625,15.5,0.826904296875,0.03570556640625,-0.5428466796875,-0.142333984375,-32.5625,44.875,-10.75,8.7,2.09,4.0,moving,3
6.11,1848321.056758857,23,3,3,0,3,9.29,-0.11,-0.29,0.28,-2.34,-3.43,292.75,-485.75,30.3125,0.8023681640625,0.04931640625,-0.5809326171875,-0.12762451171875,-32.5625,44.875,-10.75,9.01,2.23,3.14,moving,3
6.12,1848321.065094387,23,3,3,0,3,17.54,3.14,8.46,8.24,0.8,6.43,380.625,-598.375,35.75,0.76934814453125,0.06732177734375,-0.6259765625,-0.10821533203125,-34.375,43.5,-5.75,9.3,2.34,2.03,moving,3
6.13,1848321.065094387,23,3,3,0,3,29.67,12.81,27.58,20.2,10.44,26.66,377.8125,-582.0625,40.5625,0.734375,0.08477783203125,-0.6676025390625,-0.08807373046875,-34.375,43.5,-5.75,9.46,2.37,0.92,moving,3
6.14,1848321.07428616,23,3,3,0,3,22.59,11.08,1.73,13.05,8.81,1.34,106.875,-298.9375,71.4375,0.7164306640625,0.08514404296875,-0.6878662109375,-0.0794677734375,-34.375,43.5,-5.75,9.53,2.26,0.38,moving,3
6.15,1848321.07428616,23,3,3,0,3,21.17,4.2,-6.75,11.62,2.0,-6.91,-73.0625,-147.375,37.4375,0.7083740234375,0.0772705078125,-0.69671630859375,-0.08258056640625,-34.375,43.5,-5.75,9.55,2.2,0.16,moving,3
6.16,1848321.090910021,23,3,3,0,3,23.68,4.84,-3.35,14.12,2.63,-3.46,-105.0625,-56.625,-3.0625,0.70556640625,0.070556640625,-0.69940185546875,-0.08953857421875,-34.375,43.5,-5.75,9.55,2.2,0.11,moving,3
6.17,1848321.090910021,23,3,3,0,3,22.79,5.44,-0.79,13.25,3.2,-1.05,-36.6875,80.3125,-23.5625,0.71051025390625,0.0703125,-0.69403076171875,-0.09271240234375,-35.5,43.875,-1.25,9.54,2.24,0.26,moving,3
6.18,1848321.120058906,23,3,3,0,3,21.33,6.56,1.38,11.81,4.28,0.85,71.75,174.4375,-23.4375,0.7203369140625,0.07757568359375,-0.68353271484375,-0.0887451171875,-35.5,43.875,-1.25,9.52,2.28,0.52,moving,3
6.19,1848321.120058906,23,3,3,0,3,18.95,8.6,1.59,9.45,6.27,0.88,100.25,130.9375,-21.375,0.72723388671875,0.086181640625,-0.6759033203125,-0.08319091796875,-35.5,43.875,-1.25,9.49,2.33,0.7,moving,3
6.2,1848321.136370063,23,3,3,0,3,19.7,7.59,1.3,10.21,5.23,0.61,46.6875,6.6875,-13.0625,0.7271728515625,0.0899658203125,-0.6756591796875,-0.08123779296875,-35.5,43.875,-1.25,9.49,2.35,0.69,moving,3
6.21,1848321.136370063,23,3,3,0,3,20.55,6.35,1.48,11.05,3.99,0.91,-8.5,-78.375,-4.75,0.7225341796875,0.089111328125,-0.6805419921875,-0.0826416015625,-35.5,43.875,-1.25,9.5,2.36,0.56,moving,3
6.22,1848321.153303006,23,3,3,0,3,19.91,4.9,1.12,10.4,2.53,0.63,-15.625,-51.25,-6.0625,0.7196044921875,0.088134765625,-0.68359375,-0.0843505859375,-34.0625,43.0625,-1.6875,9.5,2.37,0.48,moving,3
6.23,1848321.153303006,23,3,3,0,3,15.94,2.07,0.45,6.44,-0.31,-0.05,11.0,15.25,-13.3125,0.7203369140625,0.0897216796875,-0.6826171875,-0.08441162109375,-34.0625,43.0625,-1.6875,9.49,2.39,0.5,moving,3
6.24,1848321.184365302,23,3,3,0,3,13.9,1.45,0.73,4.42,-0.98,0.15,38.875,49.75,-19.0625,0.72283935546875,0.09368896484375,-0.67962646484375,-0.0828857421875,-34.0625,43.0625,-1.6875,9.48,2.43,0.57,moving,3
6.25,1848321.184365302,23,3,3,0,3,12.11,1.35,1.04,2.64,-1.12,0.39,58.125,61.4375,-21.125,0.725830078125,0.0989990234375,-0.67596435546875,-0.08026123046875,-34.0625,43.0625,-1.6875,9.46,2.47,0.65,moving,3
6.26,1848321.19550373,23,3,3,0,3,10.46,1.35,1.09,1.01,-1.16,0.35,79.0,74.875,-19.4375,0.7293701171875,0.105712890625,-0.67156982421875,-0.076171875,-34.0625,43.0625,-1.6875,9.44,2.51,0.74,moving,3
6.27,1848321.19550373,23,3,3,0,3,6.62,1.94,1.74,-2.8,-0.6,0.91,101.8125,85.3125,-13.0625,0.73333740234375,0.11346435546875,-0.66668701171875,-0.07025146484375,-34.0625,43.0625,-2.0,9.43,2.55,0.83,moving,3
6.28,1848321.215495307,23,3,3,0,3,4.69,2.11,2.44,-4.71,-0.46,1.5,117.25,96.875,-7.375,0.7376708984375,0.12200927734375,-0.66107177734375,-0.06292724609375,-34.0625,43.0625,-2.0,9.41,2.58,0.94,moving,3
6.29,1848321.215495307,23,3,3,0,3,2.87,2.4,2.99,-6.51,-0.2,1.9,114.75,117.5625,-6.0,0.7431640625,0.13037109375,-0.65399169921875,-0.055419921875,-34.0625,43.0625,-2.0,9.39,2.61,1.08,moving,3
6.3,1848321.237885037,23,3,3,0,3,1.35,2.43,2.92,-8.0,-0.2,1.64,93.0,142.5625,-5.6875,0.7501220703125,0.13739013671875,-0.64501953125,-0.04888916015625,-34.0625,43.0625,-2.0,9.35,2.63,1.27,moving,3
6.31,1848321.237885037,23,3,3,0,3,-0.5,1.8,1.91,-9.82,-0.85,0.41,60.3125,155.6875,-5.0,0.758056640625,0.14227294921875,-0.63494873046875,-0.0439453125,-34.0625,43.0625,-2.0,9.31,2.66,1.5,moving,3
6.32,1848321.253251492,23,3,3,0,3,-1.72,0.85,1.54,-10.99,-1.82,-0.2,26.625,161.4375,-5.3125,0.7666015625,0.1448974609375,-0.624267578125,-0.04083251953125,-35.5,43.5,-7.75,9.26,2.67,1.75,moving,3
6.33,1848321.253251492,23,3,3,0,3,-2.66,-0.02,1.15,-11.87,-2.71,-0.86,0.8125,169.3125,-4.8125,0.77569580078125,0.14581298828125,-0.61279296875,-0.0389404296875,-35.5,43.5,-7.75,9.21,2.68,2.02,moving,3
6.34,1848321.267703315,23,3,3,0,3,-3.94,0.33,-0.57,-13.09,-2.35,-2.89,-17.5,178.6875,-1.4375,0.785400390625,0.145263671875,-0.60052490234375,-0.0377197265625,-35.5,43.5,-7.75,9.14,2.68,2.31,moving,3
6.35,1848321.267703315,23,3,3,0,3,-3.9,0.44,-1.56,-12.96,-2.22,-4.19,-23.4375,187.8125,0.8125,0.79541015625,0.14422607421875,-0.5875244140625,-0.0364990234375,-35.5,43.5,-7.75,9.06,2.67,2.62,moving,3
6.36,1848321.304502591,23,3,3,0,3,-2.78,0.39,-2.63,-11.76,-2.25,-5.55,-18.6875,180.9375,3.5625,0.8048095703125,0.143310546875,-0.57489013671875,-0.034912109375,-35.5,43.5,-7.75,8.97,2.65,2.92,moving,3
6.37,1848321.304502591,23,3,3,0,3,-1.85,0.62,-3.4,-10.77,-1.99,-6.53,-12.0625,128.3125,16.0625,0.8114013671875,0.14202880859375,-0.56597900390625,-0.03277587890625,-34.375,42.0625,-14.25,8.91,2.62,3.12,moving,3
6.37,1848321.313016181,23,3,3,0,3,-1.85,0.62,-3.4,-10.77,-1.99,-6.53,-12.0625,128.3125,16.0625,0.8114013671875,0.14202880859375,-0.56597900390625,-0.03277587890625,-34.375,42.0625,-14.25,8.91,2.62,3.12,moving,3
6.38,1848321.313016181,23,3,3,0,3,1.31,0.57,-3.12,-7.59,-1.99,-6.29,-0.5,26.4375,29.5625,0.81280517578125,0.140625,-0.564453125,-0.0303955078125,-34.375,42.0625,-14.25,8.91,2.57,3.16,moving,3
6.39,1848321.333533963,23,3,3,0,3,2.86,0.41,-2.58,-6.11,-2.11,-5.59,28.0,-95.75,40.0625,0.807861328125,0.140380859375,-0.57177734375,-0.02734375,-34.375,42.0625,-14.25,8.98,2.53,3.0,moving,3
6.4,1848321.333533963,23,3,3,0,3,3.89,0.48,-2.3,-5.21,-1.99,-4.96,74.75,-203.375,57.1875,0.7967529296875,0.142333984375,-0.58685302734375,-0.02203369140625,-34.375,42.0625,-14.25,9.1,2.47,2.65,moving,3
6.41,1848321.347963162,23,3,3,0,3,4.9,0.53,-2.24,-4.35,-1.88,-4.36,129.8125,-294.0,73.375,0.7799072265625,0.14697265625,-0.60821533203125,-0.01397705078125,-34.375,42.0625,-14.25,9.26,2.41,2.12,moving,3
6.42,1848321.347963162,23,3,3,0,3,9.5,1.14,-2.44,0.08,-1.18,-3.87,176.75,-382.9375,81.75,0.75689697265625,0.154052734375,-0.63507080078125,-0.00390625,-31.1875,42.375,-16.1875,9.41,2.33,1.43,moving,3
6.43,1848321.363872708,23,3,3,0,3,12.48,1.76,-1.99,2.94,-0.45,-2.54,206.25,-481.125,90.875,0.72674560546875,0.16229248046875,-0.66741943359375,0.00701904296875,-31.1875,42.375,-16.1875,9.53,2.22,0.55,moving,3
6.44,1848321.363872708,23,3,3,0,3,16.5,2.45,-0.09,6.92,0.4,0.32,207.4375,-533.0,103.375,0.6917724609375,0.1695556640625,-0.70166015625,0.01806640625,-31.1875,42.375,-16.1875,9.58,2.05,-0.41,moving,3
6.45,1848321.410384142,23,3,3,0,3,29.5,6.46,14.17,19.93,4.61,15.25,141.0,-367.6875,105.75,0.6666259765625,0.17205810546875,-0.7247314453125,0.02764892578125,-31.1875,42.375,-16.1875,9.56,1.85,-1.07,moving,3
6.46,1848321.410384142,23,3,3,0,3,20.78,1.24,-5.07,11.17,-0.45,-4.13,-52.875,73.9375,96.6875,0.67181396484375,0.16265869140625,-0.72198486328125,0.031005859375,-31.1875,42.375,-16.1875,9.61,1.7,-0.93,moving,3
6.47,1848321.41953673,23,3,3,0,3,17.4,-1.25,-5.02,7.75,-2.91,-4.5,-169.625,218.0,44.0,0.6876220703125,0.14935302734375,-0.7100830078125,0.0260009765625,-32.5625,43.5,-12.25,9.65,1.65,-0.51,moving,3
6.48,1848321.41953673,23,3,3,0,3,17.59,-0.85,-4.8,7.92,-2.51,-4.65,-187.0625,183.375,1.3125,0.70123291015625,0.1375732421875,-0.6993408203125,0.01690673828125,-32.5625,43.5,-12.25,9.66,1.66,-0.15,moving,3
6.49,1848321.427711168,23,3,3,0,3,20.13,-1.19,0.64,10.47,-2.88,0.57,-116.8125,114.9375,-16.1875,0.7095947265625,0.1312255859375,-0.69219970703125,0.01019287109375,-32.5625,43.5,-12.25,9.65,1.68,0.07,moving,3
6.5,1848321.427711168,23,3,3,0,3,20.44,0.14,2.95,10.79,-1.57,2.76,-15.75,63.875,-20.875,0.713623046875,0.1314697265625,-0.68798828125,0.0086669921875,-32.5625,43.5,-12.25,9.65,1.72,0.18,moving,3
6.51,1848321.455855374,23,3,3,0,3,19.29,1.8,3.79,9.64,0.04,3.54,51.5625,53.4375,-19.9375,0.71624755859375,0.13580322265625,-0.68438720703125,0.01116943359375,-32.5625,43.5,-12.25,9.64,1.75,0.25,moving,3
6.52,1848321.455855374,23,3,3,0,3,18.31,2.95,4.37,8.67,1.16,4.11,54.6875,7.5,-14.625,0.716064453125,0.14007568359375,-0.6837158203125,0.01361083984375,-30.0625,45.6875,-8.5,9.63,1.78,0.25,moving,3
6.53,1848321.468092923,23,3,3,0,3,19.11,3.03,1.96,9.47,1.21,1.78,0.0,-42.5,-15.5625,0.71356201171875,0.14105224609375,-0.6861572265625,0.0120849609375,-30.0625,45.6875,-8.5,9.63,1.81,0.18,moving,3
6.54,1848321.468092923,23,3,3,0,3,18.39,2.22,1.19,8.76,0.38,1.08,-45.375,-52.75,-21.125,0.7109375,0.1395263671875,-0.689208984375,0.0074462890625,-30.0625,45.6875,-8.5,9.63,1.84,0.1,moving,3
6.55,1848321.494033719,23,3,3,0,3,16.83,1.74,0.78,7.2,-0.14,0.66,-64.4375,-6.125,-24.625,0.71136474609375,0.136962890625,-0.6893310546875,0.001953125,-30.0625,45.6875,-8.5,9.62,1.88,0.11,moving,3
6.56,1848321.494033719,23,3,3,0,3,15.17,1.35,0.63,5.56,-0.58,0.41,-75.6875,45.0,-33.6875,0.7149658203125,0.13427734375,-0.68609619140625,-0.00408935546875,-30.0625,45.6875,-8.5,9.61,1.93,0.21,moving,3
6.57,1848321.513490018,23,3,3,0,3,11.77,0.74,1.16,2.18,-1.26,0.78,-83.0625,75.875,-45.0625,0.720458984375,0.1318359375,-0.6807861328125,-0.010986328125,-31.1875,44.875,-10.0625,9.59,2.0,0.37,moving,3
6.58,1848321.513490018,23,3,3,0,3,10.05,0.32,1.64,0.49,-1.76,1.08,-82.875,96.125,-52.6875,0.72698974609375,0.12982177734375,-0.67401123046875,-0.01812744140625,-31.1875,44.875,-10.0625,9.56,2.09,0.56,moving,3
6.59,1848321.533400052,23,3,3,0,3,8.85,-0.07,1.84,-0.67,-2.24,1.04,-74.8125,124.0,-54.25,0.7349853515625,0.12841796875,-0.66534423828125,-0.0245361328125,-31.1875,44.875,-10.0625,9.52,2.17,0.8,moving,3
6.6,1848321.533400052,23,3,3,0,3,7.67,-0.35,2.06,-1.81,-2.59,0.99,-63.125,150.1875,-51.125,0.7442626953125,0.12762451171875,-0.6549072265625,-0.02978515625,-31.1875,44.875,-10.0625,9.48,2.24,1.07,moving,3
6.61,1848321.543867703,23,3,3,0,3,4.3,0.84,2.56,-5.12,-1.47,1.19,-51.75,168.5625,-51.6875,0.75421142578125,0.12762451171875,-0.6431884765625,-0.0341796875,-31.1875,44.875,-10.0625,9.42,2.31,1.37,moving,3
6.62,1848321.543867703,23,3,3,0,3,2.82,1.17,2.43,-6.53,-1.23,0.72,-39.375,195.625,-58.1875,0.76531982421875,0.12884521484375,-0.62945556640625,-0.03802490234375,-33.0625,43.875,-9.25,9.35,2.4,1.71,moving,3
6.63,1848321.556322822,23,3,3,0,3,1.54,1.56,2.1,-7.71,-0.91,0.03,-38.0,211.625,-53.625,0.777099609375,0.1298828125,-0.61444091796875,-0.04132080078125,-33.0625,43.875,-9.25,9.26,2.47,2.07,stop,3
6.63,1848321.556322822,23,3,3,0,3,1.54,1.56,2.1,-7.71,-0.91,0.03,-38.0,211.625,-53.625,0.777099609375,0.1298828125,-0.61444091796875,-0.04132080078125,-33.0625,43.875,-9.25,9.26,2.47,2.07,stop,3
6.64,1848321.571327013,23,3,3,0,3,0.41,1.69,1.43,-8.74,-0.82,-0.97,-57.0625,196.125,-42.375,0.7879638671875,0.12896728515625,-0.60040283203125,-0.04498291015625,-33.0625,43.875,-9.25,9.16,2.52,2.41,stop,3
6.65,1848321.571327013,23,3,3,0,3,0.7,1.11,0.92,-8.37,-1.43,-1.77,-86.875,155.75,-40.25,0.796875,0.12567138671875,-0.58880615234375,-0.050537109375,-33.0625,43.875,-9.25,9.07,2.54,2.69,stop,3
6.66,1848321.604335883,23,3,3,0,3,0.74,0.69,0.28,-8.26,-1.85,-2.63,-108.875,113.125,-38.4375,0.8035888671875,0.12054443359375,-0.5799560546875,-0.05755615234375,-33.0625,43.875,-9.25,9.0,2.55,2.92,stop,3
6.67,1848321.604335883,23,3,3,0,3,0.54,0.26,-0.21,-8.4,-2.27,-3.3,-114.25,72.3125,-31.375,0.80828857421875,0.11444091796875,-0.57391357421875,-0.06475830078125,-34.5,42.75,-12.25,8.95,2.54,3.08,stop,3
6.68,1848321.619185452,23,3,3,0,3,0.8,0.03,-0.96,-8.12,-2.48,-4.15,-106.875,32.125,-23.3125,0.810791015625,0.10821533203125,-0.57080078125,-0.0714111328125,-34.5,42.75,-12.25,8.92,2.52,3.18,stop,3
6.69,1848321.619185452,23,3,3,0,3,1.28,-0.19,-1.03,-7.63,-2.68,-4.25,-89.625,-5.6875,-15.25,0.81121826171875,0.10260009765625,-0.57049560546875,-0.07696533203125,-34.5,42.75,-12.25,8.92,2.49,3.21,stop,3
6.7,1848321.628650866,23,3,3,0,3,1.76,-0.2,-1.03,-7.17,-2.66,-4.22,-66.3125,-37.3125,-3.0625,0.8099365234375,0.0977783203125,-0.5726318359375,-0.080810546875,-34.5,42.75,-12.25,8.94,2.46,3.18,stop,3
6.71,1848321.628650866,23,3,3,0,3,2.16,-0.07,-0.98,-6.81,-2.5,-4.08,-38.875,-64.5,5.1875,0.80706787109375,0.09429931640625,-0.57696533203125,-0.08294677734375,-34.5,42.75,-12.25,8.97,2.43,3.1,stop,3
6.72,1848321.66352082,23,3,3,0,3,4.11,0.62,-1.01,-4.9,-1.78,-3.99,-9.0625,-86.6875,7.1875,0.80279541015625,0.0926513671875,-0.5830078125,-0.08355712890625,-33.875,42.75,-12.0,9.02,2.41,2.97,stop,3
6.73,1848321.66352082,23,3,3,0,3,5.54,1.05,-0.88,-3.54,-1.34,-3.65,20.25,-115.8125,10.875,0.79681396484375,0.0926513671875,-0.59136962890625,-0.08270263671875,-33.875,42.75,-12.0,9.09,2.4,2.77,stop,3
6.74,1848321.679839424,23,3,3,0,3,6.98,1.55,-0.54,-2.18,-0.84,-3.05,49.25,-158.4375,18.375,0.78826904296875,0.09393310546875,-0.602783203125,-0.08013916015625,-33.875,42.75,-12.0,9.17,2.4,2.5,stop,3
6.75,1848321.679839424,23,3,3,0,3,8.68,1.97,0.08,-0.57,-0.41,-2.06,76.5,-201.375,25.625,0.777099609375,0.096435546875,-0.6173095703125,-0.07598876953125,-33.875,42.75,-12.0,9.26,2.38,2.15,stop,3
6.76,1848321.692790718,23,3,3,0,3,16.09,5.93,9.16,6.73,3.56,7.43,89.1875,-235.75,32.0625,0.763671875,0.09912109375,-0.63397216796875,-0.0709228515625,-33.875,42.75,-12.0,9.35,2.36,1.73,stop,3
6.77,1848321.692790718,23,3,3,0,3,18.35,8.15,8.16,8.92,5.85,6.79,41.4375,-212.625,45.25,0.751708984375,0.0980224609375,-0.648681640625,-0.06744384765625,-33.5,43.5,-9.25,9.43,2.3,1.36,stop,3
6.78,1848321.724055122,23,3,3,0,3,16.02,5.27,-0.49,6.54,3.06,-1.69,-51.25,-114.4375,50.5,0.74591064453125,0.09112548828125,-0.65625,-0.0679931640625,-33.5,43.5,-9.25,9.47,2.2,1.19,stop,3
6.79,1848321.724055122,23,3,3,0,3,16.81,3.33,-2.87,7.3,1.19,-3.95,-72.6875,-85.125,30.25,0.74176025390625,0.08416748046875,-0.66156005859375,-0.07086181640625,-33.5,43.5,-9.25,9.5,2.14,1.08,stop,3
6.8,1848321.737944933,23,3,3,0,3,17.5,3.6,-0.91,7.98,1.5,-1.92,-43.125,-53.125,19.4375,0.7391357421875,0.07989501953125,-0.66485595703125,-0.07244873046875,-33.5,43.5,-9.25,9.52,2.1,1.01,stop,3
6.81,1848321.737944933,23,3,3,0,3,15.67,3.81,-0.31,6.15,1.71,-1.4,12.4375,47.9375,2.875,0.7418212890625,0.080810546875,-0.661865234375,-0.07122802734375,-33.5,43.5,-9.25,9.51,2.1,1.08,stop,3
6.82,1848321.757544868,23,3,3,0,3,14.18,4.52,0.85,4.69,2.4,-0.41,58.4375,127.625,-4.5625,0.7486572265625,0.08514404296875,-0.6539306640625,-0.0677490234375,-33.5,43.875,-4.25,9.48,2.11,1.27,stop,3
6.83,1848321.757544868,23,3,3,0,3,11.85,5.51,2.68,2.39,3.37,1.21,60.6875,132.1875,-6.5625,0.75567626953125,0.09027099609375,-0.64556884765625,-0.063720703125,-33.5,43.875,-4.25,9.45,2.14,1.47,stop,3
6.84,1848321.784322456,23,3,3,0,3,11.07,5.11,2.59,1.64,2.96,0.97,27.4375,94.125,-3.8125,0.76068115234375,0.09283447265625,-0.63946533203125,-0.06170654296875,-33.5,43.875,-4.25,9.42,2.15,1.61,stop,3
6.85,1848321.784322456,23,3,3,0,3,10.76,4.68,2.75,1.34,2.52,1.06,3.125,47.6875,-1.5625,0.7633056640625,0.0933837890625,-0.63629150390625,-0.06121826171875,-33.5,43.875,-4.25,9.41,2.16,1.69,stop,3
6.86,1848321.798622138,23,3,3,0,3,10.27,4.51,3.19,0.87,2.35,1.45,9.75,26.375,0.5,0.76470947265625,0.09417724609375,-0.6346435546875,-0.06048583984375,-33.5,43.875,-4.25,9.4,2.16,1.73,stop,3
6.87,1848321.798622138,23,3,3,0,3,8.97,4.46,2.79,-0.42,2.29,1.03,24.5,23.0,1.9375,0.765869140625,0.0968017578125,-0.633056640625,-0.05755615234375,-33.0625,44.1875,-7.0,9.4,2.16,1.76,stop,3
6.88,1848321.813180244,23,3,3,0,3,8.52,4.34,2.35,-0.87,2.17,0.57,27.0625,16.625,2.9375,0.76654052734375,0.0985107421875,-0.63214111328125,-0.05572509765625,-33.0625,44.1875,-7.0,9.39,2.17,1.77,stop,3
6.89,1848321.813180244,23,3,3,0,3,8.52,4.34,2.35,-0.87,2.17,0.57,27.0625,16.625,2.9375,0.76654052734375,0.0985107421875,-0.63214111328125,-0.05572509765625,-33.0625,44.1875,-7.0,9.39,2.17,1.77,stop,3
6.89,1848321.826553738,23,3,3,0,3,8.28,4.01,2.02,-1.11,1.83,0.23,18.875,7.1875,2.6875,0.76678466796875,0.09967041015625,-0.63177490234375,-0.054443359375,-33.0625,44.1875,-7.0,9.39,2.17,1.78,stop,3
6.9,1848321.826553738,23,3,3,0,3,8.08,3.6,1.76,-1.3,1.42,-0.02,6.6875,5.25,1.625,0.76702880859375,0.10009765625,-0.6314697265625,-0.05389404296875,-33.0625,44.1875,-7.0,9.39,2.17,1.78,stop,3
6.91,1848321.83781855,23,3,3,0,3,7.46,2.64,1.44,-1.92,0.47,-0.36,-7.0,14.375,1.25,0.76788330078125,0.099609375,-0.63043212890625,-0.0540771484375,-33.0625,44.1875,-7.0,9.38,2.16,1.81,stop,3
6.92,1848321.83781855,23,3,3,0,3,7.13,2.38,1.15,-2.25,0.23,-0.71,-22.9375,29.5625,2.25,0.76971435546875,0.0980224609375,-0.62841796875,-0.0550537109375,-32.6875,43.875,-7.375,9.38,2.15,1.87,stop,3
6.93,1848321.875164944,23,3,3,0,3,6.89,2.12,1.0,-2.47,-0.02,-0.95,-37.0625,41.6875,1.625,0.7723388671875,0.09564208984375,-0.62542724609375,-0.05657958984375,-32.6875,43.875,-7.375,9.36,2.14,1.95,stop,3
6.94,1848321.875164944,23,3,3,0,3,6.74,1.58,0.98,-2.6,-0.53,-1.06,-44.0,47.0,-0.4375,0.7752685546875,0.0928955078125,-0.62200927734375,-0.05859375,-32.6875,43.875,-7.375,9.35,2.12,2.04,stop,3
6.95,1848321.888556221,23,3,3,0,3,6.94,0.72,0.97,-2.38,-1.39,-1.16,-44.0,47.625,-1.25,0.7781982421875,0.09027099609375,-0.6185302734375,-0.06072998046875,-32.6875,43.875,-7.375,9.33,2.11,2.14,stop,3
6.96,1848321.888556221,23,3,3,0,3,7.48,0.56,0.85,-1.83,-1.53,-1.36,-34.8125,40.6875,-0.6875,0.7806396484375,0.088134765625,-0.6156005859375,-0.06231689453125,-32.6875,43.875,-7.375,9.31,2.1,2.22,stop,3
6.97,1848321.903042345,23,3,3,0,3,8.1,0.66,0.76,-1.2,-1.43,-1.48,-12.25,15.4375,1.3125,0.78155517578125,0.08721923828125,-0.614501953125,-0.06292724609375,-32.6875,43.5,-7.75,9.31,2.09,2.25,stop,3
6.98,1848321.903042345,23,3,3,0,3,9.72,1.44,0.27,0.39,-0.65,-1.93,20.1875,-21.375,4.5625,0.7802734375,0.08819580078125,-0.6160888671875,-0.06170654296875,-32.6875,43.5,-7.75,9.32,2.09,2.2,stop,3
6.99,1848321.933399645,23,3,3,0,3,10.68,1.9,0.18,1.33,-0.19,-1.9,49.5625,-64.4375,8.625,0.77642822265625,0.09075927734375,-0.620849609375,-0.0589599609375,-32.6875,43.5,-7.75,9.34,2.1,2.08,stop,3
7.0,1848321.933399645,23,3,3,0,3,11.69,2.15,0.63,2.3,0.05,-1.24,71.0,-105.9375,13.5625,0.7701416015625,0.09429931640625,-0.62841796875,-0.0550537109375,-32.6875,43.5,-7.75,9.39,2.1,1.88,stop,3
7.01,1848321.947920031,23,3,3,0,3,12.57,2.6,1.6,3.13,0.5,-0.04,79.6875,-125.375,17.0625,0.76263427734375,0.09814453125,-0.6373291015625,-0.050537109375,-32.6875,43.5,-7.75,9.43,2.09,1.65,stop,3
7.02,1848321.947920031,23,3,3,0,3,12.49,3.12,2.32,3.02,1.03,0.86,71.3125,-99.0,16.75,0.75653076171875,0.10150146484375,-0.64434814453125,-0.04632568359375,-32.6875,43.875,-8.1875,9.46,2.09,1.46,stop,3
7.03,1848321.962573351,23,3,3,0,3,11.23,2.68,1.28,1.75,0.6,-0.09,44.9375,-38.3125,12.0,0.7540283203125,0.1036376953125,-0.64715576171875,-0.0433349609375,-32.6875,43.875,-8.1875,9.48,2.08,1.38,stop,3
7.04,1848321.962573351,23,3,3,0,3,10.23,2.47,0.82,0.75,0.39,-0.56,15.8125,6.75,5.25,0.7542724609375,0.1043701171875,-0.6468505859375,-0.04205322265625,-32.6875,43.875,-8.1875,9.48,2.07,1.38,stop,3
7.05,1848321.997033027,23,3,3,0,3,9.56,2.4,1.11,0.08,0.33,-0.31,2.875,25.375,0.5625,0.75567626953125,0.10467529296875,-0.64520263671875,-0.04156494140625,-32.6875,43.875,-8.1875,9.47,2.07,1.42,stop,3
7.06,1848321.997033027,23,3,3,0,3,8.42,2.56,1.9,-1.04,0.48,0.42,5.9375,32.3125,-3.625,0.7574462890625,0.1053466796875,-0.64306640625,-0.04119873046875,-32.6875,43.875,-8.1875,9.46,2.08,1.47,stop,3
7.07,1848322.003268623,23,3,3,0,3,7.94,2.45,1.76,-1.51,0.34,0.24,11.875,29.4375,-8.125,0.7589111328125,0.10675048828125,-0.64105224609375,-0.04083251953125,-32.6875,44.1875,-8.1875,9.45,2.1,1.52,stop,3
7.08,1848322.003268623,23,3,3,0,3,7.83,2.18,1.49,-1.61,0.06,-0.03,12.0625,7.125,-9.625,0.7591552734375,0.10809326171875,-0.64056396484375,-0.04071044921875,-32.6875,44.1875,-8.1875,9.45,2.12,1.52,stop,3
7.09,1848322.043022895,23,3,3,0,3,8.12,1.95,1.3,-1.32,-0.17,-0.17,9.8125,-26.4375,-8.25,0.757568359375,0.109130859375,-0.64227294921875,-0.04095458984375,-32.6875,44.1875,-8.1875,9.45,2.13,1.48,stop,3
7.1,1848322.043022895,23,3,3,0,3,9.05,1.8,1.47,-0.41,-0.34,0.07,11.1875,-52.3125,-5.625,0.7545166015625,0.1099853515625,-0.64569091796875,-0.04119873046875,-32.6875,44.1875,-8.1875,9.46,2.14,1.39,stop,3
7.11,1848322.053846667,23,3,3,0,3,9.33,1.84,1.57,-0.14,-0.3,0.28,14.0,-60.3125,-2.625,0.75091552734375,0.11083984375,-0.64971923828125,-0.04119873046875,-32.6875,44.1875,-8.1875,9.47,2.15,1.28,stop,3
7.12,1848322.053846667,23,3,3,0,3,9.5,1.91,1.44,0.01,-0.24,0.24,13.875,-53.0625,-0.75,0.747802734375,0.11163330078125,-0.6531982421875,-0.04095458984375,-32.0,43.875,-8.875,9.49,2.16,1.19,stop,3
7.13,1848322.068125597,23,3,3,0,3,9.86,1.74,1.04,0.36,-0.41,-0.07,11.8125,-41.5625,-0.6875,0.74530029296875,0.1123046875,-0.65594482421875,-0.04071044921875,-32.0,43.875,-8.875,9.49,2.16,1.11,stop,3
7.14,1848322.068125597,23,3,3,0,3,9.97,1.65,1.02,0.46,-0.51,-0.03,10.3125,-33.5,-1.0,0.74322509765625,0.1129150390625,-0.65814208984375,-0.04052734375,-32.0,43.875,-8.875,9.5,2.16,1.06,stop,3
7.15,1848322.098683662,23,3,3,0,3,10.01,1.61,1.05,0.5,-0.55,0.04,10.3125,-27.0625,-1.625,0.7415771484375,0.11358642578125,-0.65997314453125,-0.04034423828125,-32.0,43.875,-8.875,9.5,2.17,1.01,stop,3
7.16,1848322.098683662,23,3,3,0,3,9.97,1.6,1.02,0.45,-0.57,0.05,11.5,-20.0,-2.625,0.74029541015625,0.1143798828125,-0.6612548828125,-0.0400390625,-32.0,43.875,-8.875,9.51,2.18,0.97,stop,3
7.17,1848322.112769762,23,3,3,0,3,9.76,1.56,1.05,0.25,-0.62,0.11,12.1875,-16.4375,-2.6875,0.73919677734375,0.11517333984375,-0.662353515625,-0.039794921875,-32.375,43.875,-7.75,9.51,2.18,0.94,stop,3
7.18,1848322.112769762,23,3,3,0,3,9.8,1.5,1.0,0.28,-0.68,0.09,10.6875,-18.375,-2.5,0.738037109375,0.115966796875,-0.66357421875,-0.03955078125,-32.375,43.875,-7.75,9.51,2.19,0.9,stop,3
7.19,1848322.128060127,23,3,3,0,3,9.78,1.53,1.02,0.27,-0.66,0.15,9.375,-22.8125,-1.9375,0.736572265625,0.1165771484375,-0.6650390625,-0.039306640625,-32.375,43.875,-7.75,9.51,2.19,0.86,stop,3
7.2,1848322.128060127,23,3,3,0,3,9.81,1.58,1.15,0.18,0.05,0.08,9.5,-24.0,-1.6875,0.744384765625,0.09075927734375,-0.661376953125,-0.01641845703125,-32.375,43.875,-7.75,9.62,1.53,1.06,stop,3
7.21,1848322.164161283,23,3,3,0,3,9.71,1.8,1.33,0.08,0.25,0.3,10.125,-19.4375,-1.5,0.7431640625,0.09149169921875,-0.66259765625,-0.01611328125,-32.375,43.875,-7.75,9.62,1.54,1.03,stop,3
7.22,1848322.164161283,23,3,3,0,3,9.67,1.8,1.25,0.04,0.26,0.24,9.5625,-13.6875,-1.875,0.74237060546875,0.0921630859375,-0.6634521484375,-0.01593017578125,-33.5,43.875,-7.75,9.63,1.54,1.0,stop,3
7.23,1848322.188498034,23,3,3,0,3,9.71,1.8,1.21,0.08,0.24,0.23,9.0625,-12.3125,-2.375,0.74163818359375,0.09295654296875,-0.66412353515625,-0.01568603515625,-33.5,43.875,-7.75,9.63,1.55,0.98,stop,3
7.24,1848322.188498034,23,3,3,0,3,9.79,1.81,1.19,0.16,0.25,0.22,9.875,-12.8125,-2.4375,0.74090576171875,0.09381103515625,-0.66485595703125,-0.01544189453125,-33.5,43.875,-7.75,9.63,1.56,0.96,stop,3
7.25,1848322.198351387,23,3,3,0,3,9.9,1.9,1.36,0.26,0.33,0.41,12.0,-13.3125,-2.625,0.74017333984375,0.09478759765625,-0.66552734375,-0.01513671875,-33.5,43.875,-7.75,9.63,1.57,0.94,stop,3
7.26,1848322.198351387,23,3,3,0,3,9.87,1.84,1.38,0.24,0.25,0.46,13.25,-12.0,-3.1875,0.739501953125,0.09588623046875,-0.6661376953125,-0.01483154296875,-33.5,43.875,-7.75,9.63,1.58,0.92,stop,3
7.27,1848322.236726997,23,3,3,0,3,9.82,1.7,1.26,0.18,0.11,0.36,11.5625,-9.6875,-3.75,0.73895263671875,0.09619140625,-0.6666259765625,-0.0152587890625,-32.6875,43.5,-6.6875,9.63,1.59,0.9,stop,3
7.28,1848322.236726997,23,3,3,0,3,9.83,1.51,1.18,0.2,-0.09,0.28,12.0,-8.3125,-4.1875,0.73846435546875,0.09722900390625,-0.66705322265625,-0.01495361328125,-32.6875,43.5,-6.6875,9.63,1.6,0.89,stop,3
7.29,1848322.247322049,23,3,3,0,3,9.74,1.5,1.3,0.1,-0.1,0.42,17.1875,-8.0,-4.4375,0.73797607421875,0.0985107421875,-0.66741943359375,-0.0142822265625,-32.6875,43.5,-6.6875,9.63,1.61,0.87,stop,3
7.3,1848322.247322049,23,3,3,0,3,9.64,1.54,1.35,0.01,-0.08,0.48,22.9375,-6.6875,-4.8125,0.7374267578125,0.10028076171875,-0.6678466796875,-0.0133056640625,-32.6875,43.5,-6.6875,9.63,1.62,0.86,stop,3
7.31,1848322.257365994,23,3,3,0,3,9.52,1.53,1.33,-0.1,-0.09,0.48,26.75,-4.1875,-4.6875,0.7369384765625,0.102294921875,-0.6680908203125,-0.0120849609375,-32.6875,43.5,-6.6875,9.63,1.63,0.84,stop,3
7.32,1848322.257365994,23,3,3,0,3,9.4,1.67,1.18,-0.22,0.02,0.35,30.5625,-2.625,-4.3125,0.7364501953125,0.10418701171875,-0.6683349609375,-0.01092529296875,-33.75,43.5,-7.375,9.63,1.64,0.83,stop,3
7.33,1848322.279782661,23,3,3,0,3,9.45,1.82,1.12,-0.17,0.16,0.3,35.0625,-2.0,-4.125,0.73602294921875,0.106689453125,-0.66845703125,-0.0091552734375,-33.75,43.5,-7.375,9.63,1.66,0.82,stop,3
7.34,1848322.279782661,23,3,3,0,3,9.55,1.92,1.03,-0.07,0.25,0.23,38.3125,-2.375,-3.75,0.73553466796875,0.109375,-0.6685791015625,-0.0072021484375,-33.75,43.5,-7.375,9.62,1.67,0.8,stop,3
7.35,1848322.29486221,23,3,3,0,3,9.66,2.01,0.94,0.03,0.32,0.15,37.75,-2.6875,-2.875,0.7349853515625,0.1119384765625,-0.66876220703125,-0.00518798828125,-33.75,43.5,-7.375,9.62,1.68,0.78,stop,3
7.36,1848322.29486221,23,3,3,0,3,9.75,1.99,0.75,0.12,0.3,-0.01,33.0,-1.3125,-1.625,0.734619140625,0.11419677734375,-0.6688232421875,-0.00341796875,-33.75,43.5,-7.375,9.62,1.68,0.77,stop,3
7.37,1848322.303266629,23,3,3,0,3,9.73,1.93,0.63,0.1,0.24,-0.13,25.75,3.8125,-0.625,0.73455810546875,0.1158447265625,-0.6685791015625,-0.00189208984375,-33.5,43.0625,-8.875,9.62,1.69,0.77,stop,3
7.38,1848322.303266629,23,3,3,0,3,9.67,1.98,0.57,0.05,0.28,-0.21,18.6875,10.375,0.0,0.7349853515625,0.1170654296875,-0.66790771484375,-0.000732421875,-33.5,43.0625,-8.875,9.62,1.69,0.78,stop,3
7.39,1848322.340075345,23,3,3,0,3,9.65,2.04,0.55,0.02,0.34,-0.25,13.6875,15.1875,0.1875,0.7357177734375,0.11798095703125,-0.66693115234375,0.000244140625,-33.5,43.0625,-8.875,9.62,1.69,0.8,stop,3
7.4,1848322.340075345,23,3,3,0,3,9.74,1.97,0.56,0.11,0.27,-0.26,9.25,15.875,0.9375,0.736572265625,0.11846923828125,-0.66595458984375,0.00103759765625,-33.5,43.0625,-8.875,9.62,1.69,0.83,stop,3
7.41,1848322.34838048,23,3,3,0,3,9.7,2.03,0.53,0.08,0.33,-0.32,4.125,14.625,1.375,0.73736572265625,0.11865234375,-0.66497802734375,0.00152587890625,-33.5,43.0625,-8.875,9.62,1.69,0.85,stop,3
7.42,1848322.34838048,23,3,3,0,3,9.66,2.1,0.5,0.04,0.4,-0.38,0.0,16.8125,1.5625,0.73834228515625,0.11846923828125,-0.6639404296875,0.00164794921875,-33.5,43.0625,-9.6875,9.61,1.69,0.88,stop,3
7.43,1848322.36327554,23,3,3,0,3,9.55,2.12,0.51,-0.06,0.42,-0.39,-2.9375,18.5625,1.875,0.73919677734375,0.1185302734375,-0.66302490234375,0.0015869140625,-33.5,43.0625,-9.6875,9.61,1.69,0.9,stop,3
7.44,1848322.36327554,23,3,3,0,3,9.42,2.16,0.38,-0.18,0.46,-0.53,-7.875,15.5625,2.75,0.73980712890625,0.1182861328125,-0.662353515625,0.0010986328125,-33.5,43.0625,-9.6875,9.61,1.7,0.92,stop,3
7.45,1848322.381800728,23,3,3,0,3,9.41,2.23,0.21,-0.19,0.52,-0.71,-13.875,8.625,3.5625,0.7398681640625,0.11773681640625,-0.662353515625,0.00018310546875,-33.5,43.0625,-9.6875,9.61,1.7,0.93,stop,3
7.46,1848322.381800728,23,3,3,0,3,9.41,2.23,0.21,-0.19,0.52,-0.71,-13.875,8.625,3.5625,0.7398681640625,0.11773681640625,-0.662353515625,0.00018310546875,-33.5,43.0625,-9.6875,9.61,1.7,0.93,stop,3
7.46,1848322.396835477,23,3,3,0,3,9.4,2.2,0.03,-0.2,0.5,-0.89,-18.3125,0.0,4.75,0.7401123046875,0.1163330078125,-0.662353515625,-0.0006103515625,-33.5,43.0625,-9.6875,9.61,1.69,0.93,stop,3
7.47,1848322.396835477,23,3,3,0,3,9.47,1.99,-0.16,-0.13,0.31,-1.08,-17.9375,-8.4375,5.1875,0.73974609375,0.11468505859375,-0.66302490234375,-0.0015869140625,-32.375,42.75,-10.0625,9.61,1.68,0.92,stop,3
7.48,1848322.413170194,23,3,3,0,3,9.53,1.93,-0.13,-0.08,0.26,-1.03,-12.0625,-15.0,4.1875,0.739013671875,0.1136474609375,-0.66400146484375,-0.00213623046875,-32.375,42.75,-10.0625,9.61,1.67,0.9,stop,3
7.49,1848322.413170194,23,3,3,0,3,9.63,2.03,0.02,0.0,0.35,-0.84,-3.5,-16.6875,2.0625,0.73809814453125,0.11334228515625,-0.66510009765625,-0.00238037109375,-32.375,42.75,-10.0625,9.62,1.67,0.87,stop,3
7.5,1848322.440917223,23,3,3,0,3,9.64,2.23,0.18,0.02,0.55,-0.67,4.1875,-13.5625,0.0625,0.73724365234375,0.11358642578125,-0.666015625,-0.00225830078125,-32.375,42.75,-10.0625,9.62,1.67,0.85,stop,3
7.51,1848322.440917223,23,3,3,0,3,9.61,2.52,0.49,-0.01,0.84,-0.34,8.0,-9.5,-1.3125,0.73663330078125,0.11419677734375,-0.6666259765625,-0.00201416015625,-32.375,42.75,-10.0625,9.62,1.67,0.83,stop,3
7.52,1848322.456031807,23,3,3,0,3,9.59,2.52,0.58,-0.02,0.84,-0.22,8.75,-7.9375,-2.9375,0.73602294921875,0.11468505859375,-0.6671142578125,-0.00201416015625,-33.0625,42.75,-9.6875,9.62,1.68,0.81,stop,3
7.53,1848322.456031807,23,3,3,0,3,9.63,2.61,0.72,0.0,0.92,-0.07,8.375,-10.0,-3.875,0.7353515625,0.115478515625,-0.667724609375,-0.00189208984375,-33.0625,42.75,-9.6875,9.62,1.69,0.79,stop,3
7.54,1848322.473559395,23,3,3,0,3,9.63,2.63,0.72,0.01,0.93,-0.05,8.625,-10.5625,-5.125,0.73468017578125,0.1163330078125,-0.66839599609375,-0.0018310546875,-33.0625,42.75,-9.6875,9.62,1.69,0.77,stop,3
7.55,1848322.473559395,23,3,3,0,3,9.7,2.54,0.72,0.07,0.83,-0.03,8.4375,-9.625,-5.875,0.7340087890625,0.11724853515625,-0.6689453125,-0.00177001953125,-33.0625,42.75,-9.6875,9.62,1.71,0.76,stop,3
7.56,1848322.500255765,23,3,3,0,3,9.73,2.44,0.61,0.11,0.72,-0.12,5.125,-8.875,-6.5,0.73345947265625,0.117919921875,-0.66943359375,-0.00201416015625,-33.0625,42.75,-9.6875,9.62,1.72,0.74,stop,3
7.57,1848322.500255765,23,3,3,0,3,9.65,2.41,0.45,0.03,0.67,-0.27,0.125,-8.75,-6.75,0.73291015625,0.11810302734375,-0.66998291015625,-0.0028076171875,-33.5,42.75,-9.25,9.62,1.73,0.72,stop,3
7.58,1848322.517025134,23,3,3,0,3,9.6,2.32,0.34,-0.01,0.56,-0.36,-0.8125,-5.125,-7.625,0.732421875,0.1190185546875,-0.67034912109375,-0.00390625,-33.5,42.75,-9.25,9.62,1.76,0.71,stop,3
7.59,1848322.517025134,23,3,3,0,3,9.55,2.52,0.37,-0.06,0.73,-0.32,2.0625,-3.1875,-7.75,0.73199462890625,0.12017822265625,-0.670654296875,-0.00482177734375,-33.5,42.75,-9.25,9.61,1.78,0.7,stop,3
7.6,1848322.545394559,23,3,3,0,3,9.52,2.65,0.58,-0.08,0.84,-0.1,3.875,-6.0,-6.9375,0.7314453125,0.12139892578125,-0.6710205078125,-0.005615234375,-33.5,42.75,-9.25,9.61,1.81,0.68,stop,3
7.61,1848322.545394559,23,3,3,0,3,9.56,2.65,0.6,-0.04,0.81,-0.06,1.125,-8.375,-5.0625,0.7308349609375,0.12237548828125,-0.6715087890625,-0.0064697265625,-33.5,42.75,-9.25,9.6,1.83,0.66,stop,3
7.62,1848322.565900012,23,3,3,0,3,9.56,2.51,0.38,-0.04,0.65,-0.26,-3.3125,-7.9375,-4.25,0.730224609375,0.12249755859375,-0.67205810546875,-0.008056640625,-33.0625,43.0625,-8.875,9.6,1.85,0.65,stop,3
7.63,1848322.565900012,23,3,3,0,3,9.46,2.54,0.42,-0.14,0.66,-0.21,-3.5625,-5.25,-4.4375,0.72979736328125,0.123046875,-0.67242431640625,-0.009033203125,-33.0625,43.0625,-8.875,9.6,1.88,0.64,stop,3
7.64,1848322.57402843,23,3,3,0,3,9.46,2.59,0.51,-0.13,0.69,-0.12,-2.75,-2.9375,-4.6875,0.72955322265625,0.1236572265625,-0.67254638671875,-0.010009765625,-33.0625,43.0625,-8.875,9.59,1.9,0.63,stop,3
7.65,1848322.57402843,23,3,3,0,3,9.49,2.58,0.63,-0.1,0.66,0.0,-4.375,-2.9375,-4.4375,0.7293701171875,0.12408447265625,-0.67266845703125,-0.01104736328125,-33.0625,43.0625,-8.875,9.59,1.92,0.62,stop,3
7.66,1848322.60992117,23,3,3,0,3,9.51,2.41,0.6,-0.07,0.48,-0.01,-6.75,-2.75,-4.1875,0.729248046875,0.124267578125,-0.67279052734375,-0.01202392578125,-33.0625,43.0625,-8.875,9.59,1.93,0.62,stop,3
7.67,1848322.60992117,23,3,3,0,3,9.48,2.34,0.51,-0.1,0.39,-0.11,-6.1875,-0.6875,-4.1875,0.72918701171875,0.12384033203125,-0.6728515625,-0.01348876953125,-33.0625,42.375,-8.5,9.59,1.94,0.62,stop,3
7.68,1848322.623809191,23,3,3,0,3,9.44,2.37,0.46,-0.14,0.4,-0.16,-3.3125,0.9375,-3.875,0.72918701171875,0.1241455078125,-0.67279052734375,-0.01409912109375,-33.0625,42.375,-8.5,9.58,1.96,0.62,stop,3
7.69,1848322.623809191,23,3,3,0,3,9.43,2.4,0.41,-0.15,0.42,-0.21,-0.5625,0.0,-3.625,0.7291259765625,0.12457275390625,-0.67279052734375,-0.0146484375,-33.0625,42.375,-8.5,9.58,1.97,0.62,stop,3
7.7,1848322.638341581,23,3,3,0,3,9.49,2.46,0.38,-0.08,0.47,-0.22,0.0,-1.9375,-2.8125,0.7288818359375,0.125,-0.67291259765625,-0.01507568359375,-33.0625,42.375,-8.5,9.58,1.98,0.61,stop,3
7.71,1848322.638341581,23,3,3,0,3,9.53,2.44,0.45,-0.04,0.44,-0.15,-0.75,-2.6875,-2.125,0.7286376953125,0.1253662109375,-0.67315673828125,-0.01556396484375,-33.0625,42.375,-8.5,9.58,1.99,0.61,stop,3
7.72,1848322.669382474,23,3,3,0,3,9.55,2.47,0.47,-0.02,0.46,-0.13,-2.625,-1.9375,-1.0625,0.72845458984375,0.1253662109375,-0.67333984375,-0.01617431640625,-34.5,42.375,-8.875,9.58,2.0,0.6,stop,3
7.73,1848322.669382474,23,3,3,0,3,9.57,2.47,0.53,0.0,0.46,-0.07,-4.75,0.3125,-0.4375,0.72845458984375,0.12530517578125,-0.67333984375,-0.01666259765625,-34.5,42.375,-8.875,9.57,2.01,0.6,stop,3
7.74,1848322.684236071,23,3,3,0,3,9.51,2.38,0.54,-0.06,0.37,-0.07,-6.25,2.6875,-0.1875,0.7286376953125,0.1251220703125,-0.67315673828125,-0.0172119140625,-34.5,42.375,-8.875,9.57,2.01,0.61,stop,3
7.75,1848322.684236071,23,3,3,0,3,9.5,2.39,0.54,-0.07,0.37,-0.07,-6.75,3.9375,0.0,0.7288818359375,0.1248779296875,-0.67291259765625,-0.0177001953125,-34.5,42.375,-8.875,9.57,2.01,0.61,stop,3
7.76,1848322.699220039,23,3,3,0,3,9.52,2.41,0.56,-0.05,0.39,-0.06,-5.5625,3.5625,0.1875,0.7291259765625,0.12469482421875,-0.67266845703125,-0.01812744140625,-34.5,42.375,-8.875,9.57,2.02,0.62,stop,3
7.77,1848322.699220039,23,3,3,0,3,9.5,2.4,0.54,-0.07,0.38,-0.09,-4.125,3.4375,0.1875,0.72930908203125,0.1246337890625,-0.6724853515625,-0.01849365234375,-33.0625,42.375,-9.25,9.57,2.02,0.63,stop,3
7.78,1848322.728016426,23,3,3,0,3,9.48,2.43,0.55,-0.08,0.4,-0.08,-2.8125,3.6875,0.5625,0.72955322265625,0.12457275390625,-0.6722412109375,-0.018798828125,-33.0625,42.375,-9.25,9.57,2.03,0.63,stop,3
7.79,1848322.728016426,23,3,3,0,3,9.47,2.38,0.49,-0.09,0.35,-0.14,-2.0625,4.0,0.5,0.729736328125,0.1246337890625,-0.6719970703125,-0.01904296875,-33.0625,42.375,-9.25,9.57,2.03,0.64,stop,3
7.8,1848322.740300077,23,3,3,0,3,9.46,2.45,0.49,-0.1,0.41,-0.15,-1.0,4.1875,0.375,0.72991943359375,0.12481689453125,-0.6717529296875,-0.01922607421875,-33.0625,42.375,-9.25,9.57,2.03,0.65,stop,3
7.81,1848322.740300077,23,3,3,0,3,9.43,2.45,0.59,-0.12,0.41,-0.05,-0.3125,4.4375,0.25,0.73016357421875,0.125,-0.6715087890625,-0.01934814453125,-33.0625,42.375,-9.25,9.56,2.04,0.65,stop,3
7.82,1848322.758897367,23,3,3,0,3,9.48,2.36,0.44,-0.08,0.31,-0.22,-3.0625,4.6875,0.5,0.7303466796875,0.12481689453125,-0.6712646484375,-0.01983642578125,-34.5,42.0625,-8.5,9.56,2.04,0.66,stop,3
7.83,1848322.758897367,23,3,3,0,3,9.47,2.32,0.45,-0.08,0.27,-0.22,-4.125,5.375,0.625,0.73065185546875,0.12469482421875,-0.67095947265625,-0.0201416015625,-34.5,42.0625,-8.5,9.56,2.05,0.67,stop,3
7.84,1848322.785061144,23,3,3,0,3,9.52,2.39,0.53,-0.03,0.34,-0.14,-2.75,5.375,0.6875,0.73089599609375,0.12469482421875,-0.67071533203125,-0.0203857421875,-34.5,42.0625,-8.5,9.56,2.05,0.67,stop,3
7.85,1848322.785061144,23,3,3,0,3,9.6,2.35,0.75,0.04,0.29,0.06,-3.6875,4.75,0.875,0.731201171875,0.12451171875,-0.67041015625,-0.02056884765625,-34.5,42.0625,-8.5,9.56,2.05,0.68,stop,3
7.86,1848322.798821358,23,3,3,0,3,9.59,2.3,0.69,0.02,0.24,0.0,-6.125,6.125,1.0625,0.73162841796875,0.1241455078125,-0.66998291015625,-0.0208740234375,-34.5,42.0625,-8.5,9.56,2.05,0.69,stop,3
7.87,1848322.798821358,23,3,3,0,3,9.56,2.3,0.64,0.0,0.24,-0.07,-5.9375,8.0,0.5625,0.73211669921875,0.12347412109375,-0.6695556640625,-0.02154541015625,-33.875,42.375,-8.1875,9.56,2.05,0.71,stop,3
7.88,1848322.817897652,23,3,3,0,3,9.54,2.34,0.63,-0.01,0.28,-0.09,-4.625,7.5625,0.5,0.7325439453125,0.123291015625,-0.6690673828125,-0.0218505859375,-33.875,42.375,-8.1875,9.56,2.05,0.72,stop,3
7.89,1848322.817897652,23,3,3,0,3,9.6,2.36,0.66,0.04,0.3,-0.07,-4.75,5.5,0.8125,0.73291015625,0.123046875,-0.66876220703125,-0.0220947265625,-33.875,42.375,-8.1875,9.55,2.05,0.73,stop,3
7.9,1848322.849738513,23,3,3,0,3,9.58,2.36,0.7,0.02,0.3,-0.03,-5.6875,4.4375,1.0,0.73321533203125,0.12274169921875,-0.66845703125,-0.02239990234375,-33.875,42.375,-8.1875,9.55,2.05,0.74,stop,3
7.91,1848322.849738513,23,3,3,0,3,9.55,2.35,0.74,0.0,0.29,0.0,-6.5,4.5,1.1875,0.7335205078125,0.12237548828125,-0.668212890625,-0.02276611328125,-33.875,42.375,-8.1875,9.55,2.05,0.75,stop,3
7.92,1848322.864829414,23,3,3,0,3,9.53,2.33,0.82,-0.02,0.27,0.05,-6.5625,4.6875,1.0625,0.73382568359375,0.12188720703125,-0.66790771484375,-0.023193359375,-34.875,42.75,-8.875,9.55,2.05,0.76,stop,3
7.93,1848322.864829414,23,3,3,0,3,9.48,2.31,0.79,-0.07,0.25,0.02,-5.875,4.375,1.125,0.734130859375,0.12158203125,-0.6676025390625,-0.02349853515625,-34.875,42.75,-8.875,9.55,2.05,0.77,stop,3
7.94,1848322.876347603,23,3,3,0,3,9.48,2.31,0.76,-0.07,0.25,-0.01,-4.375,3.125,1.3125,0.734375,0.121337890625,-0.6673583984375,-0.02374267578125,-34.875,42.75,-8.875,9.55,2.05,0.78,stop,3
7.95,1848322.876347603,23,3,3,0,3,9.45,2.31,0.73,-0.1,0.26,-0.04,-2.375,1.5625,1.625,0.7344970703125,0.12115478515625,-0.66729736328125,-0.0238037109375,-34.875,42.75,-8.875,9.55,2.05,0.78,stop,3
7.96,1848322.908891955,23,3,3,0,3,9.47,2.33,0.72,-0.07,0.28,-0.06,-0.375,0.0,2.0,0.7344970703125,0.12115478515625,-0.66729736328125,-0.0238037109375,-34.875,42.75,-8.875,9.55,2.05,0.78,stop,3
7.97,1848322.908891955,23,3,3,0,3,9.51,2.34,0.69,-0.04,0.28,-0.08,0.625,-1.375,2.125,0.734375,0.12109375,-0.66741943359375,-0.02374267578125,-33.75,42.375,-8.875,9.55,2.05,0.78,stop,3
7.98,1848322.917793566,23,3,3,0,3,9.55,2.3,0.72,0.0,0.25,-0.05,0.1875,-2.375,2.4375,0.73419189453125,0.12103271484375,-0.6676025390625,-0.023681640625,-33.75,42.375,-8.875,9.55,2.05,0.77,stop,3
7.99,1848322.917793566,23,3,3,0,3,9.53,2.31,0.78,-0.01,0.26,0.01,-0.875,-2.6875,2.625,0.73406982421875,0.12091064453125,-0.66778564453125,-0.023681640625,-33.75,42.375,-8.875,9.55,2.05,0.77,stop,3
8.0,1848322.949045642,23,3,3,0,3,9.54,2.29,0.81,-0.01,0.24,0.04,-1.4375,-2.0,2.625,0.73394775390625,0.12078857421875,-0.66796875,-0.023681640625,-33.75,42.375,-8.875,9.55,2.04,0.76,stop,3
8.01,1848322.949045642,23,3,3,0,3,9.53,2.3,0.79,-0.02,0.25,0.02,-0.5625,-1.5,2.625,0.73388671875,0.12066650390625,-0.66802978515625,-0.023681640625,-33.75,42.375,-8.875,9.55,2.04,0.76,stop,3
8.03,1848322.965131132,23,3,3,0,3,9.52,2.29,0.7,-0.03,0.24,-0.06,1.125,-1.5,2.375,0.7337646484375,0.12066650390625,-0.66815185546875,-0.0235595703125,-32.6875,42.75,-8.875,9.56,2.04,0.76,stop,3
8.03,1848322.965131132,23,3,3,0,3,9.51,2.26,0.62,-0.04,0.22,-0.13,2.9375,-1.4375,2.3125,0.733642578125,0.12078857421875,-0.6683349609375,-0.0233154296875,-32.6875,42.75,-8.875,9.56,2.04,0.76,stop,3
8.04,1848322.978913195,23,3,3,0,3,9.5,2.25,0.7,-0.05,0.21,-0.05,4.3125,-1.625,2.1875,0.73345947265625,0.12103271484375,-0.66845703125,-0.02301025390625,-32.6875,42.75,-8.875,9.56,2.04,0.75,stop,3
8.05,1848322.978913195,23,3,3,0,3,9.53,2.25,0.8,-0.02,0.21,0.05,4.1875,-2.0625,2.125,0.73333740234375,0.1212158203125,-0.66864013671875,-0.022705078125,-32.6875,42.75,-8.875,9.56,2.04,0.75,stop,3
8.06,1848322.99266759,23,3,3,0,3,9.54,2.26,0.87,-0.01,0.22,0.13,2.625,-2.0625,2.3125,0.733154296875,0.121337890625,-0.66876220703125,-0.0224609375,-32.6875,42.75,-8.875,9.56,2.03,0.74,stop,3
8.07,1848322.99266759,23,3,3,0,3,9.59,2.27,0.85,0.03,0.24,0.1,1.75,-1.3125,2.3125,0.73309326171875,0.12139892578125,-0.6688232421875,-0.0223388671875,-33.0625,43.0625,-8.5,9.56,2.03,0.74,stop,3
8.08,1848323.02855793,23,3,3,0,3,9.59,2.26,0.77,0.02,0.23,0.02,2.125,-0.6875,2.25,0.7330322265625,0.1214599609375,-0.66888427734375,-0.02215576171875,-33.0625,43.0625,-8.5,9.56,2.03,0.74,stop,3
8.09,1848323.02855793,23,3,3,0,3,9.56,2.26,0.68,0.0,0.22,-0.05,3.25,-0.375,2.3125,0.7330322265625,0.12158203125,-0.66888427734375,-0.0218505859375,-33.0625,43.0625,-8.5,9.56,2.03,0.74,stop,3
8.1,1848323.037942452,23,3,3,0,3,9.55,2.22,0.52,0.0,0.19,-0.21,4.9375,-0.5,2.25,0.73291015625,0.121826171875,-0.6689453125,-0.021484375,-33.0625,43.0625,-8.5,9.56,2.03,0.73,stop,3
8.11,1848323.037942452,23,3,3,0,3,9.52,2.31,0.9,-0.04,0.27,0.16,8.25,-1.4375,2.25,0.7327880859375,0.122314453125,-0.6690673828125,-0.02093505859375,-33.0625,43.0625,-8.5,9.56,2.03,0.73,stop,3
8.12,1848323.053132759,23,3,3,0,3,9.51,2.26,0.93,-0.05,0.23,0.21,8.3125,-2.25,2.0,0.73260498046875,0.122802734375,-0.669189453125,-0.02044677734375,-33.0625,43.0625,-8.875,9.56,2.03,0.72,stop,3
8.13,1848323.053132759,23,3,3,0,3,9.48,2.11,0.77,-0.08,0.08,0.05,2.625,-1.1875,2.25,0.73248291015625,0.1229248046875,-0.66925048828125,-0.02020263671875,-33.0625,43.0625,-8.875,9.56,2.03,0.72,stop,3
8.14,1848323.07112865,23,3,3,0,3,9.48,2.11,0.77,-0.08,0.08,0.05,2.625,-1.1875,2.25,0.73248291015625,0.1229248046875,-0.66925048828125,-0.02020263671875,-33.0625,43.0625,-8.875,9.56,2.03,0.72,stop,3
8.15,1848323.07112865,23,3,3,0,3,9.41,1.98,0.56,-0.15,-0.04,-0.16,-0.8125,1.4375,2.0,0.73260498046875,0.12274169921875,-0.669189453125,-0.0201416015625,-33.0625,43.0625,-8.875,9.56,2.02,0.72,stop,3
8.15,1848323.083021431,23,3,3,0,3,9.5,2.08,0.57,-0.06,0.06,-0.15,1.1875,1.1875,2.3125,0.732666015625,0.12274169921875,-0.66912841796875,-0.0198974609375,-33.0625,43.0625,-8.875,9.56,2.02,0.72,stop,3
8.16,1848323.083021431,23,3,3,0,3,9.57,2.29,0.91,0.0,0.27,0.19,5.75,-2.875,2.8125,0.732421875,0.12298583984375,-0.66937255859375,-0.01947021484375,-33.0625,43.0625,-8.875,9.56,2.02,0.72,stop,3
8.17,1848323.121013374,23,3,3,0,3,9.61,2.28,0.95,0.04,0.26,0.24,4.875,-5.625,3.6875,0.7320556640625,0.1231689453125,-0.66973876953125,-0.01910400390625,-33.75,43.5,-8.5,9.57,2.01,0.71,stop,3
8.18,1848323.121013374,23,3,3,0,3,9.6,2.12,0.72,0.02,0.11,0.02,2.375,-3.5,3.8125,0.73187255859375,0.12310791015625,-0.66998291015625,-0.018798828125,-33.75,43.5,-8.5,9.57,2.01,0.7,stop,3
8.19,1848323.132787015,23,3,3,0,3,9.56,2.27,0.7,0.0,0.26,0.0,5.3125,-1.25,3.0,0.73175048828125,0.12335205078125,-0.6700439453125,-0.01837158203125,-33.75,43.5,-8.5,9.57,2.01,0.7,stop,3
8.2,1848323.132787015,23,3,3,0,3,9.59,2.31,0.83,0.02,0.3,0.14,8.0625,-2.625,2.625,0.7315673828125,0.123779296875,-0.67022705078125,-0.017822265625,-33.75,43.5,-8.5,9.57,2.01,0.69,stop,3
8.21,1848323.1482932,23,3,3,0,3,9.62,2.24,0.81,0.04,0.23,0.12,5.4375,-2.625,2.625,0.73138427734375,0.1240234375,-0.67041015625,-0.0174560546875,-33.75,43.5,-8.5,9.57,2.0,0.69,stop,3
8.22,1848323.1482932,23,3,3,0,3,9.62,2.16,0.74,0.04,0.16,0.05,2.75,-0.9375,2.375,0.7313232421875,0.1241455078125,-0.67047119140625,-0.0172119140625,-33.0625,43.0625,-9.6875,9.57,2.0,0.68,stop,3
8.23,1848323.175252632,23,3,3,0,3,9.55,2.15,0.62,-0.01,0.15,-0.05,2.9375,-0.0625,2.0625,0.73126220703125,0.124267578125,-0.67047119140625,-0.0169677734375,-33.0625,43.0625,-9.6875,9.57,2.0,0.68,stop,3
8.24,1848323.175252632,23,3,3,0,3,9.56,2.16,0.59,0.0,0.16,-0.08,4.25,-0.4375,2.0,0.731201171875,0.12445068359375,-0.67047119140625,-0.0166015625,-33.0625,43.0625,-9.6875,9.57,2.0,0.68,stop,3
8.25,1848323.193521146,23,3,3,0,3,9.5,2.14,0.62,-0.07,0.14,-0.05,4.25,-0.8125,1.875,0.73114013671875,0.1246337890625,-0.67059326171875,-0.01629638671875,-33.0625,43.0625,-9.6875,9.57,2.0,0.68,stop,3
8.26,1848323.193521146,23,3,3,0,3,9.49,2.16,0.65,-0.08,0.16,-0.02,3.875,-0.5,1.8125,0.7310791015625,0.12481689453125,-0.67059326171875,-0.0159912109375,-33.0625,43.0625,-9.6875,9.57,2.0,0.68,stop,3
8.28,1848323.20769115,23,3,3,0,3,9.52,2.21,0.65,-0.05,0.21,-0.02,3.9375,-0.8125,1.8125,0.73095703125,0.12506103515625,-0.670654296875,-0.01568603515625,-34.5,43.5,-10.0625,9.57,1.99,0.67,stop,3
8.28,1848323.20769115,23,3,3,0,3,9.55,2.21,0.67,-0.02,0.21,0.0,3.6875,-1.5,1.875,0.7308349609375,0.125244140625,-0.6707763671875,-0.015380859375,-34.5,43.5,-10.0625,9.57,1.99,0.67,stop,3
8.29,1848323.234220446,23,3,3,0,3,9.56,2.19,0.64,-0.01,0.2,-0.02,2.5625,-1.5625,1.75,0.730712890625,0.12530517578125,-0.6708984375,-0.01519775390625,-34.5,43.5,-10.0625,9.57,1.99,0.67,stop,3
8.3,1848323.234220446,23,3,3,0,3,9.55,2.18,0.67,-0.02,0.19,0.0,1.125,-0.9375,1.9375,0.73065185546875,0.1253662109375,-0.67095947265625,-0.01507568359375,-34.5,43.5,-10.0625,9.57,1.99,0.66,stop,3
8.31,1848323.253436348,23,3,3,0,3,9.57,2.16,0.69,0.0,0.17,0.02,0.0,-0.875,1.8125,0.7305908203125,0.12530517578125,-0.67108154296875,-0.0150146484375,-34.5,43.5,-10.0625,9.57,1.99,0.66,stop,3
8.32,1848323.253436348,23,3,3,0,3,9.6,2.16,0.71,0.02,0.17,0.04,-0.5,-1.0,1.875,0.73052978515625,0.12518310546875,-0.671142578125,-0.01495361328125,-33.875,42.375,-9.6875,9.57,1.99,0.66,stop,3
8.33,1848323.269123238,23,3,3,0,3,9.57,2.12,0.74,0.0,0.13,0.08,-0.8125,-1.1875,1.9375,0.73046875,0.12506103515625,-0.67120361328125,-0.01495361328125,-33.875,42.375,-9.6875,9.57,1.98,0.66,stop,3
8.34,1848323.269123238,23,3,3,0,3,9.54,2.07,0.69,-0.03,0.09,0.02,-0.8125,-0.9375,1.875,0.73046875,0.12493896484375,-0.6712646484375,-0.014892578125,-33.875,42.375,-9.6875,9.58,1.98,0.66,stop,3
8.35,1848323.296958158,23,3,3,0,3,9.53,2.07,0.61,-0.04,0.09,-0.04,-0.5,-0.875,1.625,0.73040771484375,0.1248779296875,-0.67132568359375,-0.01483154296875,-33.875,42.375,-9.6875,9.58,1.98,0.66,stop,3
8.37,1848323.296958158,23,3,3,0,3,9.52,2.1,0.64,-0.05,0.12,-0.01,0.1875,-1.6875,1.5625,0.73028564453125,0.12481689453125,-0.6715087890625,-0.0147705078125,-33.875,42.375,-9.6875,9.58,1.98,0.65,stop,3
8.37,1848323.311240059,23,3,3,0,3,9.52,2.16,0.79,-0.05,0.18,0.14,1.0,-2.0625,1.4375,0.73016357421875,0.12481689453125,-0.671630859375,-0.0146484375,-33.0625,42.75,-8.1875,9.58,1.98,0.65,stop,3
8.38,1848323.311240059,23,3,3,0,3,9.53,1.98,0.44,-0.04,0.0,-0.2,-0.25,-1.8125,1.25,0.73004150390625,0.124755859375,-0.6717529296875,-0.0146484375,-33.0625,42.75,-8.1875,9.58,1.97,0.65,stop,3
8.39,1848323.328843249,23,3,3,0,3,9.5,1.99,0.49,-0.08,0.01,-0.15,0.0,-2.1875,1.25,0.72991943359375,0.12469482421875,-0.67193603515625,-0.01458740234375,-33.0625,42.75,-8.1875,9.58,1.97,0.64,stop,3
8.4,1848323.328843249,23,3,3,0,3,9.51,2.09,0.64,-0.07,0.11,0.0,1.5625,-3.1875,1.3125,0.72967529296875,0.124755859375,-0.672119140625,-0.01446533203125,-33.0625,42.75,-8.1875,9.58,1.97,0.64,stop,3
8.41,1848323.353789131,23,3,3,0,3,9.42,2.03,0.61,-0.15,0.06,-0.02,0.75,-3.6875,1.5625,0.7294921875,0.124755859375,-0.67236328125,-0.014404296875,-33.0625,42.75,-8.1875,9.58,1.97,0.63,stop,3
8.42,1848323.353789131,23,3,3,0,3,9.34,2.02,0.52,-0.24,0.04,-0.1,-0.5,-3.25,1.6875,0.729248046875,0.1246337890625,-0.672607421875,-0.01434326171875,-33.875,43.0625,-8.875,9.58,1.97,0.62,stop,3
8.43,1848323.371874703,23,3,3,0,3,9.27,2.04,0.47,-0.31,0.07,-0.14,0.4375,-3.125,1.625,0.72906494140625,0.12457275390625,-0.6728515625,-0.0142822265625,-33.875,43.0625,-8.875,9.58,1.96,0.62,stop,3
8.45,1848323.371874703,23,3,3,0,3,9.2,2.06,0.47,-0.38,0.09,-0.13,2.3125,-4.375,1.4375,0.728759765625,0.12469482421875,-0.67315673828125,-0.01416015625,-33.875,43.0625,-8.875,9.58,1.96,0.61,stop,3
8.45,1848323.41081497,23,3,3,0,3,9.05,2.06,0.49,-0.53,0.09,-0.1,2.625,-5.6875,1.5,0.7283935546875,0.124755859375,-0.67352294921875,-0.01397705078125,-33.875,43.0625,-8.875,9.58,1.96,0.6,stop,3
8.46,1848323.41081497,23,3,3,0,3,8.93,2.03,0.47,-0.65,0.07,-0.12,1.9375,-6.1875,1.625,0.72802734375,0.124755859375,-0.6739501953125,-0.0137939453125,-33.875,43.0625,-8.875,9.58,1.96,0.59,stop,3
8.47,1848323.421173409,23,3,3,0,3,8.81,2.03,0.42,-0.77,0.07,-0.15,1.5625,-6.1875,1.8125,0.7276611328125,0.124755859375,-0.67437744140625,-0.013671875,-33.75,42.75,-9.6875,9.59,1.96,0.58,stop,3
8.48,1848323.421173409,23,3,3,0,3,8.67,2.04,0.4,-0.91,0.08,-0.16,1.625,-6.625,1.6875,0.72723388671875,0.124755859375,-0.6748046875,-0.0135498046875,-33.75,42.75,-9.6875,9.59,1.95,0.56,stop,3
8.5,1848323.43155081,23,3,3,0,3,8.48,2.1,0.41,-1.11,0.15,-0.13,1.3125,-7.0625,1.8125,0.726806640625,0.124755859375,-0.67529296875,-0.013427734375,-33.75,42.75,-9.6875,9.59,1.95,0.55,stop,3
8.5,1848323.43155081,23,3,3,0,3,8.44,2.12,0.38,-1.14,0.17,-0.15,0.25,-7.8125,2.25,0.726318359375,0.1246337890625,-0.67584228515625,-0.013427734375,-33.75,42.75,-9.6875,9.59,1.95,0.54,stop,3
8.52,1848323.449183378,23,3,3,0,3,8.46,2.14,0.35,-1.12,0.19,-0.17,-1.0625,-9.125,2.6875,0.725830078125,0.1243896484375,-0.67645263671875,-0.01336669921875,-33.75,42.75,-9.6875,9.59,1.94,0.52,stop,3
8.53,1848323.449183378,23,3,3,0,3,8.59,2.14,0.28,-1.0,0.2,-0.22,-1.75,-11.1875,3.4375,0.72515869140625,0.12408447265625,-0.67718505859375,-0.013427734375,-33.875,43.5,-9.6875,9.59,1.94,0.51,stop,3
8.53,1848323.459121814,23,3,3,0,3,9.56,2.11,0.33,-0.03,0.18,-0.15,-2.25,-13.875,4.5625,0.724365234375,0.1236572265625,-0.6781005859375,-0.013427734375,-33.875,43.5,-9.6875,9.6,1.93,0.48,stop,3
8.54,1848323.459121814,23,3,3,0,3,9.56,2.11,0.33,-0.03,0.18,-0.15,-2.25,-13.875,4.5625,0.724365234375,0.1236572265625,-0.6781005859375,-0.013427734375,-33.875,43.5,-9.6875,9.6,1.93,0.48,stop,3
8.55,1848323.479400093,23,3,3,0,3,10.13,2.0,0.7,0.53,0.07,0.24,-5.0,-18.625,6.3125,0.72332763671875,0.1229248046875,-0.6793212890625,-0.01348876953125,-33.875,43.5,-9.6875,9.6,1.92,0.45,stop,3
8.55,1848323.479400093,23,3,3,0,3,10.89,1.83,1.12,1.28,-0.07,0.69,-12.4375,-20.5625,8.5625,0.72222900390625,0.12164306640625,-0.68072509765625,-0.013916015625,-33.875,43.5,-9.6875,9.6,1.9,0.42,stop,3
8.56,1848323.508232247,23,3,3,0,3,12.56,1.05,1.63,2.94,-0.83,1.22,-24.5,-17.0,11.0,0.72149658203125,0.11944580078125,-0.681884765625,-0.014892578125,-33.875,43.5,-9.6875,9.61,1.88,0.4,stop,3
8.57,1848323.508232247,23,3,3,0,3,13.49,0.53,1.48,3.87,-1.32,1.08,-39.4375,-13.6875,13.0,0.72113037109375,0.1162109375,-0.68280029296875,-0.01654052734375,-33.875,43.0625,-9.6875,9.61,1.86,0.39,stop,3
8.58,1848323.522269519,23,3,3,0,3,14.55,0.21,1.04,4.93,-1.62,0.65,-54.8125,-15.3125,13.0625,0.72076416015625,0.1119384765625,-0.683837890625,-0.01910400390625,-33.875,43.0625,-9.6875,9.62,1.83,0.38,stop,3
8.6,1848323.522269519,23,3,3,0,3,15.51,0.13,0.61,5.88,-1.68,0.25,-67.0625,-26.625,11.8125,0.7198486328125,0.10699462890625,-0.68548583984375,-0.02264404296875,-33.875,43.0625,-9.6875,9.63,1.81,0.36,stop,3
8.61,1848323.537830595,23,3,3,0,3,16.01,0.38,0.25,6.38,-1.41,-0.06,-70.5625,-35.875,9.5625,0.71832275390625,0.10186767578125,-0.68768310546875,-0.026611328125,-33.875,43.0625,-9.6875,9.63,1.79,0.32,stop,3
8.62,1848323.537830595,23,3,3,0,3,14.88,0.78,0.03,5.24,-0.99,-0.26,-65.75,-24.75,1.6875,0.7174072265625,0.09759521484375,-0.6890869140625,-0.0306396484375,-33.875,43.0625,-9.6875,9.63,1.78,0.3,stop,3
8.62,1848323.570911527,23,3,3,0,3,13.37,1.14,-0.14,3.74,-0.66,-0.48,-55.125,8.0625,-12.0625,0.71832275390625,0.09454345703125,-0.6883544921875,-0.0350341796875,-32.375,44.1875,-7.0,9.63,1.8,0.33,stop,3
8.63,1848323.570911527,23,3,3,0,3,12.21,1.64,-0.39,2.59,-0.2,-0.81,-43.5625,37.5625,-25.4375,0.72088623046875,0.09344482421875,-0.6856689453125,-0.0389404296875,-32.375,44.1875,-7.0,9.62,1.84,0.41,moving,3
8.64,1848323.583142159,23,3,3,0,3,11.14,2.65,-0.77,1.53,0.75,-1.25,-39.0625,32.4375,-34.75,0.7230224609375,0.0931396484375,-0.68316650390625,-0.043212890625,-32.375,44.1875,-7.0,9.6,1.9,0.48,moving,3
8.65,1848323.583142159,23,3,3,0,3,10.79,2.93,-0.73,1.19,0.97,-1.23,-39.1875,0.8125,-40.3125,0.72320556640625,0.09307861328125,-0.6826171875,-0.048095703125,-32.375,44.1875,-7.0,9.59,1.96,0.49,moving,3
8.67,1848323.593477527,23,3,3,0,3,10.26,2.94,-0.62,0.68,0.91,-1.08,-36.125,-28.5,-43.75,0.72161865234375,0.09332275390625,-0.6839599609375,-0.05322265625,-32.375,44.1875,-7.0,9.58,2.03,0.46,moving,3
8.68,1848323.593477527,23,3,3,0,3,9.43,2.81,-0.28,-0.13,0.7,-0.69,-30.4375,-38.875,-48.1875,0.71929931640625,0.0941162109375,-0.68585205078125,-0.058349609375,-33.5,44.5625,-5.75,9.56,2.11,0.4,moving,3
8.69,1848323.624107613,23,3,3,0,3,7.48,2.58,0.35,-2.06,0.38,-0.01,-34.375,-32.625,-55.6875,0.71734619140625,0.09515380859375,-0.687255859375,-0.06414794921875,-33.5,44.5625,-5.75,9.54,2.2,0.36,moving,3
8.7,1848323.624107613,23,3,3,0,3,6.59,2.53,0.22,-2.92,0.22,-0.13,-55.0,-19.8125,-63.8125,0.7161865234375,0.09539794921875,-0.6876220703125,-0.07159423828125,-33.5,44.5625,-5.75,9.52,2.3,0.35,moving,3
8.7,1848323.64369412,23,3,3,0,3,5.72,2.41,0.22,-3.76,0.0,-0.16,-74.8125,-2.1875,-70.375,0.71624755859375,0.094970703125,-0.68670654296875,-0.08050537109375,-33.5,44.5625,-5.75,9.49,2.41,0.38,moving,3
8.71,1848323.64369412,23,3,3,0,3,3.64,2.27,0.54,-5.81,-0.25,0.1,-82.1875,14.6875,-76.75,0.71722412109375,0.09454345703125,-0.68450927734375,-0.090087890625,-33.5,44.5625,-5.75,9.46,2.53,0.44,moving,3
8.72,1848323.65611864,23,3,3,0,3,2.6,2.15,0.66,-6.81,-0.5,0.13,-85.0625,28.6875,-79.3125,0.71893310546875,0.09405517578125,-0.681396484375,-0.0999755859375,-36.0,43.0625,-3.1875,9.42,2.66,0.52,moving,3
8.73,1848323.65611864,23,3,3,0,3,1.76,1.86,0.72,-7.61,-0.91,0.09,-91.3125,40.8125,-80.1875,0.72137451171875,0.09344482421875,-0.67730712890625,-0.110107421875,-36.0,43.0625,-3.1875,9.38,2.78,0.63,moving,3
8.75,1848323.683876819,23,3,3,0,3,1.13,1.34,0.7,-8.2,-1.55,-0.07,-101.625,52.3125,-81.3125,0.7244873046875,0.09234619140625,-0.67236328125,-0.12078857421875,-36.0,43.0625,-3.1875,9.33,2.9,0.77,moving,3
8.76,1848323.683876819,23,3,3,0,3,-0.08,1.02,0.65,-9.36,-1.99,-0.29,-112.0625,71.5625,-82.1875,0.7286376953125,0.09088134765625,-0.6658935546875,-0.1319580078125,-36.0,43.0625,-3.1875,9.28,3.02,0.94,moving,3
8.77,1848323.703280953,23,3,3,0,3,-0.87,1.16,0.43,-10.08,-1.96,-0.74,-117.75,102.0,-81.9375,0.73443603515625,0.08929443359375,-0.6573486328125,-0.1431884765625,-36.0,43.0625,-3.1875,9.21,3.13,1.17,moving,3
8.78,1848323.703280953,23,3,3,0,3,-1.31,1.32,-0.03,-10.45,-1.9,-1.51,-122.625,143.375,-82.0,0.74249267578125,0.08795166015625,-0.6458740234375,-0.154296875,-38.1875,40.5625,-0.5,9.13,3.23,1.47,moving,3
8.78,1848323.71668704,23,3,3,0,3,-0.76,1.68,-0.88,-9.8,-1.64,-2.7,-130.125,174.125,-80.0625,0.7520751953125,0.08636474609375,-0.63214111328125,-0.16546630859375,-38.1875,40.5625,-0.5,9.04,3.32,1.82,moving,3
8.8,1848323.71668704,23,3,3,0,3,2.0,2.7,-2.69,-6.94,-0.67,-4.85,-138.75,161.0625,-66.5,0.7608642578125,0.083251953125,-0.61895751953125,-0.17626953125,-38.1875,40.5625,-0.5,8.94,3.38,2.15,moving,3
8.8,1848323.733298083,23,3,3,0,3,2.0,2.7,-2.69,-6.94,-0.67,-4.85,-138.75,161.0625,-66.5,0.7608642578125,0.083251953125,-0.61895751953125,-0.17626953125,-38.1875,40.5625,-0.5,8.94,3.38,2.15,moving,3
8.81,1848323.733298083,23,3,3,0,3,4.44,2.93,-3.23,-4.44,-0.45,-5.59,-143.5,79.5,-40.0,0.7655029296875,0.07708740234375,-0.611083984375,-0.18603515625,-38.1875,40.5625,-0.5,8.89,3.38,2.36,moving,3
8.82,1848323.742836169,23,3,3,0,3,7.42,3.16,-3.53,-1.48,-0.18,-5.87,-134.125,-68.375,-11.25,0.76251220703125,0.067626953125,-0.61334228515625,-0.19439697265625,-38.1875,40.5625,-0.5,8.91,3.35,2.33,moving,3
8.83,1848323.742836169,23,3,3,0,3,10.87,3.72,-4.32,1.84,0.44,-6.31,-97.4375,-260.75,21.375,0.749267578125,0.05560302734375,-0.6290283203125,-0.19970703125,-41.0,37.375,-2.375,9.02,3.28,1.98,moving,3
8.84,1848323.779399768,23,3,3,0,3,21.85,5.02,-6.72,12.65,1.85,-7.98,-33.5,-469.75,64.625,0.72412109375,0.0416259765625,-0.65887451171875,-0.19940185546875,-41.0,37.375,-2.375,9.19,3.16,1.25,moving,3
8.85,1848323.779399768,23,3,3,0,3,33.98,7.71,2.66,24.64,4.72,2.49,39.5,-661.0625,109.5625,0.68670654296875,0.02630615234375,-0.7005615234375,-0.19232177734375,-41.0,37.375,-2.375,9.33,2.99,0.16,moving,3
8.86,1848323.792736479,23,3,3,0,3,39.25,15.56,22.54,29.9,12.75,23.51,87.0,-665.9375,112.25,0.64654541015625,0.01348876953125,-0.7408447265625,-0.18145751953125,-41.0,37.375,-2.375,9.34,2.8,-0.96,moving,3
8.87,1848323.792736479,23,3,3,0,3,28.5,9.02,-3.01,19.14,6.32,-1.88,-73.9375,-124.125,73.375,0.63970947265625,0.00262451171875,-0.7467041015625,-0.1822509765625,-41.0,37.375,-2.375,9.35,2.7,-1.12,moving,3
8.88,1848323.805744128,23,3,3,0,3,14.53,3.78,-6.25,5.13,1.03,-5.74,-118.875,346.375,-18.375,0.66168212890625,0.002685546875,-0.72509765625,-0.19085693359375,-38.5,37.6875,10.875,9.39,2.74,-0.5,moving,3
8.89,1848323.805744128,23,3,3,0,3,13.48,3.0,-4.06,4.09,0.18,-4.14,-7.75,356.125,-41.8125,0.68316650390625,0.01080322265625,-0.7041015625,-0.193603515625,-38.5,37.6875,10.875,9.39,2.81,0.08,moving,3
8.9,1848323.839260608,23,3,3,0,3,14.03,3.49,-2.02,4.66,0.61,-2.37,68.3125,184.25,-35.1875,0.69366455078125,0.0201416015625,-0.694091796875,-0.1912841796875,-38.5,37.6875,10.875,9.36,2.87,0.34,moving,3
8.91,1848323.839260608,23,3,3,0,3,16.52,5.84,6.85,7.16,2.93,6.51,104.375,27.5,-14.625,0.69488525390625,0.02783203125,-0.69415283203125,-0.185791015625,-38.5,37.6875,10.875,9.35,2.9,0.34,moving,3
8.92,1848323.852542875,23,3,3,0,3,16.4,5.63,4.46,7.03,2.74,4.27,85.625,-66.875,17.75,0.69085693359375,0.0308837890625,-0.6995849609375,-0.1796875,-38.5,37.6875,10.875,9.37,2.88,0.18,moving,3
8.93,1848323.852542875,23,3,3,0,3,14.65,3.83,1.09,5.26,1.01,0.98,28.75,-38.125,37.0,0.68902587890625,0.02972412109375,-0.70245361328125,-0.17584228515625,-37.375,39.5625,10.0625,9.39,2.82,0.11,moving,3
8.94,1848323.866210478,23,3,3,0,3,13.2,3.42,0.3,3.79,0.66,0.2,38.9375,5.1875,36.5,0.6898193359375,0.02996826171875,-0.70281982421875,-0.17120361328125,-37.375,39.5625,10.0625,9.4,2.76,0.1,moving,3
8.95,1848323.866210478,23,3,3,0,3,10.93,3.99,1.16,1.5,1.29,1.12,90.25,-9.8125,36.3125,0.68951416015625,0.03302001953125,-0.704833984375,-0.16351318359375,-37.375,39.5625,10.0625,9.42,2.7,0.04,moving,3
8.95,1848323.894980823,23,3,3,0,3,9.55,3.88,1.2,0.11,1.22,1.27,135.625,-31.0625,29.1875,0.68756103515625,0.0389404296875,-0.70867919921875,-0.15350341796875,-37.375,39.5625,10.0625,9.43,2.65,-0.07,moving,3
8.97,1848323.894980823,23,3,3,0,3,7.64,3.39,1.09,-1.8,0.77,1.26,163.5625,-14.5,16.25,0.68621826171875,0.04754638671875,-0.71173095703125,-0.1424560546875,-37.375,39.5625,10.0625,9.44,2.62,-0.17,moving,3
8.98,1848323.909205351,23,3,3,0,3,5.57,2.55,1.32,-3.86,-0.06,1.53,172.5,22.875,4.5625,0.6868896484375,0.057861328125,-0.71240234375,-0.13140869140625,-37.75,39.5625,8.1875,9.44,2.61,-0.21,moving,3
8.99,1848323.909205351,23,3,3,0,3,1.49,1.27,1.61,-7.95,-1.33,1.77,164.375,76.0,0.1875,0.69073486328125,0.068603515625,-0.70965576171875,-0.12078857421875,-37.75,39.5625,8.1875,9.45,2.61,-0.16,moving,3
9.0,1848323.926939685,23,3,3,0,3,-0.48,0.65,1.64,-9.93,-1.95,1.63,145.0,148.3125,1.5,0.698974609375,0.07879638671875,-0.7021484375,-0.11083984375,-37.75,39.5625,8.1875,9.45,2.6,0.01,moving,3
9.01,1848323.926939685,23,3,3,0,3,-1.91,0.04,1.42,-11.36,-2.57,1.08,120.125,226.9375,-2.0625,0.7117919921875,0.08843994140625,-0.68927001953125,-0.10198974609375,-37.75,39.5625,8.1875,9.44,2.61,0.33,moving,3
9.02,1848323.958971627,23,3,3,0,3,-2.94,-0.53,1.05,-12.35,-3.17,0.26,91.75,305.3125,-9.0625,0.7291259765625,0.09735107421875,-0.6707763671875,-0.09466552734375,-37.75,39.5625,8.1875,9.41,2.63,0.79,moving,3
9.03,1848323.958971627,23,3,3,0,3,-3.42,-0.34,-0.43,-12.75,-2.97,-1.9,31.3125,423.3125,8.5,0.753173828125,0.102294921875,-0.64373779296875,-0.08868408203125,-37.75,41.25,0.6875,9.33,2.63,1.47,moving,3
9.03,1848323.972087146,23,3,3,0,3,-3.23,0.06,-1.26,-12.43,-2.56,-3.41,31.3125,423.3125,8.5,0.77618408203125,0.1070556640625,-0.6158447265625,-0.08251953125,-37.75,41.25,0.6875,9.2,2.62,2.14,moving,3
9.05,1848323.972087146,23,3,3,0,3,-3.01,0.37,-2.13,-12.03,-2.21,-4.97,8.0,438.25,26.0625,0.79925537109375,0.10931396484375,-0.5860595703125,-0.076171875,-37.75,41.25,0.6875,9.02,2.58,2.83,moving,3
9.06,1848323.985877348,23,3,3,0,3,-2.0,-0.15,-3.43,-10.82,-2.67,-6.9,-10.3125,405.0625,46.125,0.81982421875,0.10888671875,-0.55780029296875,-0.069580078125,-37.75,41.25,0.6875,8.82,2.51,3.47,moving,3
9.06,1848323.985877348,23,3,3,0,3,-2.0,-0.15,-3.43,-10.82,-2.67,-6.9,-10.3125,405.0625,46.125,0.81982421875,0.10888671875,-0.55780029296875,-0.069580078125,-37.75,41.25,0.6875,8.82,2.51,3.47,moving,3
9.07,1848324.001392281,23,3,3,0,3,-0.78,-0.3,-3.68,-9.43,-2.69,-7.65,-25.1875,316.4375,70.625,0.8355712890625,0.10552978515625,-0.53546142578125,-0.062744140625,-37.75,41.25,0.6875,8.64,2.38,3.96,moving,3
9.08,1848324.001392281,23,3,3,0,3,0.81,-0.75,-3.32,-7.85,-2.99,-7.32,7.875,21.375,103.8125,0.8370361328125,0.10137939453125,-0.534912109375,-0.05462646484375,-36.0,41.6875,-12.25,8.67,2.23,3.99,moving,3
9.09,1848324.033656482,23,3,3,0,3,2.77,-1.22,-2.73,-6.02,-3.32,-6.51,74.8125,-120.5625,122.625,0.83123779296875,0.10052490234375,-0.5450439453125,-0.04327392578125,-36.0,41.6875,-12.25,8.8,2.1,3.78,moving,3
9.1,1848324.033656482,23,3,3,0,3,7.14,-0.71,-2.33,-1.87,-2.68,-5.63,154.875,-271.875,148.5,0.817138671875,0.1036376953125,-0.56640625,-0.02752685546875,-36.0,41.6875,-12.25,9.02,1.96,3.3,moving,3
9.11,1848324.048867948,23,3,3,0,3,10.39,-0.1,-2.82,1.08,-1.91,-5.3,240.125,-466.6875,176.625,0.7913818359375,0.11077880859375,-0.60113525390625,-0.00726318359375,-36.0,41.6875,-12.25,9.31,1.8,2.47,moving,3
9.12,1848324.048867948,23,3,3,0,3,15.08,0.74,-4.18,5.47,-0.83,-5.37,338.5625,-722.625,205.4375,0.7484130859375,0.12261962890625,-0.65155029296875,0.01763916015625,-36.0,41.6875,-12.25,9.6,1.57,1.18,moving,3
9.13,1848324.060085641,23,3,3,0,3,20.72,1.17,-6.61,11.0,-0.02,-6.02,445.6875,-987.875,231.9375,0.6839599609375,0.139404296875,-0.71453857421875,0.04730224609375,-30.875,44.1875,-17.6875,9.71,1.2,-0.58,moving,3
9.14,1848324.060085641,23,3,3,0,3,32.13,0.44,-9.7,22.67,-0.23,-7.19,498.5625,-1097.75,232.6875,0.60504150390625,0.15826416015625,-0.7763671875,0.0784912109375,-30.875,44.1875,-17.6875,9.45,0.68,-2.5,moving,3
9.15,1848324.077006661,23,3,3,0,3,31.55,-3.25,-0.6,22.46,-3.47,3.07,377.625,-708.125,160.625,0.54931640625,0.1717529296875,-0.81134033203125,0.10247802734375,-30.875,44.1875,-17.6875,9.08,0.21,-3.68,moving,3
9.16,1848324.077006661,23,3,3,0,3,33.08,4.88,3.64,24.01,4.81,7.34,18.25,-15.8125,89.9375,0.547119140625,0.1663818359375,-0.813232421875,0.10784912109375,-30.875,44.1875,-17.6875,9.07,0.06,-3.7,moving,3
9.17,1848324.10312454,23,3,3,0,3,30.88,10.52,-10.66,21.58,10.33,-7.55,-207.1875,372.0,-1.5,0.57611083984375,0.15301513671875,-0.796875,0.098388671875,-30.875,44.1875,-17.6875,9.29,0.19,-3.1,moving,3
9.18,1848324.10312454,23,3,3,0,3,16.79,0.26,-4.74,7.32,-0.1,-2.25,-119.3125,371.375,-74.3125,0.603759765625,0.14886474609375,-0.77777099609375,0.09130859375,-31.25,44.1875,-9.6875,9.47,0.37,-2.49,moving,3
9.19,1848324.12242406,23,3,3,0,3,14.67,0.22,-3.61,5.09,-0.32,-1.6,-49.5,283.1875,-90.25,0.6241455078125,0.15008544921875,-0.7618408203125,0.0867919921875,-31.25,44.1875,-9.6875,9.58,0.54,-2.01,moving,3
9.2,1848324.12242406,23,3,3,0,3,13.29,1.91,-3.37,3.68,1.21,-1.53,-59.0,97.4375,-82.5625,0.6319580078125,0.151611328125,-0.755859375,0.07965087890625,-31.25,44.1875,-9.6875,9.6,0.69,-1.84,moving,3
9.21,1848324.153767159,23,3,3,0,3,13.92,3.8,-2.04,4.33,2.97,-0.13,-101.5625,-43.375,-59.125,0.63079833984375,0.15020751953125,-0.75811767578125,0.069091796875,-31.25,44.1875,-9.6875,9.58,0.83,-1.9,moving,3
9.22,1848324.153767159,23,3,3,0,3,13.36,2.73,-1.56,3.79,1.79,0.38,-125.8125,-34.1875,-41.8125,0.63037109375,0.146240234375,-0.7601318359375,0.05804443359375,-31.25,44.1875,-9.6875,9.56,0.94,-1.94,moving,3
9.23,1848324.189553943,23,3,3,0,3,12.05,1.97,-2.04,2.48,0.92,-0.18,-144.625,40.125,-38.75,0.63507080078125,0.14068603515625,-0.75811767578125,0.04681396484375,-29.875,45.375,-11.1875,9.57,1.05,-1.85,moving,3
9.24,1848324.189553943,23,3,3,0,3,10.9,0.91,-2.05,1.31,-0.26,-0.37,-163.375,86.125,-48.125,0.642822265625,0.13446044921875,-0.7532958984375,0.03436279296875,-29.875,45.375,-11.1875,9.58,1.18,-1.67,moving,3
9.25,1848324.194891874,23,3,3,0,3,7.71,-0.37,-1.1,-1.89,-1.71,0.35,-180.25,111.6875,-61.4375,0.65234375,0.1280517578125,-0.7467041015625,0.0203857421875,-29.875,45.375,-11.1875,9.6,1.33,-1.45,moving,3
9.26,1848324.194891874,23,3,3,0,3,5.57,-0.5,-0.82,-4.04,-2.0,0.35,-194.8125,132.625,-65.5,0.66314697265625,0.1209716796875,-0.7386474609375,0.00543212890625,-29.875,45.375,-11.1875,9.61,1.49,-1.18,moving,3
9.27,1848324.212090117,23,3,3,0,3,3.84,-0.68,-0.25,-5.78,-2.31,0.62,-211.375,142.125,-60.8125,0.67437744140625,0.112548828125,-0.72967529296875,-0.01019287109375,-29.875,45.375,-11.1875,9.62,1.63,-0.88,moving,3
9.28,1848324.212090117,23,3,3,0,3,2.78,-0.7,0.42,-6.84,-2.48,0.99,-225.5625,151.3125,-66.0625,0.68597412109375,0.10357666015625,-0.7197265625,-0.0269775390625,-32.0,45.375,-8.1875,9.62,1.77,-0.56,moving,3
9.29,1848324.228739531,23,3,3,0,3,0.17,-0.41,2.18,-9.43,-2.34,2.33,-224.4375,204.8125,-89.0,0.70037841796875,0.09619140625,-0.70587158203125,-0.04449462890625,-32.0,45.375,-8.1875,9.61,1.93,-0.14,moving,3
9.3,1848324.228739531,23,3,3,0,3,-0.67,-0.15,2.18,-10.24,-2.27,1.76,-226.125,296.5,-110.875,0.71966552734375,0.09033203125,-0.685546875,-0.06268310546875,-32.0,45.375,-8.1875,9.56,2.11,0.42,moving,3
9.31,1848324.241248808,23,3,3,0,3,-1.72,0.87,1.2,-11.19,-1.41,0.08,-235.375,363.5,-124.4375,0.74200439453125,0.08489990234375,-0.65997314453125,-0.0816650390625,-32.0,45.375,-8.1875,9.46,2.29,1.12,moving,3
9.32,1848324.241248808,23,3,3,0,3,-3.08,1.4,0.45,-12.39,-1.06,-1.4,-236.875,388.25,-142.5,0.76446533203125,0.08050537109375,-0.63153076171875,-0.1015625,-32.0,45.375,-8.1875,9.3,2.46,1.85,moving,3
9.33,1848324.257468941,23,3,3,0,3,-3.08,1.4,0.45,-12.39,-1.06,-1.4,-236.875,388.25,-142.5,0.76446533203125,0.08050537109375,-0.63153076171875,-0.1015625,-32.0,45.375,-8.1875,9.3,2.46,1.85,moving,3
9.33,1848324.257468941,23,3,3,0,3,-3.53,0.12,-0.91,-12.62,-2.49,-3.49,-244.8125,377.75,-152.375,0.78497314453125,0.07586669921875,-0.60260009765625,-0.1224365234375,-34.875,44.25,-5.5,9.09,2.61,2.57,moving,3
9.34,1848324.287767973,23,3,3,0,3,-2.5,-0.3,-0.97,-11.36,-3.01,-4.18,-270.5625,325.6875,-144.25,0.80169677734375,0.06829833984375,-0.57598876953125,-0.144287109375,-34.875,44.25,-5.5,8.86,2.7,3.2,moving,3
9.35,1848324.287767973,23,3,3,0,3,-1.76,-0.14,-1.8,-10.41,-2.86,-5.51,-301.625,237.875,-130.8125,0.81329345703125,0.0567626953125,-0.554443359375,-0.16705322265625,-34.875,44.25,-5.5,8.65,2.72,3.71,moving,3
9.36,1848324.293201689,23,3,3,0,3,-0.37,-0.86,-4.06,-8.87,-3.54,-8.14,-319.375,146.5,-119.25,0.81982421875,0.0419921875,-0.53851318359375,-0.190185546875,-34.875,44.25,-5.5,8.5,2.68,4.08,moving,3
9.37,1848324.293201689,23,3,3,0,3,1.65,-1.49,-6.12,-6.77,-4.11,-10.39,-311.0625,22.875,-104.625,0.8199462890625,0.0250244140625,-0.5311279296875,-0.21209716796875,-34.875,44.25,-5.5,8.43,2.61,4.26,moving,3
9.38,1848324.323359689,23,3,3,0,3,5.25,-2.24,-7.08,-3.28,-4.79,-11.17,-247.5625,-193.5625,-82.1875,0.8096923828125,0.007568359375,-0.53997802734375,-0.229736328125,-37.375,41.75,-5.75,8.54,2.55,4.08,moving,3
9.39,1848324.323359689,23,3,3,0,3,8.25,-2.15,-6.72,-0.56,-4.68,-10.19,-119.5,-441.875,-34.5,0.78759765625,-0.00811767578125,-0.56829833984375,-0.2379150390625,-37.375,41.75,-5.75,8.81,2.52,3.47,moving,3
9.4,1848324.339533598,23,3,3,0,3,14.44,-1.51,-7.69,5.27,-4.02,-10.13,41.4375,-646.75,28.25,0.75494384765625,-0.02001953125,-0.61260986328125,-0.23309326171875,-37.375,41.75,-5.75,9.16,2.5,2.43,moving,3
9.41,1848324.339533598,23,3,3,0,3,20.27,-1.03,-8.41,10.82,-3.46,-9.39,209.0625,-838.5625,82.4375,0.71014404296875,-0.02764892578125,-0.6700439453125,-0.21441650390625,-37.375,41.75,-5.75,9.44,2.43,0.98,moving,3
9.42,1848324.364056425,23,3,3,0,3,28.86,-0.44,-7.17,19.34,-2.72,-6.54,357.0,-887.125,100.8125,0.65869140625,-0.0279541015625,-0.7288818359375,-0.18450927734375,-37.375,41.75,-5.75,9.51,2.27,-0.62,moving,3
9.43,1848324.364056425,23,3,3,0,3,36.35,2.64,-5.93,26.96,0.52,-4.05,436.25,-653.4375,32.5,0.61724853515625,-0.01544189453125,-0.7716064453125,-0.15289306640625,-40.375,38.875,3.6875,9.38,2.12,-1.87,moving,3
9.44,1848324.378060779,23,3,3,0,3,37.39,33.98,32.8,28.02,31.81,34.74,313.0,30.6875,-89.375,0.6182861328125,0.0078125,-0.77392578125,-0.1365966796875,-40.375,38.875,3.6875,9.36,2.16,-1.94,moving,3
9.45,1848324.378060779,23,3,3,0,3,16.61,13.97,-9.1,7.12,11.62,-8.34,12.1875,726.3125,-110.25,0.66461181640625,0.0245361328125,-0.73333740234375,-0.14093017578125,-40.375,38.875,3.6875,9.49,2.34,-0.75,moving,3
9.46,1848324.391179431,23,3,3,0,3,11.65,3.03,-11.35,2.15,0.57,-11.3,-8.4375,424.1875,-62.9375,0.69049072265625,0.03326416015625,-0.70806884765625,-0.14410400390625,-40.375,38.875,3.6875,9.49,2.45,-0.04,moving,3
9.47,1848324.391179431,23,3,3,0,3,12.44,0.48,-6.94,2.93,-1.92,-6.89,20.8125,2.5625,25.1875,0.69091796875,0.03302001953125,-0.708251953125,-0.14129638671875,-40.375,38.875,3.6875,9.5,2.41,-0.05,moving,3
9.48,1848324.424174956,23,3,3,0,3,18.5,4.2,-0.54,9.0,1.81,-0.1,71.25,-215.9375,12.6875,0.6773681640625,0.0338134765625,-0.7220458984375,-0.13671875,-31.25,43.1875,12.0,9.5,2.38,-0.44,moving,3
9.49,1848324.424174956,23,3,3,0,3,22.53,5.44,5.22,13.06,3.02,6.0,132.3125,-166.625,-27.25,0.666015625,0.0413818359375,-0.7332763671875,-0.1304931640625,-31.25,43.1875,12.0,9.47,2.41,-0.77,moving,3
9.5,1848324.433307036,23,3,3,0,3,21.11,4.94,3.83,11.64,2.49,4.54,165.25,83.3125,-29.1875,0.6702880859375,0.05377197265625,-0.7301025390625,-0.12127685546875,-31.25,43.1875,12.0,9.47,2.44,-0.7,moving,3
9.51,1848324.433307036,23,3,3,0,3,11.25,2.11,-1.5,1.77,-0.35,-1.04,177.625,196.3125,-22.9375,0.6815185546875,0.06768798828125,-0.72021484375,-0.1103515625,-31.25,43.1875,12.0,9.48,2.46,-0.45,moving,3
9.52,1848324.456030628,23,3,3,0,3,8.13,2.61,-1.84,-1.35,0.15,-1.57,162.75,154.375,-7.25,0.6900634765625,0.07928466796875,-0.71246337890625,-0.099609375,-31.25,43.1875,12.0,9.48,2.46,-0.27,moving,3
9.53,1848324.456030628,23,3,3,0,3,6.18,3.2,-1.62,-3.3,0.75,-1.41,140.8125,73.5625,3.1875,0.693603515625,0.08819580078125,-0.709228515625,-0.09014892578125,-35.5,42.375,6.6875,9.49,2.45,-0.21,moving,3
9.54,1848324.484842477,23,3,3,0,3,5.18,2.98,-0.73,-4.3,0.52,-0.52,140.5,36.6875,-6.5,0.6947021484375,0.097412109375,-0.7080078125,-0.08160400390625,-35.5,42.375,6.6875,9.49,2.45,-0.21,moving,3
9.55,1848324.484842477,23,3,3,0,3,3.06,1.22,0.51,-6.42,-1.26,0.68,160.1875,70.3125,-21.6875,0.6973876953125,0.10894775390625,-0.70465087890625,-0.0723876953125,-35.5,42.375,6.6875,9.48,2.49,-0.16,moving,3
9.56,1848324.498680652,23,3,3,0,3,1.39,0.65,0.71,-8.07,-1.88,0.71,180.9375,149.0,-29.375,0.70452880859375,0.1226806640625,-0.6962890625,-0.0616455078125,-35.5,42.375,6.6875,9.47,2.53,0.0,moving,3
9.57,1848324.498680652,23,3,3,0,3,-0.33,0.28,0.67,-9.78,-2.31,0.34,193.6875,247.625,-34.25,0.71697998046875,0.137939453125,-0.6815185546875,-0.04931640625,-35.5,42.375,6.6875,9.45,2.59,0.32,moving,3
9.58,1848324.528856067,23,3,3,0,3,-0.33,0.28,0.67,-9.78,-2.31,0.34,193.6875,247.625,-34.25,0.71697998046875,0.137939453125,-0.6815185546875,-0.04931640625,-35.5,42.375,6.6875,9.45,2.59,0.32,moving,3
9.58,1848324.528856067,23,3,3,0,3,-1.96,0.01,0.34,-11.36,-2.66,-0.45,198.25,343.5625,-38.75,0.73443603515625,0.15399169921875,-0.6600341796875,-0.0357666015625,-37.0,42.0625,-2.375,9.39,2.68,0.79,moving,3
9.59,1848324.537565825,23,3,3,0,3,-3.49,0.03,-1.15,-12.8,-2.74,-2.52,191.25,405.875,-38.6875,0.7545166015625,0.16961669921875,-0.63360595703125,-0.02178955078125,-37.0,42.0625,-2.375,9.3,2.78,1.36,moving,3
9.6,1848324.537565825,23,3,3,0,3,-3.3,-0.17,-1.63,-12.48,-3.04,-3.57,164.1875,404.5,-30.125,0.7738037109375,0.1827392578125,-0.6064453125,-0.00872802734375,-37.0,42.0625,-2.375,9.17,2.87,1.93,moving,3
9.61,1848324.541709379,23,3,3,0,3,-2.8,-0.37,-2.01,-11.83,-3.3,-4.47,124.3125,367.625,-4.0625,0.790771484375,0.1915283203125,-0.58135986328125,0.00347900390625,-37.0,42.0625,-2.375,9.02,2.93,2.45,moving,3
9.62,1848324.541709379,23,3,3,0,3,-2.19,-0.41,-2.45,-11.09,-3.32,-5.37,84.125,322.25,37.8125,0.80535888671875,0.19525146484375,-0.55950927734375,0.01568603515625,-37.0,42.0625,-2.375,8.89,2.91,2.91,moving,3
9.63,1848324.555770252,23,3,3,0,3,-1.18,-0.05,-3.98,-9.99,-2.87,-7.25,50.0,245.625,77.625,0.816162109375,0.194580078125,-0.5433349609375,0.02777099609375,-34.75,39.875,-20.0,8.8,2.81,3.27,moving,3
9.64,1848324.555770252,23,3,3,0,3,-0.3,0.1,-4.75,-9.09,-2.58,-8.18,35.5,111.625,103.0,0.82049560546875,0.19195556640625,-0.53704833984375,0.0386962890625,-34.75,39.875,-20.0,8.78,2.68,3.42,moving,3
9.65,1848324.586639148,23,3,3,0,3,1.09,0.1,-4.92,-7.79,-2.42,-8.2,59.9375,-74.25,119.6875,0.8155517578125,0.19085693359375,-0.54412841796875,0.048828125,-34.75,39.875,-20.0,8.88,2.53,3.28,moving,3
9.66,1848324.586639148,23,3,3,0,3,5.1,0.49,-4.17,-3.97,-1.89,-6.98,124.5,-270.875,135.1875,0.7996826171875,0.19439697265625,-0.56494140625,0.059814453125,-34.75,39.875,-20.0,9.08,2.38,2.8,moving,3
9.67,1848324.600883289,23,3,3,0,3,7.72,1.18,-4.53,-1.61,-1.04,-6.51,218.1875,-462.125,151.1875,0.7716064453125,0.204345703125,-0.59796142578125,0.07318115234375,-34.75,39.875,-20.0,9.34,2.23,1.97,moving,3
9.68,1848324.600883289,23,3,3,0,3,10.53,1.71,-5.2,0.97,-0.33,-5.96,330.625,-662.4375,161.25,0.728515625,0.221923828125,-0.64190673828125,0.08929443359375,-28.25,39.875,-27.25,9.56,2.04,0.75,moving,3
9.69,1848324.634701526,23,3,3,0,3,13.48,1.71,-5.84,3.87,-0.05,-5.05,438.625,-837.0625,161.75,0.66949462890625,0.24639892578125,-0.69244384765625,0.1075439453125,-28.25,39.875,-27.25,9.61,1.77,-0.78,moving,3
9.7,1848324.634701526,23,3,3,0,3,24.83,6.0,3.33,15.41,4.59,5.65,499.6875,-836.6875,139.0625,0.60467529296875,0.2740478515625,-0.7369384765625,0.12738037109375,-28.25,39.875,-27.25,9.42,1.4,-2.31,moving,3
9.71,1848324.647828276,23,3,3,0,3,34.99,21.27,11.46,25.73,20.22,14.51,255.625,-415.1875,142.25,0.5697021484375,0.28271484375,-0.7586669921875,0.14129638671875,-28.25,39.875,-27.25,9.26,1.05,-3.04,moving,3
9.72,1848324.647828276,23,3,3,0,3,26.26,11.97,-11.96,16.97,11.08,-8.97,-250.25,12.9375,187.3125,0.57415771484375,0.25762939453125,-0.76544189453125,0.13427734375,-28.25,39.875,-27.25,9.29,0.88,-2.98,moving,3
9.73,1848324.660063099,23,3,3,0,3,23.81,0.56,-11.71,14.46,-0.28,-8.89,-306.125,71.1875,117.3125,0.58416748046875,0.2335205078125,-0.76776123046875,0.12127685546875,-32.5625,38.75,-21.1875,9.35,0.84,-2.82,moving,3
9.74,1848324.660063099,23,3,3,0,3,22.0,-3.03,-3.77,12.56,-3.89,-1.23,-209.0,159.1875,53.6875,0.59832763671875,0.21759033203125,-0.76275634765625,0.11322021484375,-32.5625,38.75,-21.1875,9.43,0.85,-2.53,moving,3
9.75,1848324.694689685,23,3,3,0,3,19.52,-2.66,-0.37,9.99,-3.61,1.7,-102.3125,263.5625,-32.625,0.61798095703125,0.21173095703125,-0.74920654296875,0.109619140625,-32.5625,38.75,-21.1875,9.53,0.95,-2.08,moving,3
9.76,1848324.694689685,23,3,3,0,3,18.96,-0.86,2.78,9.34,-1.98,4.33,-23.3125,314.4375,-98.4375,0.63958740234375,0.21380615234375,-0.7303466796875,0.10858154296875,-32.5625,38.75,-21.1875,9.61,1.12,-1.55,moving,3
9.77,1848324.706845854,23,3,3,0,3,17.62,2.54,6.1,7.95,1.25,7.13,-38.5,306.1875,-88.625,0.660400390625,0.21435546875,-0.71173095703125,0.1068115234375,-32.5625,38.75,-21.1875,9.66,1.28,-1.02,moving,3
9.78,1848324.706845854,23,3,3,0,3,12.07,4.67,0.14,2.39,3.3,0.9,-100.8125,148.6875,-36.875,0.6717529296875,0.20941162109375,-0.70330810546875,0.1011962890625,-33.0,41.0,-16.1875,9.68,1.36,-0.75,moving,3
9.79,1848324.721475167,23,3,3,0,3,12.98,2.2,-0.96,3.31,0.85,-0.06,-72.0,-99.4375,15.0,0.66680908203125,0.20513916015625,-0.71002197265625,0.0958251953125,-33.0,41.0,-16.1875,9.67,1.34,-0.9,moving,3
9.8,1848324.721475167,23,3,3,0,3,14.45,1.3,0.55,4.82,0.0,1.88,-21.0,-253.375,31.375,0.65106201171875,0.20404052734375,-0.72528076171875,0.091796875,-33.0,41.0,-16.1875,9.62,1.29,-1.32,moving,3
9.81,1848324.753595813,23,3,3,0,3,15.51,1.99,0.28,5.94,0.71,1.96,-13.5625,-215.875,17.25,0.63739013671875,0.20391845703125,-0.73785400390625,0.08807373046875,-33.0,41.0,-16.1875,9.57,1.27,-1.68,moving,3
9.82,1848324.753595813,23,3,3,0,3,11.58,2.16,-3.52,2.04,0.88,-1.67,-32.25,-103.4375,-0.625,0.63128662109375,0.20294189453125,-0.7437744140625,0.0841064453125,-33.0,41.0,-16.1875,9.54,1.28,-1.85,moving,3
9.83,1848324.766136951,23,3,3,0,3,9.71,1.61,-3.93,0.17,0.28,-2.07,-64.3125,-13.1875,-14.5625,0.6317138671875,0.200439453125,-0.74468994140625,0.078857421875,-31.875,40.5625,-18.5,9.53,1.33,-1.85,moving,3
9.84,1848324.766136951,23,3,3,0,3,7.94,1.26,-3.44,-1.59,-0.13,-1.67,-113.4375,40.875,-20.375,0.63641357421875,0.1951904296875,-0.7427978515625,0.07110595703125,-31.875,40.5625,-18.5,9.54,1.4,-1.76,moving,3
9.84,1848324.771779977,23,3,3,0,3,7.94,1.26,-3.44,-1.59,-0.13,-1.67,-113.4375,40.875,-20.375,0.63641357421875,0.1951904296875,-0.7427978515625,0.07110595703125,-31.875,40.5625,-18.5,9.54,1.4,-1.76,moving,3
9.85,1848324.771779977,23,3,3,0,3,5.52,0.64,-1.86,-4.03,-0.85,-0.27,-167.5,78.6875,-28.625,0.64447021484375,0.187255859375,-0.7388916015625,0.0599365234375,-31.875,40.5625,-18.5,9.56,1.49,-1.58,moving,3
9.86,1848324.798879057,23,3,3,0,3,4.62,0.39,-0.8,-4.95,-1.23,0.54,-210.5,110.625,-42.6875,0.6551513671875,0.17755126953125,-0.73291015625,0.0457763671875,-31.875,40.5625,-18.5,9.57,1.62,-1.34,moving,3
9.87,1848324.798879057,23,3,3,0,3,3.88,0.12,0.23,-5.7,-1.64,1.27,-240.25,140.5625,-57.25,0.6678466796875,0.1668701171875,-0.7247314453125,0.029296875,-31.875,40.5625,-18.5,9.58,1.76,-1.04,moving,3
9.88,1848324.811838652,23,3,3,0,3,2.74,0.27,0.96,-6.84,-1.64,1.63,-255.875,176.4375,-68.0625,0.68267822265625,0.15576171875,-0.7138671875,0.01171875,-32.25,41.6875,-14.6875,9.59,1.92,-0.66,moving,3
9.89,1848324.811838652,23,3,3,0,3,-0.73,0.5,1.14,-10.32,-1.55,1.33,-256.0625,228.6875,-72.75,0.70013427734375,0.144775390625,-0.69915771484375,-0.00543212890625,-32.25,41.6875,-14.6875,9.58,2.06,-0.19,moving,3
9.9,1848324.843449085,23,3,3,0,3,-2.65,1.19,-0.04,-12.21,-0.98,-0.39,-258.875,271.375,-73.375,0.719482421875,0.13348388671875,-0.68115234375,-0.02227783203125,-32.25,41.6875,-14.6875,9.55,2.18,0.35,moving,3
9.91,1848324.843449085,23,3,3,0,3,-4.31,1.77,-1.14,-13.81,-0.5,-2.05,-277.5625,271.1875,-79.875,0.73828125,0.12127685546875,-0.66229248046875,-0.04058837890625,-32.25,41.6875,-14.6875,9.49,2.28,0.91,moving,3
9.92,1848324.858368844,23,3,3,0,3,-4.84,1.78,-1.83,-14.24,-0.58,-3.29,-307.375,253.375,-92.625,0.75531005859375,0.107666015625,-0.64349365234375,-0.06158447265625,-32.25,41.6875,-14.6875,9.4,2.37,1.45,moving,3
9.93,1848324.858368844,23,3,3,0,3,-2.33,0.29,-2.53,-11.62,-2.14,-4.51,-338.25,233.8125,-100.8125,0.77056884765625,0.09222412109375,-0.6248779296875,-0.0849609375,-34.0625,42.375,-10.75,9.29,2.43,1.98,moving,3
9.94,1848324.890352487,23,3,3,0,3,-1.38,-0.76,-3.04,-10.55,-3.21,-5.5,-351.0,207.6875,-97.3125,0.783447265625,0.075439453125,-0.60711669921875,-0.10888671875,-34.0625,42.375,-10.75,9.16,2.45,2.46,moving,3
9.95,1848324.890352487,23,3,3,0,3,-0.06,-1.8,-4.24,-9.11,-4.24,-7.1,-331.5,159.3125,-89.875,0.79278564453125,0.05908203125,-0.5921630859375,-0.13153076171875,-34.0625,42.375,-10.75,9.05,2.44,2.86,moving,3
9.96,1848324.895083362,23,3,3,0,3,1.35,-3.16,-5.26,-7.64,-5.59,-8.32,-275.8125,51.6875,-85.5,0.795654296875,0.04498291015625,-0.5848388671875,-0.1513671875,-34.0625,42.375,-10.75,8.99,2.43,3.05,moving,3
9.97,1848324.895083362,23,3,3,0,3,3.5,-3.55,-5.7,-5.5,-6.01,-8.7,-183.5625,-86.5625,-72.375,0.79083251953125,0.0347900390625,-0.5880126953125,-0.16607666015625,-34.0625,42.375,-10.75,9.0,2.45,3.0,moving,3
9.98,1848324.919406279,23,3,3,0,3,4.79,-2.84,-5.32,-4.3,-5.34,-7.99,-62.8125,-223.8125,-45.75,0.77874755859375,0.029541015625,-0.602294921875,-0.173095703125,-34.75,43.0625,-7.375,9.09,2.49,2.67,moving,3
9.99,1848324.919406279,23,3,3,0,3,6.76,-2.79,-4.7,-2.48,-5.33,-6.77,61.625,-360.25,-11.3125,0.75909423828125,0.02886962890625,-0.62738037109375,-0.17144775390625,-34.75,43.0625,-7.375,9.24,2.53,2.07,moving,3
10.0,1848324.933012562,23,3,3,0,3,14.62,-2.53,-3.99,5.24,-5.09,-5.23,194.4375,-457.375,19.6875,0.733154296875,0.0338134765625,-0.6600341796875,-0.1605224609375,-34.75,43.0625,-7.375,9.38,2.56,1.24,moving,3
10.01,1848324.933012562,23,3,3,0,3,21.22,-1.02,-5.68,11.75,-3.56,-5.89,353.3125,-531.875,36.9375,0.70086669921875,0.0467529296875,-0.697998046875,-0.13916015625,-34.75,43.0625,-7.375,9.46,2.54,0.2,moving,3
10.02,1848324.958604684,23,3,3,0,3,30.7,2.74,-3.39,21.26,0.31,-2.28,500.0625,-672.375,46.25,0.65667724609375,0.066162109375,-0.743408203125,-0.1082763671875,-34.75,43.0625,-7.375,9.43,2.43,-1.11,moving,3
10.03,1848324.958604684,23,3,3,0,3,39.25,29.46,31.38,29.9,27.27,33.41,210.125,-502.125,113.1875,0.62322998046875,0.0660400390625,-0.77392578125,-0.0909423828125,-36.5625,41.25,2.5,9.34,2.18,-2.02,moving,3
10.04,1848324.973175241,23,3,3,0,3,24.93,6.83,-11.64,15.58,4.67,-9.64,-222.75,-35.5625,62.25,0.62249755859375,0.0494384765625,-0.7742919921875,-0.102783203125,-36.5625,41.25,2.5,9.35,2.16,-1.99,moving,3
10.05,1848324.973175241,23,3,3,0,3,22.67,2.82,-9.65,13.3,0.58,-7.86,-20.9375,123.625,-45.25,0.6304931640625,0.05242919921875,-0.76715087890625,-0.1060791015625,-36.5625,41.25,2.5,9.37,2.24,-1.78,moving,3
10.06,1848325.00810208,23,3,3,0,3,20.69,4.04,-8.64,11.28,1.75,-7.05,115.8125,150.0625,-47.0,0.63946533203125,0.0633544921875,-0.7596435546875,-0.1002197265625,-36.5625,41.25,2.5,9.4,2.28,-1.58,moving,3
10.07,1848325.00810208,23,3,3,0,3,20.05,5.33,-5.5,10.65,2.96,-4.01,117.125,90.0625,-74.25,0.64404296875,0.0755615234375,-0.75518798828125,-0.0960693359375,-36.5625,41.25,2.5,9.39,2.37,-1.49,moving,3
10.09,1848325.022074817,23,3,3,0,3,16.56,5.1,1.43,7.15,2.53,2.48,5.5,181.25,-50.875,0.66107177734375,0.08966064453125,-0.7386474609375,-0.0968017578125,-31.5625,43.0625,8.5625,9.4,2.56,-1.05,moving,3
10.1,1848325.022074817,23,3,3,0,3,14.62,2.6,1.42,5.2,-0.04,2.06,0.4375,248.875,-49.375,0.676513671875,0.09490966796875,-0.72369384765625,-0.09771728515625,-31.5625,43.0625,8.5625,9.42,2.64,-0.64,moving,3
10.11,1848325.037811024,23,3,3,0,3,14.62,2.6,1.42,5.2,-0.04,2.06,0.4375,248.875,-49.375,0.676513671875,0.09490966796875,-0.72369384765625,-0.09771728515625,-31.5625,43.0625,8.5625,9.42,2.64,-0.64,moving,3
10.11,1848325.037811024,23,3,3,0,3,12.86,0.3,1.67,3.44,-2.41,1.88,26.4375,270.4375,-45.6875,0.69281005859375,0.10162353515625,-0.7073974609375,-0.096435546875,-31.5625,43.0625,8.5625,9.41,2.71,-0.21,moving,3
10.12,1848325.068693022,23,3,3,0,3,6.71,0.01,0.93,-2.69,-2.72,0.75,51.8125,254.875,-16.5,0.707763671875,0.10784912109375,-0.69207763671875,-0.09197998046875,-31.5625,43.0625,8.5625,9.41,2.74,0.18,moving,3
10.13,1848325.068693022,23,3,3,0,3,4.69,0.21,0.38,-4.7,-2.52,-0.11,78.8125,218.1875,6.375,0.7200927734375,0.11407470703125,-0.67919921875,-0.084716796875,-35.1875,42.0625,2.5625,9.4,2.73,0.5,moving,3
10.14,1848325.073592151,23,3,3,0,3,3.41,-0.26,0.3,-5.98,-2.99,-0.4,100.75,156.6875,13.9375,0.72833251953125,0.1207275390625,-0.670166015625,-0.0762939453125,-35.1875,42.0625,2.5625,9.39,2.72,0.71,moving,3
10.15,1848325.073592151,23,3,3,0,3,1.53,-0.37,0.68,-7.85,-3.08,-0.14,111.0,98.625,20.75,0.7330322265625,0.127197265625,-0.664794921875,-0.06744384765625,-35.1875,42.0625,2.5625,9.38,2.7,0.82,moving,3
10.16,1848325.09994115,23,3,3,0,3,0.85,0.13,0.98,-8.53,-2.55,0.07,121.5625,91.5,20.6875,0.737060546875,0.13427734375,-0.65985107421875,-0.05804443359375,-35.1875,42.0625,2.5625,9.38,2.69,0.91,moving,3
10.17,1848325.09994115,23,3,3,0,3,0.21,0.45,0.8,-9.15,-2.24,-0.26,136.8125,133.6875,8.875,0.74310302734375,0.1431884765625,-0.65191650390625,-0.04803466796875,-35.1875,42.0625,2.5625,9.36,2.7,1.06,moving,3
10.18,1848325.114128447,23,3,3,0,3,-1.09,0.29,0.32,-10.42,-2.43,-0.96,148.8125,182.1875,-0.4375,0.75140380859375,0.153564453125,-0.640625,-0.0372314453125,-35.875,41.25,-7.25,9.32,2.73,1.29,moving,3
10.19,1848325.114128447,23,3,3,0,3,-2.94,0.07,-1.51,-12.22,-2.68,-3.08,148.4375,213.0,7.0,0.76116943359375,0.16351318359375,-0.6270751953125,-0.025634765625,-35.875,41.25,-7.25,9.27,2.75,1.56,moving,3
10.2,1848325.144980091,23,3,3,0,3,-2.99,0.33,-2.35,-12.22,-2.42,-4.19,133.125,209.75,21.8125,0.7706298828125,0.171630859375,-0.61358642578125,-0.013916015625,-35.875,41.25,-7.25,9.22,2.76,1.84,moving,3
10.21,1848325.144980091,23,3,3,0,3,-2.45,0.57,-3.05,-11.63,-2.17,-5.13,107.625,182.125,31.0,0.77862548828125,0.1773681640625,-0.60186767578125,-0.0032958984375,-35.875,41.25,-7.25,9.18,2.74,2.08,moving,3
10.22,1848325.159362537,23,3,3,0,3,-1.38,0.46,-3.73,-10.53,-2.24,-5.99,82.8125,137.1875,43.875,0.78448486328125,0.18072509765625,-0.59320068359375,0.00616455078125,-35.875,41.25,-7.25,9.14,2.7,2.26,moving,3
10.23,1848325.159362537,23,3,3,0,3,0.24,-0.22,-4.83,-8.9,-2.84,-7.18,70.4375,78.0,69.0,0.787353515625,0.181884765625,-0.5888671875,0.0157470703125,-33.6875,41.25,-16.875,9.14,2.62,2.35,moving,3
10.24,1848325.168462228,23,3,3,0,3,1.16,-0.35,-5.29,-8.02,-2.86,-7.61,81.25,0.4375,91.5,0.785888671875,0.1827392578125,-0.5902099609375,0.0262451171875,-33.6875,41.25,-16.875,9.19,2.51,2.31,moving,3
10.25,1848325.168462228,23,3,3,0,3,2.57,-0.14,-5.33,-6.7,-2.54,-7.41,119.0625,-117.6875,100.4375,0.777587890625,0.18597412109375,-0.5994873046875,0.037353515625,-33.6875,41.25,-16.875,9.27,2.39,2.07,moving,3
10.26,1848325.199022124,23,3,3,0,3,4.36,0.31,-5.17,-5.03,-1.96,-6.74,180.0,-266.0,105.9375,0.76007080078125,0.19342041015625,-0.618408203125,0.04962158203125,-33.6875,41.25,-16.875,9.4,2.28,1.57,moving,3
10.27,1848325.199022124,23,3,3,0,3,8.54,1.36,-5.31,-0.99,-0.78,-6.1,259.375,-414.8125,112.1875,0.7320556640625,0.2061767578125,-0.6461181640625,0.06402587890625,-33.6875,41.25,-16.875,9.53,2.14,0.78,moving,3
10.28,1848325.214324329,23,3,3,0,3,11.25,1.85,-5.59,1.65,-0.11,-5.33,343.9375,-552.125,114.5,0.6929931640625,0.224365234375,-0.680419921875,0.08062744140625,-29.375,39.875,-23.375,9.6,1.97,-0.26,moving,3
10.29,1848325.214324329,23,3,3,0,3,14.14,2.6,-5.63,4.6,0.88,-4.15,403.9375,-652.5625,113.4375,0.64404296875,0.24609375,-0.71759033203125,0.0985107421875,-29.375,39.875,-23.375,9.53,1.72,-1.48,moving,3
10.3,1848325.231079049,23,3,3,0,3,34.75,16.46,22.36,25.39,15.02,24.88,376.3125,-567.125,96.125,0.59857177734375,0.265625,-0.7469482421875,0.11505126953125,-29.375,39.875,-23.375,9.36,1.43,-2.52,moving,3
10.31,1848325.231079049,23,3,3,0,3,34.0,15.12,0.56,24.59,13.87,3.03,-25.0,30.125,115.8125,0.59991455078125,0.2564697265625,-0.748291015625,0.12017822265625,-29.375,39.875,-23.375,9.4,1.25,-2.46,moving,3
10.32,1848325.263762033,23,3,3,0,3,24.73,0.26,-5.94,15.19,-0.93,-4.05,-296.8125,306.4375,104.0,0.625,0.230712890625,-0.73712158203125,0.113037109375,-29.375,39.875,-23.375,9.54,1.19,-1.89,moving,3
10.33,1848325.263762033,23,3,3,0,3,20.47,-2.87,-2.91,10.85,-4.08,-1.44,-187.625,230.3125,23.875,0.64312744140625,0.21661376953125,-0.7266845703125,0.10687255859375,-33.875,38.375,-18.75,9.61,1.2,-1.47,moving,3
10.34,1848325.276892851,23,3,3,0,3,17.25,0.58,-1.58,7.6,-0.68,-0.37,-38.0,150.25,-30.1875,0.653564453125,0.2149658203125,-0.71795654296875,0.1055908203125,-33.875,38.375,-18.75,9.64,1.26,-1.21,moving,3
10.35,1848325.276892851,23,3,3,0,3,17.25,3.06,-0.33,7.61,1.71,0.78,79.875,59.6875,-57.625,0.65631103515625,0.22259521484375,-0.71270751953125,0.1083984375,-33.875,38.375,-18.75,9.64,1.35,-1.12,moving,3
10.36,1848325.29143228,23,3,3,0,3,16.79,5.45,0.69,7.16,4.04,1.89,85.4375,-28.875,-44.6875,0.65325927734375,0.23052978515625,-0.712646484375,0.110595703125,-33.875,38.375,-18.75,9.63,1.4,-1.19,moving,3
10.37,1848325.29143228,23,3,3,0,3,16.79,5.45,0.69,7.16,4.04,1.89,85.4375,-28.875,-44.6875,0.65325927734375,0.23052978515625,-0.712646484375,0.110595703125,-33.875,38.375,-18.75,9.63,1.4,-1.19,moving,3
10.37,1848325.308816761,23,3,3,0,3,15.82,6.35,-0.72,6.22,4.91,0.62,-17.625,-94.75,-16.4375,0.64788818359375,0.2314453125,-0.71783447265625,0.10662841796875,-33.875,38.375,-18.75,9.6,1.43,-1.35,moving,3
10.38,1848325.308816761,23,3,3,0,3,17.1,2.25,-2.31,7.53,0.77,-0.8,-99.0,-113.8125,-11.6875,0.642822265625,0.22760009765625,-0.72491455078125,0.09747314453125,-30.875,40.1875,-18.75,9.57,1.48,-1.51,moving,3
10.39,1848325.323470407,23,3,3,0,3,16.81,1.32,-1.74,7.25,-0.23,-0.16,-117.4375,-52.125,-23.125,0.6419677734375,0.22296142578125,-0.72833251953125,0.08770751953125,-30.875,40.1875,-18.75,9.55,1.55,-1.57,moving,3
10.4,1848325.323470407,23,3,3,0,3,15.14,1.06,-1.71,5.58,-0.58,-0.27,-109.75,61.0,-37.6875,0.64825439453125,0.21868896484375,-0.7249755859375,0.07977294921875,-30.875,40.1875,-18.75,9.55,1.64,-1.43,moving,3
10.41,1848325.35467874,23,3,3,0,3,13.06,0.88,-1.48,3.49,-0.87,-0.27,-112.0,120.625,-50.9375,0.6583251953125,0.2147216796875,-0.71783447265625,0.0721435546875,-30.875,40.1875,-18.75,9.57,1.75,-1.2,moving,3
10.42,1848325.35467874,23,3,3,0,3,9.81,0.89,-0.31,0.23,-0.98,0.63,-132.0,125.625,-58.8125,0.6689453125,0.21002197265625,-0.71026611328125,0.06280517578125,-30.875,40.1875,-18.75,9.57,1.88,-0.95,moving,3
10.43,1848325.368179635,23,3,3,0,3,8.72,0.73,0.1,-0.84,-1.27,0.79,-152.1875,124.8125,-64.75,0.6796875,0.20440673828125,-0.7025146484375,0.0518798828125,-33.0625,39.5,-17.0,9.57,2.01,-0.69,moving,3
10.44,1848325.368179635,23,3,3,0,3,7.62,0.33,0.47,-1.93,-1.81,0.88,-161.0,134.8125,-69.4375,0.6910400390625,0.198486328125,-0.69384765625,0.04034423828125,-33.0625,39.5,-17.0,9.56,2.14,-0.4,moving,3
10.45,1848325.380469715,23,3,3,0,3,6.22,-0.16,1.01,-3.31,-2.42,1.1,-162.9375,155.5,-70.25,0.703369140625,0.19232177734375,-0.6837158203125,0.0289306640625,-33.0625,39.5,-17.0,9.54,2.26,-0.08,moving,3
