timestamp,android_nano_timestamp,temperature,calib_mag,calib_accel,calib_gyro,calib_sys,acc_x,acc_y,acc_z,lacc_x,lacc_y,lacc_z,gyro_x,gyro_y,gyro_z,quat_w,quat_x,quat_y,quat_z,mag_x,mag_y,mag_z,gravity_x,gravity_y,gravity_z,label,person
5.1,608006.770385496,23,1,1,0,0,4.17,0.47,1.0,-5.62,0.09,0.78,18.375,16.8125,-3.125,0.03118896484375,0.69927978515625,-0.00311279296875,0.71417236328125,-41.375,-27.0625,31.0,9.79,0.38,0.21,moving,1
5.11,608006.770385496,23,1,1,0,0,3.44,0.68,1.31,-6.35,0.29,1.08,8.9375,5.125,-0.8125,0.03070068359375,0.698974609375,-0.00250244140625,0.7144775390625,-41.375,-27.0625,31.0,9.79,0.38,0.22,moving,1
5.12,608006.786544106,23,1,1,0,0,3.27,0.91,1.35,-6.52,0.53,1.14,1.6875,-7.75,1.8125,0.03045654296875,0.699462890625,-0.0025634765625,0.7139892578125,-41.375,-27.0625,31.0,9.79,0.38,0.21,moving,1
5.13,608006.786544106,23,1,1,0,0,3.34,1.17,1.46,-6.45,0.79,1.27,-2.4375,-17.5625,4.125,0.03033447265625,0.7005615234375,-0.00299072265625,0.71295166015625,-43.1875,-26.375,30.1875,9.79,0.37,0.18,moving,1
5.14,608006.815757973,23,1,1,0,0,3.5,1.4,1.46,-6.29,1.03,1.32,-5.9375,-26.0,5.625,0.03033447265625,0.7021484375,-0.0037841796875,0.71136474609375,-43.1875,-26.375,30.1875,9.79,0.36,0.13,moving,1
5.15,608006.815757973,23,1,1,0,0,6.52,1.67,1.45,-3.27,1.32,1.38,-12.0625,-42.5,9.1875,0.030517578125,0.70477294921875,-0.00518798828125,0.70880126953125,-43.1875,-26.375,30.1875,9.8,0.34,0.06,moving,1
5.16,608006.830262123,23,1,1,0,0,9.46,0.45,-1.53,-0.33,0.12,-1.53,-19.875,-38.5,13.5,0.0308837890625,0.70703125,-0.00738525390625,0.7064208984375,-43.1875,-26.375,30.1875,9.8,0.32,0.0,moving,1
5.17,608006.830262123,23,1,1,0,0,15.01,-0.31,-3.99,5.21,-0.59,-3.87,-4.0,-74.125,25.6875,0.02947998046875,0.71160888671875,-0.0093994140625,0.701904296875,-43.1875,-26.375,30.1875,9.8,0.28,-0.12,moving,1
5.18,608006.845969765,23,1,1,0,0,15.01,-0.31,-3.99,5.21,-0.59,-3.87,-4.0,-74.125,25.6875,0.02947998046875,0.71160888671875,-0.0093994140625,0.701904296875,-43.1875,-26.375,30.1875,9.8,0.28,-0.12,moving,1
5.18,608006.845969765,23,1,1,0,0,27.48,0.76,-6.57,17.68,0.55,-6.29,11.75,-94.8125,41.3125,0.02618408203125,0.71734619140625,-0.011474609375,0.69610595703125,-42.0625,-25.5625,31.25,9.8,0.21,-0.28,moving,1
5.19,608006.860620278,23,1,1,0,0,28.3,3.64,4.05,18.5,3.49,4.5,-26.8125,-95.375,36.0625,0.02557373046875,0.7230224609375,-0.01556396484375,0.690185546875,-42.0625,-25.5625,31.25,9.79,0.15,-0.45,moving,1
5.2,608006.860620278,23,1,1,0,0,23.74,3.21,7.98,13.94,3.06,8.45,-85.25,-12.6875,7.75,0.03045654296875,0.72357177734375,-0.021240234375,0.68927001953125,-42.0625,-25.5625,31.25,9.79,0.14,-0.47,moving,1
5.21,608006.890428098,23,1,1,0,0,19.74,-2.04,2.75,9.95,-2.22,3.19,-29.75,21.8125,-20.875,0.03363037109375,0.72216796875,-0.02166748046875,0.6905517578125,-42.0625,-25.5625,31.25,9.79,0.18,-0.43,moving,1
5.22,608006.890428098,23,1,1,0,0,14.76,-0.33,-0.37,4.96,-0.56,0.04,61.0,10.4375,-35.25,0.03192138671875,0.7218017578125,-0.01568603515625,0.69122314453125,-42.0625,-25.5625,31.25,9.79,0.23,-0.41,moving,1
5.23,608006.906134519,23,1,1,0,0,13.21,0.54,-0.94,3.41,0.24,-0.5,78.5625,-12.0625,-34.8125,0.02911376953125,0.7227783203125,-0.0087890625,0.6904296875,-42.375,-26.6875,32.875,9.79,0.29,-0.44,moving,1
5.24,608006.906134519,23,1,1,0,0,12.72,1.48,1.38,2.93,1.14,1.82,38.1875,3.3125,-27.1875,0.0283203125,0.72265625,-0.0047607421875,0.69061279296875,-42.375,-26.6875,32.875,9.79,0.33,-0.43,moving,1
5.25,608006.919687538,23,1,1,0,0,11.31,1.49,-1.68,1.51,1.12,-1.37,-14.875,73.875,-21.625,0.03057861328125,0.7181396484375,-0.00408935546875,0.6951904296875,-42.375,-26.6875,32.875,9.79,0.37,-0.3,moving,1
5.26,608006.919687538,23,1,1,0,0,9.33,-0.46,-0.3,-0.46,-0.87,-0.13,-28.9375,78.25,-17.6875,0.03350830078125,0.71331787109375,-0.00457763671875,0.70001220703125,-42.375,-26.6875,32.875,9.79,0.4,-0.17,moving,1
5.27,608006.965196816,23,1,1,0,0,8.53,0.14,-0.36,-1.26,-0.28,-0.35,-19.25,93.125,-13.75,0.03558349609375,0.70751953125,-0.00457763671875,0.70574951171875,-42.375,-26.6875,32.875,9.79,0.43,-0.01,moving,1
5.28,608006.965196816,23,1,1,0,0,7.95,0.18,0.96,-1.84,-0.27,0.83,-11.6875,79.3125,-15.6875,0.037353515625,0.70257568359375,-0.00408935546875,0.7105712890625,-41.0,-25.5625,32.5,9.79,0.45,0.12,moving,1
5.29,608006.970945677,23,1,1,0,0,6.53,-0.08,0.25,-3.25,-0.55,0.01,-18.6875,66.5,-9.5625,0.03912353515625,0.69842529296875,-0.00445556640625,0.714599609375,-41.0,-25.5625,32.5,9.79,0.47,0.23,moving,1
5.3,608006.970945677,23,1,1,0,0,5.93,-0.56,-0.02,-3.85,-1.04,-0.35,-20.8125,50.4375,-4.25,0.0406494140625,0.6951904296875,-0.00531005859375,0.7176513671875,-41.0,-25.5625,32.5,9.78,0.47,0.32,moving,1
5.31,608006.980289508,23,1,1,0,0,5.39,-0.49,-0.13,-4.38,-0.97,-0.54,-11.5,45.4375,-0.875,0.04144287109375,0.6922607421875,-0.00579833984375,0.72039794921875,-41.0,-25.5625,32.5,9.78,0.48,0.4,moving,1
5.32,608006.980289508,23,1,1,0,0,5.3,-0.12,-0.11,-4.47,-0.6,-0.59,0.25,37.625,-1.875,0.04156494140625,0.68988037109375,-0.00555419921875,0.72271728515625,-41.0,-25.5625,32.5,9.78,0.48,0.47,moving,1
5.33,608007.010921385,23,1,1,0,0,5.22,0.51,-0.16,-4.55,0.02,-0.67,6.4375,23.1875,-2.6875,0.0413818359375,0.68841552734375,-0.0048828125,0.72412109375,-43.5625,-28.5,30.1875,9.78,0.48,0.51,moving,1
5.34,608007.010921385,23,1,1,0,0,5.38,0.85,-0.39,-4.39,0.35,-0.93,1.5,14.375,-1.875,0.04144287109375,0.68756103515625,-0.004638671875,0.7249755859375,-43.5625,-28.5,30.1875,9.77,0.49,0.53,moving,1
5.35,608007.025323077,23,1,1,0,0,5.66,0.96,-0.22,-4.11,0.47,-0.76,-9.5625,2.75,-0.0625,0.0419921875,0.68731689453125,-0.0052490234375,0.72509765625,-43.5625,-28.5,30.1875,9.77,0.49,0.54,moving,1
5.36,608007.025323077,23,1,1,0,0,7.33,0.96,0.97,-2.44,0.48,0.45,-19.0,-14.625,2.375,0.04296875,0.68817138671875,-0.006591796875,0.7242431640625,-43.5625,-28.5,30.1875,9.78,0.48,0.51,moving,1
5.37,608007.040268349,23,1,1,0,0,8.98,0.89,1.29,-0.79,0.41,0.84,-21.625,-37.1875,4.5,0.04400634765625,0.6904296875,-0.0084228515625,0.7220458984375,-43.5625,-28.5,30.1875,9.78,0.47,0.45,moving,1
5.38,608007.040268349,23,1,1,0,0,10.9,0.71,0.6,1.11,0.25,0.23,-21.5,-51.0,7.25,0.0447998046875,0.69354248046875,-0.0103759765625,0.71893310546875,-44.1875,-27.0625,29.75,9.78,0.46,0.37,moving,1
5.39,608007.054147784,23,1,1,0,0,13.0,0.77,-0.53,3.2,0.32,-0.79,-16.375,-65.6875,8.8125,0.045166015625,0.69757080078125,-0.01220703125,0.71502685546875,-44.1875,-27.0625,29.75,9.79,0.44,0.26,moving,1
5.4,608007.054147784,23,1,1,0,0,15.1,1.22,-0.21,5.3,0.78,-0.35,-3.0,-67.0625,4.9375,0.04498291015625,0.70172119140625,-0.012939453125,0.7109375,-44.1875,-27.0625,29.75,9.79,0.43,0.14,moving,1
5.41,608007.085644122,23,1,1,0,0,15.18,1.04,1.66,5.39,0.6,1.56,8.5625,-26.6875,-0.875,0.04449462890625,0.703369140625,-0.012451171875,0.70928955078125,-44.1875,-27.0625,29.75,9.79,0.44,0.09,moving,1
5.42,608007.085644122,23,1,1,0,0,14.61,0.56,0.92,4.82,0.11,0.79,23.9375,22.4375,-8.6875,0.0435791015625,0.70208740234375,-0.0103759765625,0.710693359375,-44.1875,-27.0625,29.75,9.79,0.45,0.13,moving,1
5.43,608007.09944881,23,1,1,0,0,14.61,0.56,0.92,4.82,0.11,0.79,23.9375,22.4375,-8.6875,0.0435791015625,0.70208740234375,-0.0103759765625,0.710693359375,-44.1875,-27.0625,29.75,9.79,0.45,0.13,moving,1
5.44,608007.09944881,23,1,1,0,0,13.9,0.74,-0.91,4.11,0.25,-1.07,42.875,16.8125,-19.0625,0.04217529296875,0.70123291015625,-0.0064697265625,0.711669921875,-43.1875,-27.375,30.5,9.79,0.48,0.16,moving,1
5.44,608007.115039793,23,1,1,0,0,13.1,0.88,-1.25,3.31,0.35,-1.43,52.0625,11.4375,-23.1875,0.0404052734375,0.70068359375,-0.00177001953125,0.71234130859375,-43.1875,-27.375,30.5,9.79,0.53,0.17,moving,1
5.45,608007.115039793,23,1,1,0,0,12.16,1.13,-1.42,2.37,0.57,-1.63,47.875,19.9375,-20.9375,0.038818359375,0.6995849609375,0.0025634765625,0.71343994140625,-43.1875,-27.375,30.5,9.78,0.56,0.2,moving,1
5.46,608007.129592975,23,1,1,0,0,10.74,1.16,-1.32,0.96,0.56,-1.58,28.8125,31.1875,-15.8125,0.03802490234375,0.69775390625,0.00543212890625,0.71533203125,-43.1875,-27.375,30.5,9.78,0.59,0.25,moving,1
5.47,608007.129592975,23,1,1,0,0,8.73,0.48,-0.61,-1.04,-0.12,-0.92,5.875,29.5625,-9.875,0.03826904296875,0.6959228515625,0.00653076171875,0.71710205078125,-43.1875,-27.375,30.5,9.78,0.61,0.3,moving,1
5.48,608007.144625934,23,1,1,0,0,8.12,0.43,-0.21,-1.65,-0.18,-0.55,-8.9375,22.8125,-4.4375,0.03912353515625,0.6944580078125,0.00628662109375,0.71844482421875,-41.375,-28.1875,31.0,9.78,0.62,0.34,moving,1
5.49,608007.144625934,23,1,1,0,0,7.5,0.47,0.0,-2.27,-0.15,-0.38,-11.3125,26.3125,-2.4375,0.0399169921875,0.6927490234375,0.005859375,0.72003173828125,-41.375,-28.1875,31.0,9.77,0.62,0.39,moving,1
5.5,608007.17579614,23,1,1,0,0,6.74,0.61,0.15,-3.03,-0.01,-0.28,-7.5625,30.875,-3.0,0.04058837890625,0.6907958984375,0.00567626953125,0.721923828125,-41.375,-28.1875,31.0,9.77,0.62,0.44,moving,1
5.51,608007.17579614,23,1,1,0,0,5.43,0.69,0.3,-4.33,0.06,-0.18,-9.75,24.9375,-2.0625,0.041259765625,0.68914794921875,0.0052490234375,0.723388671875,-41.375,-28.1875,31.0,9.77,0.63,0.49,moving,1
5.52,608007.190729531,23,1,1,0,0,4.98,0.61,0.33,-4.78,-0.01,-0.16,-16.375,9.6875,1.0625,0.04217529296875,0.6884765625,0.00421142578125,0.7239990234375,-41.375,-28.1875,31.0,9.77,0.62,0.5,moving,1
5.53,608007.190729531,23,1,1,0,0,4.66,0.41,0.23,-5.1,-0.2,-0.27,-22.75,0.3125,4.1875,0.0433349609375,0.68841552734375,0.00250244140625,0.7239990234375,-42.0625,-27.375,30.1875,9.77,0.62,0.51,moving,1
5.54,608007.22171887,23,1,1,0,0,3.81,0.0,0.28,-5.95,-0.59,-0.22,-25.6875,-1.4375,5.25,0.04449462890625,0.68841552734375,0.00054931640625,0.72393798828125,-42.0625,-27.375,30.1875,9.77,0.6,0.51,moving,1
5.55,608007.22171887,23,1,1,0,0,3.43,-0.09,0.3,-6.34,-0.69,-0.19,-23.0625,-5.3125,4.1875,0.045654296875,0.68865966796875,-0.00115966796875,0.7236328125,-42.0625,-27.375,30.1875,9.77,0.6,0.5,moving,1
5.56,608007.234791258,23,1,1,0,0,3.37,-0.02,0.36,-6.4,-0.62,-0.12,-18.8125,-8.1875,3.0,0.04656982421875,0.6890869140625,-0.0025634765625,0.72314453125,-42.0625,-27.375,30.1875,9.77,0.59,0.49,moving,1
5.57,608007.234791258,23,1,1,0,0,3.47,-0.01,0.2,-6.3,-0.6,-0.27,-17.625,-11.125,3.0,0.0474853515625,0.68975830078125,-0.00390625,0.72247314453125,-42.0625,-27.375,30.1875,9.77,0.58,0.47,moving,1
5.58,608007.252510048,23,1,1,0,0,5.16,0.0,-0.47,-4.61,-0.58,-0.92,-17.0,-18.4375,5.3125,0.04815673828125,0.6907958984375,-0.00537109375,0.72137451171875,-42.0625,-28.5,29.75,9.77,0.57,0.44,moving,1
5.59,608007.252510048,23,1,1,0,0,6.59,0.3,-0.38,-3.18,-0.25,-0.78,-12.625,-23.875,6.8125,0.0484619140625,0.6922607421875,-0.00665283203125,0.719970703125,-42.0625,-28.5,29.75,9.78,0.56,0.4,moving,1
5.6,608007.265091998,23,1,1,0,0,8.06,0.74,-0.54,-1.72,0.19,-0.91,-12.1875,-20.4375,8.3125,0.04864501953125,0.6934814453125,-0.00799560546875,0.71875,-42.0625,-28.5,29.75,9.78,0.54,0.37,moving,1
5.61,608007.265091998,23,1,1,0,0,11.04,1.63,0.22,1.26,1.11,-0.11,-24.625,-20.25,11.8125,0.0494384765625,0.69464111328125,-0.0103759765625,0.71759033203125,-42.0625,-28.5,29.75,9.78,0.52,0.34,moving,1
5.62,608007.296694253,23,1,1,0,0,12.63,1.8,1.35,2.84,1.3,1.06,-47.6875,-29.1875,18.25,0.0511474609375,0.69622802734375,-0.01458740234375,0.7158203125,-42.0625,-28.5,29.75,9.78,0.49,0.29,moving,1
5.63,608007.296694253,23,1,1,0,0,13.45,1.33,2.11,3.66,0.88,1.86,-65.875,-30.875,21.4375,0.05377197265625,0.69781494140625,-0.0201416015625,0.71392822265625,-42.375,-29.1875,29.75,9.79,0.45,0.24,moving,1
5.64,608007.312227659,23,1,1,0,0,13.91,0.8,2.1,4.11,0.37,1.87,-45.5625,-15.0,16.125,0.05548095703125,0.69854736328125,-0.0240478515625,0.7130126953125,-42.375,-29.1875,29.75,9.79,0.42,0.22,moving,1
5.65,608007.312227659,23,1,1,0,0,16.48,0.1,-1.99,6.69,-0.31,-2.2,12.1875,-8.9375,4.875,0.054443359375,0.6990966796875,-0.02362060546875,0.7125244140625,-42.375,-29.1875,29.75,9.79,0.41,0.2,moving,1
5.66,608007.32506498,23,1,1,0,0,18.74,0.39,-3.35,8.94,-0.03,-3.49,63.0625,-37.3125,-7.8125,0.051025390625,0.70172119140625,-0.01934814453125,0.7103271484375,-42.375,-29.1875,29.75,9.79,0.43,0.14,moving,1
5.67,608007.32506498,23,1,1,0,0,19.55,1.1,-2.77,9.75,0.64,-2.8,66.25,-57.375,-14.5,0.04779052734375,0.70562744140625,-0.0146484375,0.70684814453125,-42.375,-29.1875,29.75,9.79,0.45,0.03,moving,1
5.68,608007.358415892,23,1,1,0,0,17.35,1.05,-0.6,7.55,0.57,-0.59,36.3125,-22.0625,-16.9375,0.04656982421875,0.7071533203125,-0.01141357421875,0.7054443359375,-41.0,-28.5,29.0,9.79,0.48,0.0,moving,1
5.69,608007.358415892,23,1,1,0,0,17.35,1.05,-0.6,7.55,0.57,-0.59,36.3125,-22.0625,-16.9375,0.04656982421875,0.7071533203125,-0.01141357421875,0.7054443359375,-41.0,-28.5,29.0,9.79,0.48,0.0,moving,1
5.69,608007.365296507,23,1,1,0,0,15.67,0.64,-0.56,5.88,0.13,-0.57,13.375,4.625,-12.25,0.0465087890625,0.7069091796875,-0.00982666015625,0.7056884765625,-41.0,-28.5,29.0,9.79,0.5,0.0,moving,1
5.7,608007.365296507,23,1,1,0,0,13.82,0.35,-0.27,4.03,-0.16,-0.29,-2.3125,10.4375,-8.8125,0.04718017578125,0.706298828125,-0.0093994140625,0.706298828125,-41.0,-28.5,29.0,9.79,0.52,0.02,moving,1
5.71,608007.385534503,23,1,1,0,0,12.65,0.05,0.21,2.85,-0.47,0.15,-14.125,20.0625,-5.5,0.04840087890625,0.70501708984375,-0.00982666015625,0.70751953125,-41.0,-28.5,29.0,9.79,0.53,0.05,moving,1
5.72,608007.385534503,23,1,1,0,0,10.2,-0.06,1.11,0.41,-0.59,1.0,-15.0,25.875,-2.375,0.04949951171875,0.70330810546875,-0.010498046875,0.70904541015625,-41.0,-28.5,29.0,9.79,0.53,0.1,moving,1
5.73,608007.417440509,23,1,1,0,0,8.94,0.11,1.5,-0.84,-0.41,1.36,-11.9375,23.5625,2.1875,0.05010986328125,0.70184326171875,-0.01123046875,0.71051025390625,-41.6875,-28.1875,30.5,9.79,0.53,0.14,moving,1
5.74,608007.417440509,23,1,1,0,0,7.81,0.67,1.83,-1.97,0.14,1.65,-14.8125,19.5,6.125,0.0506591796875,0.7005615234375,-0.012451171875,0.711669921875,-41.6875,-28.1875,30.5,9.79,0.52,0.17,moving,1
5.75,608007.424481199,23,1,1,0,0,6.45,0.74,1.19,-3.33,0.23,0.97,-16.125,23.125,6.4375,0.05126953125,0.69903564453125,-0.0137939453125,0.713134765625,-41.6875,-28.1875,30.5,9.79,0.51,0.21,moving,1
5.76,608007.424481199,23,1,1,0,0,4.94,0.52,0.98,-4.84,0.02,0.72,-8.1875,21.4375,5.6875,0.05145263671875,0.6976318359375,-0.0145263671875,0.71441650390625,-41.6875,-28.1875,30.5,9.79,0.5,0.25,moving,1
5.77,608007.445717324,23,1,1,0,0,4.25,0.29,0.56,-5.53,-0.2,0.23,-6.8125,37.0,3.0625,0.0517578125,0.6953125,-0.01495361328125,0.7166748046875,-41.6875,-28.1875,30.5,9.78,0.49,0.32,moving,1
5.78,608007.445717324,23,1,1,0,0,3.64,0.09,0.44,-6.13,-0.39,0.04,-6.875,46.125,-0.25,0.05224609375,0.6923828125,-0.01519775390625,0.719482421875,-41.0,-27.75,30.1875,9.78,0.49,0.39,moving,1
5.79,608007.462900185,23,1,1,0,0,2.74,-0.33,0.37,-7.03,-0.83,-0.09,-4.875,45.125,-1.0625,0.05267333984375,0.68951416015625,-0.01519775390625,0.72216796875,-41.0,-27.75,30.1875,9.78,0.49,0.47,moving,1
5.8,608007.462900185,23,1,1,0,0,2.48,-0.44,0.37,-7.29,-0.94,-0.16,0.875,38.125,-0.6875,0.05267333984375,0.6871337890625,-0.01495361328125,0.7244873046875,-41.0,-27.75,30.1875,9.77,0.49,0.54,moving,1
5.81,608007.490030231,23,1,1,0,0,2.42,-0.32,0.52,-7.34,-0.82,-0.06,7.375,30.5,-1.125,0.0523681640625,0.68524169921875,-0.0142822265625,0.726318359375,-41.0,-27.75,30.1875,9.77,0.5,0.59,moving,1
5.82,608007.490030231,23,1,1,0,0,2.48,-0.37,0.41,-7.29,-0.88,-0.21,11.0625,22.9375,-1.0625,0.05181884765625,0.683837890625,-0.01336669921875,0.72772216796875,-41.0,-27.75,30.1875,9.77,0.5,0.63,moving,1
5.83,608007.505149209,23,1,1,0,0,3.54,-0.06,0.15,-6.22,-0.56,-0.5,11.4375,13.75,-0.8125,0.05120849609375,0.6829833984375,-0.0125732421875,0.728515625,-43.1875,-29.1875,28.6875,9.77,0.5,0.65,moving,1
5.84,608007.505149209,23,1,1,0,0,4.58,0.17,0.17,-5.18,-0.32,-0.48,6.25,0.6875,1.9375,0.05072021484375,0.6829833984375,-0.01226806640625,0.72857666015625,-43.1875,-29.1875,28.6875,9.77,0.5,0.65,moving,1
5.85,608007.519959145,23,1,1,0,0,5.4,0.33,0.15,-4.37,-0.15,-0.48,-2.625,-7.75,5.4375,0.05047607421875,0.68341064453125,-0.0128173828125,0.7281494140625,-43.1875,-29.1875,28.6875,9.77,0.49,0.64,moving,1
5.86,608007.519959145,23,1,1,0,0,9.42,0.74,-0.13,-0.35,0.26,-0.73,-9.625,-26.1875,10.5625,0.05035400390625,0.68505859375,-0.01416015625,0.72662353515625,-43.1875,-29.1875,28.6875,9.77,0.47,0.59,moving,1
5.87,608007.536454466,23,1,1,0,0,12.34,1.05,-0.58,2.56,0.61,-1.09,-20.4375,-55.9375,19.75,0.05029296875,0.6884765625,-0.016845703125,0.72332763671875,-43.1875,-29.1875,28.6875,9.78,0.43,0.5,moving,1
5.88,608007.536454466,23,1,1,0,0,15.54,0.93,-0.9,5.75,0.55,-1.27,-37.375,-79.1875,30.9375,0.05047607421875,0.6932373046875,-0.02142333984375,0.7186279296875,-43.875,-30.25,27.75,9.79,0.38,0.37,moving,1
5.89,608007.565657225,23,1,1,0,0,18.68,0.27,-0.76,8.88,-0.04,-0.97,-51.3125,-92.1875,36.75,0.05108642578125,0.69866943359375,-0.02728271484375,0.71307373046875,-43.875,-30.25,27.75,9.79,0.31,0.21,moving,1
5.9,608007.565657225,23,1,1,0,0,20.34,1.02,5.27,10.53,0.76,5.19,-30.0625,-78.875,29.25,0.0509033203125,0.703369140625,-0.03131103515625,0.70831298828125,-43.875,-30.25,27.75,9.8,0.26,0.08,moving,1
5.91,608007.579908364,23,1,1,0,0,19.61,2.22,2.2,9.81,1.96,2.2,36.8125,-46.125,4.375,0.0482177734375,0.70635986328125,-0.02947998046875,0.70556640625,-43.875,-30.25,27.75,9.8,0.26,0.0,moving,1
5.92,608007.579908364,23,1,1,0,0,17.03,1.25,-0.19,7.23,0.96,-0.08,70.3125,-61.3125,-17.375,0.0447998046875,0.71044921875,-0.02435302734375,0.701904296875,-43.875,-30.25,27.75,9.8,0.28,-0.1,moving,1
5.93,608007.610188963,23,1,1,0,0,16.62,-0.22,-0.19,6.82,-0.53,0.0,26.125,-58.25,-13.9375,0.0439453125,0.714111328125,-0.0220947265625,0.69830322265625,-43.5625,-28.5,29.0,9.79,0.31,-0.2,moving,1
5.94,608007.610188963,23,1,1,0,0,13.67,-0.86,-0.32,3.87,-1.18,-0.16,-8.875,26.1875,-5.375,0.04486083984375,0.7125244140625,-0.022216796875,0.69989013671875,-43.5625,-28.5,29.0,9.8,0.32,-0.16,moving,1
5.95,608007.615067218,23,1,1,0,0,13.67,-0.86,-0.32,3.87,-1.18,-0.16,-8.875,26.1875,-5.375,0.04486083984375,0.7125244140625,-0.022216796875,0.69989013671875,-43.5625,-28.5,29.0,9.8,0.32,-0.16,moving,1
5.96,608007.615067218,23,1,1,0,0,14.06,0.21,1.41,4.26,-0.11,1.5,3.0,37.75,-2.6875,0.044921875,0.710205078125,-0.02166748046875,0.70220947265625,-43.5625,-28.5,29.0,9.8,0.32,-0.09,moving,1
5.96,608007.625315713,23,1,1,0,0,12.69,0.32,0.35,2.89,0.0,0.33,-0.75,71.25,-0.8125,0.045166015625,0.705810546875,-0.02142333984375,0.70660400390625,-43.5625,-28.5,29.0,9.8,0.32,0.02,moving,1
5.97,608007.625315713,23,1,1,0,0,9.62,0.44,0.24,-0.16,0.1,0.06,7.875,87.875,-5.875,0.04522705078125,0.700439453125,-0.02020263671875,0.71197509765625,-43.5625,-28.5,29.0,9.79,0.33,0.17,moving,1
5.98,608007.655459552,23,1,1,0,0,7.79,1.18,0.03,-1.99,0.83,-0.28,12.1875,87.0625,-5.875,0.04498291015625,0.695068359375,-0.01873779296875,0.71728515625,-41.375,-27.75,29.75,9.79,0.34,0.32,moving,1
5.99,608007.655459552,23,1,1,0,0,6.98,1.02,-0.36,-2.8,0.66,-0.83,2.5625,86.25,-4.3125,0.04522705078125,0.68963623046875,-0.0179443359375,0.72247314453125,-41.375,-27.75,29.75,9.78,0.35,0.47,moving,1
6.0,608007.670111652,23,1,1,0,0,5.72,0.29,-0.02,-4.05,-0.06,-0.63,-7.75,81.4375,-2.3125,0.0460205078125,0.6844482421875,-0.01800537109375,0.72735595703125,-41.375,-27.75,29.75,9.78,0.36,0.61,moving,1
6.01,608007.670111652,23,1,1,0,0,3.69,-0.05,-0.06,-6.07,-0.42,-0.78,0.6875,64.125,-2.5,0.04620361328125,0.680419921875,-0.01751708984375,0.731201171875,-41.375,-27.75,29.75,9.77,0.36,0.72,moving,1
6.02,608007.684588458,23,1,1,0,0,3.33,0.36,2.11,-6.43,0.0,1.34,13.25,28.5,-5.875,0.04583740234375,0.67864990234375,-0.0162353515625,0.73284912109375,-41.375,-27.75,29.75,9.76,0.37,0.76,moving,1
6.03,608007.684588458,23,1,1,0,0,3.52,0.76,1.54,-6.24,0.38,0.78,-4.5,-2.25,-1.6875,0.04620361328125,0.67877197265625,-0.01641845703125,0.73272705078125,-43.875,-28.1875,29.75,9.76,0.37,0.76,moving,1
6.04,608007.71601778,23,1,1,0,0,3.35,-0.32,1.31,-6.41,-0.7,0.58,-19.4375,-26.0625,-0.1875,0.04736328125,0.68035888671875,-0.01776123046875,0.73114013671875,-43.875,-28.1875,29.75,9.77,0.37,0.72,moving,1
6.05,608007.71601778,23,1,1,0,0,2.83,-0.89,-0.13,-6.94,-1.27,-0.82,-19.75,-21.125,-0.375,0.0484619140625,0.68157958984375,-0.01910400390625,0.7298583984375,-43.875,-28.1875,29.75,9.77,0.37,0.68,moving,1
6.06,608007.730704303,23,1,1,0,0,3.66,-0.77,0.46,-6.1,-1.15,-0.18,1.4375,-23.75,-3.0,0.048583984375,0.68310546875,-0.0189208984375,0.72845458984375,-43.875,-28.1875,29.75,9.77,0.38,0.64,moving,1
6.07,608007.730704303,23,1,1,0,0,3.81,-0.71,-0.23,-5.96,-1.1,-0.83,17.5,-27.875,-2.25,0.047607421875,0.6849365234375,-0.017822265625,0.726806640625,-43.875,-28.1875,29.75,9.78,0.38,0.59,moving,1
6.08,608007.745686033,23,1,1,0,0,7.55,0.16,-0.69,-2.23,-0.22,-1.19,22.875,-60.3125,0.375,0.046142578125,0.6888427734375,-0.0166015625,0.72320556640625,-43.75,-30.0,27.75,9.78,0.38,0.49,moving,1
6.09,608007.745686033,23,1,1,0,0,10.62,0.43,-1.61,0.82,0.05,-1.95,19.5625,-89.375,7.5,0.04437255859375,0.694580078125,-0.01617431640625,0.7178955078125,-43.75,-30.0,27.75,9.79,0.37,0.34,moving,1
6.1,608007.777156655,23,1,1,0,0,14.72,0.94,-2.69,4.92,0.59,-2.84,11.6875,-106.3125,16.0,0.04248046875,0.701171875,-0.016845703125,0.71148681640625,-43.75,-30.0,27.75,9.79,0.34,0.15,moving,1
6.11,608007.777156655,23,1,1,0,0,21.95,2.22,2.27,12.15,1.91,2.29,-6.1875,-107.1875,25.75,0.0411376953125,0.707763671875,-0.0191650390625,0.70501708984375,-43.75,-30.0,27.75,9.8,0.3,-0.02,moving,1
6.12,608007.806261107,23,1,1,0,0,20.03,1.52,6.88,10.23,1.26,7.03,-37.4375,-74.75,26.9375,0.04168701171875,0.712158203125,-0.0234375,0.70037841796875,-43.75,-30.0,27.75,9.8,0.26,-0.15,moving,1
6.13,608007.806261107,23,1,1,0,0,17.87,-0.52,1.26,8.07,-0.76,1.4,-5.75,8.1875,7.375,0.04156494140625,0.71160888671875,-0.024169921875,0.700927734375,-42.25,-29.5625,30.1875,9.8,0.24,-0.13,moving,1
6.15,608007.819819334,23,1,1,0,0,14.82,0.05,-1.31,5.02,-0.26,-1.16,67.75,-14.4375,-24.25,0.0357666015625,0.71246337890625,-0.0130615234375,0.70068359375,-42.25,-29.5625,30.1875,9.8,0.32,-0.15,moving,1
6.16,608007.819819334,23,1,1,0,0,13.22,0.07,-0.5,3.42,-0.26,-0.37,24.4375,17.0625,-11.875,0.03497314453125,0.71148681640625,-0.01080322265625,0.70172119140625,-42.25,-29.5625,30.1875,9.79,0.34,-0.12,moving,1
6.17,608007.836090086,23,1,1,0,0,11.92,0.63,-0.27,2.12,0.27,-0.25,10.625,57.8125,-12.0,0.03515625,0.7080078125,-0.00921630859375,0.705322265625,-42.25,-29.5625,30.1875,9.79,0.36,-0.02,moving,1
6.18,608007.836090086,23,1,1,0,0,9.09,-0.31,-0.29,-0.7,-0.69,-0.39,0.0,70.8125,-12.5625,0.03594970703125,0.70361328125,-0.0081787109375,0.7095947265625,-41.25,-27.375,32.5,9.79,0.38,0.09,moving,1
6.19,608007.864778685,23,1,1,0,0,8.48,0.02,-0.07,-1.31,-0.36,-0.28,-4.0,66.9375,-9.3125,0.03680419921875,0.699462890625,-0.0076904296875,0.71368408203125,-41.25,-27.375,32.5,9.79,0.39,0.21,moving,1
6.2,608007.864778685,23,1,1,0,0,8.48,0.02,-0.07,-1.31,-0.36,-0.28,-4.0,66.9375,-9.3125,0.03680419921875,0.699462890625,-0.0076904296875,0.71368408203125,-41.25,-27.375,32.5,9.79,0.39,0.21,moving,1
6.2,608007.870189696,23,1,1,0,0,7.34,0.48,0.04,-2.44,0.07,-0.28,-10.8125,69.4375,-4.6875,0.037841796875,0.695068359375,-0.0078125,0.7178955078125,-41.25,-27.375,32.5,9.79,0.4,0.32,moving,1
6.21,608007.870189696,23,1,1,0,0,6.42,0.68,0.33,-3.36,0.28,-0.11,-23.0,68.5625,-1.625,0.03936767578125,0.690673828125,-0.00897216796875,0.7220458984375,-41.25,-27.375,32.5,9.78,0.4,0.44,moving,1
6.22,608007.896210488,23,1,1,0,0,4.99,0.06,0.05,-4.78,-0.34,-0.51,-25.0,69.625,0.0625,0.04095458984375,0.68621826171875,-0.01031494140625,0.7261962890625,-41.25,-27.375,32.5,9.78,0.4,0.56,moving,1
6.23,608007.896210488,23,1,1,0,0,4.32,0.19,0.91,-5.45,-0.21,0.23,-15.4375,64.0625,-0.625,0.0419921875,0.68206787109375,-0.010986328125,0.72998046875,-42.25,-28.5,30.5,9.77,0.4,0.67,moving,1
6.24,608007.910329588,23,1,1,0,0,3.89,0.5,1.24,-5.87,0.09,0.51,-7.3125,31.5625,-0.9375,0.04248046875,0.6800537109375,-0.01129150390625,0.73187255859375,-42.25,-28.5,30.5,9.77,0.4,0.73,moving,1
6.25,608007.910329588,23,1,1,0,0,4.02,0.65,1.17,-5.74,0.25,0.43,-6.8125,5.0625,2.0,0.04278564453125,0.6796875,-0.0118408203125,0.732177734375,-42.25,-28.5,30.5,9.77,0.4,0.74,moving,1
6.26,608007.92638395,23,1,1,0,0,3.58,0.11,0.49,-6.18,-0.27,-0.24,-14.4375,-2.6875,3.625,0.04339599609375,0.6798095703125,-0.01300048828125,0.73199462890625,-42.25,-28.5,30.5,9.77,0.39,0.73,moving,1
6.27,608007.92638395,23,1,1,0,0,3.35,-0.38,0.3,-6.41,-0.76,-0.43,-17.125,-2.75,2.3125,0.04425048828125,0.67987060546875,-0.01422119140625,0.7318115234375,-42.25,-28.5,30.5,9.77,0.38,0.73,moving,1
6.28,608007.956210244,23,1,1,0,0,3.54,-0.41,0.37,-6.22,-0.79,-0.35,-8.25,-7.0,0.125,0.04473876953125,0.6802978515625,-0.0147705078125,0.73138427734375,-43.5,-29.5625,29.375,9.77,0.38,0.72,moving,1
6.29,608007.956210244,23,1,1,0,0,5.47,0.34,0.7,-4.3,-0.04,0.02,2.625,-24.9375,0.0,0.0445556640625,0.681884765625,-0.01470947265625,0.72991943359375,-43.5,-29.5625,29.375,9.77,0.38,0.68,moving,1
6.3,608007.970971027,23,1,1,0,0,6.91,0.66,0.61,-2.86,0.28,0.01,1.0625,-49.5625,4.6875,0.04412841796875,0.68505859375,-0.01507568359375,0.72698974609375,-43.5,-29.5625,29.375,9.78,0.37,0.59,moving,1
6.31,608007.970971027,23,1,1,0,0,8.97,0.87,0.38,-0.81,0.51,-0.1,-8.0,-67.1875,10.5625,0.04388427734375,0.68927001953125,-0.0164794921875,0.7230224609375,-43.5,-29.5625,29.375,9.78,0.35,0.48,moving,1
6.32,608008.015895588,23,1,1,0,0,11.55,1.08,-0.05,1.75,0.75,-0.39,-13.9375,-81.75,16.6875,0.04351806640625,0.6943359375,-0.0186767578125,0.7181396484375,-43.5,-29.5625,29.375,9.79,0.32,0.34,moving,1
6.33,608008.015895588,23,1,1,0,0,17.58,1.35,0.15,7.78,1.05,-0.03,-7.3125,-89.875,20.375,0.04254150390625,0.6998291015625,-0.020751953125,0.71270751953125,-43.5,-27.75,28.6875,9.8,0.29,0.19,moving,1
6.34,608008.02122119,23,1,1,0,0,18.73,1.68,2.13,8.93,1.41,2.09,5.875,-88.875,16.625,0.041015625,0.705322265625,-0.021728515625,0.70733642578125,-43.5,-27.75,28.6875,9.8,0.26,0.03,moving,1
6.35,608008.02122119,23,1,1,0,0,18.78,1.81,3.01,8.98,1.56,3.05,13.5,-45.875,9.0625,0.03948974609375,0.70819091796875,-0.0216064453125,0.70458984375,-43.5,-27.75,28.6875,9.8,0.25,-0.03,moving,1
6.36,608008.030180215,23,1,1,0,0,17.88,1.25,-0.6,8.08,0.99,-0.56,48.0,-3.0625,-5.8125,0.03692626953125,0.70855712890625,-0.018310546875,0.7044677734375,-43.5,-27.75,28.6875,9.8,0.26,-0.04,moving,1
6.37,608008.030180215,23,1,1,0,0,16.13,1.28,-0.11,6.33,0.97,-0.03,71.5,-13.5625,-26.9375,0.03411865234375,0.70965576171875,-0.01226806640625,0.70361328125,-43.5,-27.75,28.6875,9.8,0.3,-0.07,moving,1
6.38,608008.061348713,23,1,1,0,0,15.35,0.67,0.49,5.55,0.32,0.57,52.1875,-5.9375,-25.625,0.032470703125,0.71014404296875,-0.00750732421875,0.7032470703125,-42.0,-27.375,30.1875,9.8,0.34,-0.08,moving,1
6.39,608008.061348713,23,1,1,0,0,13.72,0.98,-0.51,3.92,0.6,-0.47,24.0625,28.1875,-17.0,0.03204345703125,0.70849609375,-0.0048828125,0.7049560546875,-42.0,-27.375,30.1875,9.79,0.37,-0.03,moving,1
6.4,608008.074645384,23,1,1,0,0,10.42,0.11,-0.44,0.62,-0.28,-0.47,5.1875,43.3125,-12.5,0.03253173828125,0.70587158203125,-0.003662109375,0.70758056640625,-42.0,-27.375,30.1875,9.79,0.39,0.03,moving,1
6.41,608008.074645384,23,1,1,0,0,9.03,-0.37,-0.55,-0.76,-0.78,-0.64,-16.25,36.125,-4.4375,0.0338134765625,0.70355224609375,-0.0042724609375,0.7098388671875,-42.0,-27.375,30.1875,9.79,0.4,0.09,moving,1
6.42,608008.090667438,23,1,1,0,0,8.28,-0.29,-0.24,-1.51,-0.69,-0.38,-26.375,26.6875,2.3125,0.0352783203125,0.70184326171875,-0.0059814453125,0.71142578125,-42.0,-27.375,30.1875,9.79,0.4,0.14,moving,1
6.43,608008.090667438,23,1,1,0,0,7.3,0.03,-0.22,-2.48,-0.35,-0.41,-26.0625,27.9375,4.375,0.03662109375,0.70001220703125,-0.00775146484375,0.713134765625,-42.0,-27.0625,31.25,9.79,0.39,0.19,moving,1
6.44,608008.119990233,23,1,1,0,0,6.06,0.33,0.11,-3.72,-0.05,-0.12,-20.5,28.1875,4.1875,0.03765869140625,0.69818115234375,-0.00921630859375,0.71490478515625,-42.0,-27.0625,31.25,9.79,0.38,0.24,moving,1
6.45,608008.119990233,23,1,1,0,0,5.45,0.39,0.19,-4.33,0.01,-0.09,-11.3125,24.0,2.5,0.0382080078125,0.69659423828125,-0.00994873046875,0.71636962890625,-42.0,-27.0625,31.25,9.79,0.38,0.28,moving,1
6.46,608008.125329059,23,1,1,0,0,5.45,0.39,0.19,-4.33,0.01,-0.09,-11.3125,24.0,2.5,0.0382080078125,0.69659423828125,-0.00994873046875,0.71636962890625,-42.0,-27.0625,31.25,9.79,0.38,0.28,moving,1
6.47,608008.125329059,23,1,1,0,0,5.07,0.39,0.24,-4.71,0.01,-0.06,-3.625,15.1875,-0.6875,0.03851318359375,0.6956787109375,-0.0101318359375,0.71728515625,-42.0,-27.0625,31.25,9.79,0.38,0.31,moving,1
6.47,608008.135136351,23,1,1,0,0,4.47,0.63,0.22,-5.32,0.25,-0.1,-2.5,10.3125,-1.75,0.03875732421875,0.69500732421875,-0.0101318359375,0.7178955078125,-42.0,-27.0625,31.25,9.79,0.38,0.33,moving,1
6.48,608008.135136351,23,1,1,0,0,4.2,0.45,0.2,-5.58,0.06,-0.13,-10.75,5.5,-0.6875,0.03948974609375,0.694580078125,-0.0107421875,0.71820068359375,-42.6875,-28.875,30.1875,9.79,0.38,0.34,moving,1
6.49,608008.166215249,23,1,1,0,0,4.0,0.18,0.28,-5.78,-0.2,-0.05,-17.8125,1.5625,0.1875,0.04058837890625,0.6944580078125,-0.0118408203125,0.71832275390625,-42.6875,-28.875,30.1875,9.79,0.38,0.34,moving,1
6.5,608008.166215249,23,1,1,0,0,3.98,0.19,0.28,-5.8,-0.19,-0.06,-14.9375,1.25,-0.6875,0.04150390625,0.6943359375,-0.0126953125,0.7183837890625,-42.6875,-28.875,30.1875,9.79,0.38,0.34,moving,1
6.51,608008.179783324,23,1,1,0,0,4.55,-0.13,0.22,-5.23,-0.52,-0.1,-8.1875,-6.0625,-3.25,0.042236328125,0.69464111328125,-0.0130615234375,0.71795654296875,-42.6875,-28.875,30.1875,9.79,0.39,0.33,moving,1
6.52,608008.179783324,23,1,1,0,0,5.64,-0.2,0.18,-4.14,-0.59,-0.12,-6.4375,-20.3125,-1.4375,0.04266357421875,0.6959228515625,-0.013427734375,0.71673583984375,-42.6875,-28.875,30.1875,9.79,0.39,0.3,moving,1
6.53,608008.19660974,23,1,1,0,0,7.17,-0.09,0.0,-2.62,-0.48,-0.24,-10.875,-39.0,3.9375,0.04302978515625,0.69830322265625,-0.0145263671875,0.71435546875,-42.25,-27.75,31.6875,9.79,0.38,0.23,moving,1
6.54,608008.19660974,23,1,1,0,0,12.14,0.11,-1.05,2.34,-0.25,-1.21,-16.6875,-50.1875,10.75,0.0433349609375,0.70135498046875,-0.01641845703125,0.7113037109375,-42.25,-27.75,31.6875,9.79,0.36,0.15,moving,1
6.55,608008.226055134,23,1,1,0,0,14.92,0.4,-1.69,5.12,0.06,-1.74,-16.375,-57.0625,16.1875,0.04327392578125,0.70477294921875,-0.01861572265625,0.7078857421875,-42.25,-27.75,31.6875,9.8,0.33,0.05,moving,1
6.56,608008.226055134,23,1,1,0,0,17.01,0.51,-0.52,7.21,0.2,-0.48,-13.6875,-59.0,17.9375,0.04290771484375,0.70831298828125,-0.02081298828125,0.70428466796875,-42.25,-27.75,31.6875,9.8,0.3,-0.04,moving,1
6.57,608008.240925251,23,1,1,0,0,16.75,0.52,2.08,6.95,0.24,2.18,-17.75,-32.875,13.4375,0.0430908203125,0.71026611328125,-0.0228271484375,0.7022705078125,-42.25,-27.75,31.6875,9.8,0.28,-0.09,moving,1
6.58,608008.240925251,23,1,1,0,0,15.61,-0.71,-0.75,5.81,-0.98,-0.66,-2.4375,5.5,5.9375,0.04290771484375,0.70989990234375,-0.0233154296875,0.70263671875,-41.5625,-27.75,31.25,9.8,0.27,-0.08,moving,1
6.59,608008.256040607,23,1,1,0,0,15.99,-0.22,-2.5,6.19,-0.5,-2.4,45.3125,-7.375,-3.5,0.040283203125,0.71051025390625,-0.0203857421875,0.70220947265625,-41.5625,-27.75,31.25,9.8,0.28,-0.1,moving,1
6.6,608008.256040607,23,1,1,0,0,15.71,0.03,-1.53,5.91,-0.26,-1.36,74.875,-36.375,-13.8125,0.03643798828125,0.7130126953125,-0.01507568359375,0.7000732421875,-41.5625,-27.75,31.25,9.8,0.3,-0.16,moving,1
6.61,608008.286186115,23,1,1,0,0,14.03,0.56,-0.74,4.23,0.24,-0.55,45.4375,-9.125,-10.125,0.03424072265625,0.7137451171875,-0.01165771484375,0.69952392578125,-41.5625,-27.75,31.25,9.79,0.31,-0.18,moving,1
6.62,608008.286186115,23,1,1,0,0,12.69,0.39,-0.14,2.89,0.07,0.0,13.125,26.3125,-4.8125,0.03375244140625,0.712158203125,-0.010498046875,0.70111083984375,-41.5625,-27.75,31.25,9.8,0.32,-0.14,moving,1
6.63,608008.301286335,23,1,1,0,0,11.48,0.02,-0.4,1.68,-0.3,-0.31,-0.625,29.125,-2.75,0.03399658203125,0.71038818359375,-0.01025390625,0.70294189453125,-39.5,-28.5,32.5,9.8,0.33,-0.09,moving,1
6.64,608008.301286335,23,1,1,0,0,10.37,0.24,-0.53,0.57,-0.09,-0.5,-4.875,34.3125,-1.625,0.034423828125,0.708251953125,-0.0103759765625,0.70501708984375,-39.5,-28.5,32.5,9.8,0.33,-0.03,moving,1
6.65,608008.315606566,23,1,1,0,0,8.46,0.88,-0.27,-1.33,0.55,-0.31,-8.0,39.125,0.0,0.034912109375,0.705810546875,-0.0107421875,0.70745849609375,-39.5,-28.5,32.5,9.8,0.33,0.03,moving,1
6.66,608008.315606566,23,1,1,0,0,7.5,0.8,-0.12,-2.29,0.47,-0.22,-15.5,35.8125,2.3125,0.0357666015625,0.70355224609375,-0.01171875,0.70965576171875,-39.5,-28.5,32.5,9.8,0.33,0.09,moving,1
6.67,608008.34743937,23,1,1,0,0,6.77,0.6,0.0,-3.02,0.28,-0.14,-24.0,30.9375,3.6875,0.03704833984375,0.7015380859375,-0.01336669921875,0.7115478515625,-39.5,-28.5,32.5,9.8,0.32,0.14,moving,1
6.68,608008.34743937,23,1,1,0,0,5.94,0.33,0.1,-3.85,0.02,-0.09,-26.625,26.6875,4.1875,0.0384521484375,0.6998291015625,-0.01519775390625,0.713134765625,-40.875,-27.375,31.25,9.79,0.31,0.19,moving,1
6.69,608008.360777302,23,1,1,0,0,5.07,0.16,0.52,-4.72,-0.14,0.29,-24.3125,15.375,4.0625,0.03973388671875,0.69873046875,-0.01690673828125,0.71405029296875,-40.875,-27.375,31.25,9.79,0.3,0.22,moving,1
6.7,608008.360777302,23,1,1,0,0,4.9,0.21,0.46,-4.89,-0.08,0.22,-20.75,9.5,3.375,0.040771484375,0.69805908203125,-0.01837158203125,0.714599609375,-40.875,-27.375,31.25,9.79,0.3,0.24,moving,1
6.71,608008.375785277,23,1,1,0,0,4.57,0.18,0.31,-5.22,-0.11,0.04,-18.125,10.8125,1.8125,0.04180908203125,0.69732666015625,-0.01953125,0.71527099609375,-40.875,-27.375,31.25,9.79,0.29,0.26,moving,1
6.72,608008.375785277,23,1,1,0,0,4.57,0.18,0.31,-5.22,-0.11,0.04,-18.125,10.8125,1.8125,0.04180908203125,0.69732666015625,-0.01953125,0.71527099609375,-40.875,-27.375,31.25,9.79,0.29,0.26,moving,1
6.72,608008.39158207,23,1,1,0,0,4.2,-0.1,0.19,-5.58,-0.4,-0.08,-13.75,8.625,-0.4375,0.04266357421875,0.69677734375,-0.0203857421875,0.71575927734375,-40.875,-27.375,31.25,9.79,0.29,0.27,moving,1
6.73,608008.39158207,23,1,1,0,0,4.32,0.01,0.11,-5.47,-0.28,-0.16,-4.625,-2.625,-2.0625,0.04302978515625,0.6968994140625,-0.02056884765625,0.715576171875,-43.375,-28.1875,31.25,9.79,0.3,0.27,moving,1
6.74,608008.4052312,23,1,1,0,0,4.76,0.01,0.14,-5.03,-0.29,-0.1,6.8125,-10.4375,-3.6875,0.0428466796875,0.69757080078125,-0.01995849609375,0.7149658203125,-43.375,-28.1875,31.25,9.79,0.3,0.25,moving,1
6.75,608008.4052312,23,1,1,0,0,5.18,0.13,0.13,-4.61,-0.17,-0.09,12.5,-14.0625,-3.1875,0.04229736328125,0.69854736328125,-0.01898193359375,0.714111328125,-43.375,-28.1875,31.25,9.79,0.31,0.22,moving,1
6.76,608008.435563556,23,1,1,0,0,5.9,0.11,0.42,-3.89,-0.19,0.22,8.6875,-16.5,-0.1875,0.04168701171875,0.6995849609375,-0.0185546875,0.71307373046875,-43.375,-28.1875,31.25,9.79,0.31,0.2,moving,1
6.77,608008.435563556,23,1,1,0,0,6.89,-0.12,0.53,-2.91,-0.43,0.37,-0.5,-25.4375,4.125,0.0413818359375,0.701171875,-0.01885986328125,0.7115478515625,-43.375,-28.1875,31.25,9.8,0.3,0.15,moving,1
6.78,608008.466551431,23,1,1,0,0,8.57,-0.26,0.05,-1.23,-0.55,-0.02,-5.5625,-41.0,9.0,0.0411376953125,0.70367431640625,-0.0198974609375,0.70904541015625,-42.0,-29.5625,30.5,9.8,0.29,0.08,moving,1
6.79,608008.466551431,23,1,1,0,0,13.47,0.19,-1.67,3.67,-0.07,-1.67,-7.9375,-54.0,13.0625,0.04071044921875,0.70697021484375,-0.02142333984375,0.70574951171875,-42.0,-29.5625,30.5,9.8,0.26,0.0,moving,1
6.8,608008.47218994,23,1,1,0,0,16.05,0.57,-1.93,6.24,0.33,-1.82,-8.875,-65.9375,17.4375,0.0400390625,0.7109375,-0.02325439453125,0.70172119140625,-42.0,-29.5625,30.5,9.8,0.23,-0.11,moving,1
6.81,608008.47218994,23,1,1,0,0,17.57,0.83,-0.14,7.77,0.63,0.08,-8.8125,-69.75,19.125,0.039306640625,0.71514892578125,-0.0252685546875,0.69744873046875,-42.0,-29.5625,30.5,9.8,0.2,-0.23,moving,1
6.82,608008.495818602,23,1,1,0,0,17.62,1.23,2.01,7.82,1.05,2.3,-0.125,-30.8125,12.9375,0.0384521484375,0.71697998046875,-0.02618408203125,0.695556640625,-42.0,-29.5625,30.5,9.8,0.18,-0.28,moving,1
6.83,608008.495818602,23,1,1,0,0,17.49,0.98,-1.58,7.69,0.8,-1.29,35.4375,-0.4375,2.625,0.03607177734375,0.71710205078125,-0.024169921875,0.69561767578125,-41.5625,-28.5,30.5625,9.8,0.17,-0.29,moving,1
6.84,608008.510125365,23,1,1,0,0,17.13,0.49,-1.91,7.33,0.3,-1.57,66.625,-27.25,-12.75,0.0325927734375,0.71893310546875,-0.0194091796875,0.69403076171875,-41.5625,-28.5,30.5625,9.79,0.19,-0.33,moving,1
6.85,608008.510125365,23,1,1,0,0,17.43,0.24,-1.86,7.64,0.03,-1.47,51.3125,-32.8125,-13.3125,0.0301513671875,0.72113037109375,-0.01556396484375,0.6920166015625,-41.5625,-28.5,30.5625,9.79,0.21,-0.39,moving,1
6.86,608008.528296874,23,1,1,0,0,14.48,0.58,-0.69,4.69,0.36,-0.31,22.375,9.4375,-5.75,0.02911376953125,0.7205810546875,-0.0137939453125,0.69256591796875,-41.5625,-28.5,30.5625,9.79,0.22,-0.38,moving,1
6.87,608008.528296874,23,1,1,0,0,12.93,0.28,-0.2,3.13,0.05,0.12,9.75,31.5625,-5.875,0.02886962890625,0.71875,-0.01275634765625,0.694580078125,-41.5625,-28.5,30.5625,9.79,0.23,-0.32,moving,1
6.88,608008.556067381,23,1,1,0,0,11.43,0.36,0.06,1.63,0.12,0.31,-0.3125,43.5625,-5.9375,0.029296875,0.716064453125,-0.01226806640625,0.697265625,-40.1875,-28.5,32.875,9.8,0.24,-0.25,moving,1
6.89,608008.556067381,23,1,1,0,0,10.16,0.43,0.25,0.36,0.18,0.43,-9.0625,42.8125,-2.625,0.03009033203125,0.71343994140625,-0.0125732421875,0.699951171875,-40.1875,-28.5,32.875,9.8,0.24,-0.18,moving,1
6.9,608008.570399128,22,1,1,0,0,7.65,0.67,-0.01,-2.15,0.42,0.09,-19.25,41.6875,1.6875,0.03118896484375,0.71087646484375,-0.01373291015625,0.7025146484375,-40.1875,-28.5,32.875,9.8,0.24,-0.1,moving,1
6.91,608008.570399128,22,1,1,0,0,6.41,0.67,-0.11,-3.39,0.43,-0.1,-30.4375,55.4375,4.25,0.03289794921875,0.70733642578125,-0.01568603515625,0.7059326171875,-40.1875,-28.5,32.875,9.8,0.23,-0.01,moving,1
6.92,608008.599714069,22,1,1,0,0,5.28,0.29,0.49,-4.51,0.06,0.41,-37.125,55.75,5.125,0.03497314453125,0.70379638671875,-0.01812744140625,0.70928955078125,-40.1875,-28.5,32.875,9.8,0.23,0.08,moving,1
6.93,608008.599714069,22,1,1,0,0,4.37,-0.11,0.21,-5.43,-0.34,0.07,-32.5625,30.75,4.5625,0.0367431640625,0.7017822265625,-0.02032470703125,0.71112060546875,-41.25,-29.1875,32.5,9.8,0.22,0.13,moving,1
6.94,608008.615123412,22,1,1,0,0,3.75,-0.05,-0.06,-6.04,-0.26,-0.24,-21.9375,22.6875,5.4375,0.03778076171875,0.7003173828125,-0.02197265625,0.7125244140625,-41.25,-29.1875,32.5,9.8,0.21,0.17,moving,1
6.95,608008.615123412,22,1,1,0,0,3.46,-0.23,0.19,-6.34,-0.44,-0.01,-13.375,17.25,1.9375,0.03851318359375,0.69915771484375,-0.02288818359375,0.71356201171875,-41.25,-29.1875,32.5,9.8,0.2,0.2,moving,1
6.96,608008.629836587,22,1,1,0,0,3.55,-0.37,0.06,-6.24,-0.58,-0.13,-0.875,-2.625,-0.75,0.03863525390625,0.6993408203125,-0.02288818359375,0.71337890625,-41.25,-29.1875,32.5,9.8,0.2,0.2,moving,1
6.97,608008.629836587,22,1,1,0,0,3.92,0.01,-0.03,-5.88,-0.19,-0.23,12.375,-2.75,-3.75,0.0380859375,0.6995849609375,-0.02191162109375,0.71319580078125,-41.25,-29.1875,32.5,9.8,0.21,0.19,moving,1
6.98,608008.645375975,22,1,1,0,0,3.87,0.08,-0.16,-5.92,-0.14,-0.37,22.625,6.25,-9.25,0.03729248046875,0.69927978515625,-0.0198974609375,0.713623046875,-42.6875,-27.75,30.5,9.8,0.23,0.2,moving,1
6.99,608008.645375975,22,1,1,0,0,4.13,0.3,0.03,-5.66,0.04,-0.18,27.75,9.9375,-12.625,0.03643798828125,0.69879150390625,-0.017333984375,0.7142333984375,-42.6875,-27.75,30.5,9.8,0.25,0.22,moving,1
7.0,608008.660777383,22,1,1,0,0,4.13,0.3,0.03,-5.66,0.04,-0.18,27.75,9.9375,-12.625,0.03643798828125,0.69879150390625,-0.017333984375,0.7142333984375,-42.6875,-27.75,30.5,9.8,0.25,0.22,moving,1
7.01,608008.660777383,22,1,1,0,0,4.54,0.41,0.02,-5.25,0.13,-0.2,20.5625,4.375,-10.6875,0.03582763671875,0.69854736328125,-0.015380859375,0.7144775390625,-42.6875,-27.75,30.5,9.8,0.27,0.23,moving,1
7.01,608008.675588337,22,1,1,0,0,6.49,0.3,0.11,-3.3,0.02,-0.09,-0.375,-9.5,-3.25,0.0360107421875,0.69915771484375,-0.0152587890625,0.7138671875,-42.6875,-27.75,30.5,9.8,0.28,0.21,moving,1
7.02,608008.675588337,22,1,1,0,0,8.33,-0.02,-0.19,-1.46,-0.29,-0.36,-22.6875,-24.6875,6.0625,0.0369873046875,0.70062255859375,-0.01708984375,0.71234130859375,-42.6875,-27.75,30.5,9.8,0.26,0.17,moving,1
7.03,608008.70636031,22,1,1,0,0,10.86,-0.14,-1.01,1.06,-0.39,-1.11,-32.875,-42.25,13.5,0.0380859375,0.703125,-0.02008056640625,0.70977783203125,-42.25,-27.375,31.25,9.8,0.24,0.1,moving,1
7.04,608008.70636031,22,1,1,0,0,16.4,0.21,-2.31,6.6,0.0,-2.31,-29.5625,-60.3125,20.25,0.03857421875,0.70672607421875,-0.02337646484375,0.7060546875,-42.25,-27.375,31.25,9.8,0.21,0.0,moving,1
7.05,608008.720463459,22,1,1,0,0,18.16,0.02,0.08,8.35,-0.14,0.2,-25.875,-70.5,23.3125,0.03857421875,0.7109375,-0.02667236328125,0.70172119140625,-42.25,-27.375,31.25,9.8,0.17,-0.11,moving,1
7.06,608008.720463459,22,1,1,0,0,17.85,0.23,2.87,8.04,0.09,3.07,-29.5,-43.625,18.25,0.0391845703125,0.71343994140625,-0.02972412109375,0.698974609375,-42.25,-27.375,31.25,9.8,0.14,-0.19,moving,1
7.07,608008.73649833,22,1,1,0,0,18.16,1.03,0.26,8.36,0.9,0.47,7.5625,-7.625,6.125,0.038330078125,0.71392822265625,-0.0296630859375,0.69854736328125,-42.25,-27.375,31.25,9.8,0.12,-0.2,moving,1
7.08,608008.73649833,22,1,1,0,0,18.4,1.1,-2.36,8.6,0.95,-2.07,66.875,-42.0625,-13.0625,0.03485107421875,0.71673583984375,-0.02496337890625,0.696044921875,-42.6875,-27.75,30.5,9.8,0.14,-0.28,moving,1
7.09,608008.766633869,22,1,1,0,0,18.95,0.93,-0.95,9.15,0.75,-0.57,61.75,-57.0,-20.9375,0.0321044921875,0.72039794921875,-0.02001953125,0.6925048828125,-42.6875,-27.75,30.5,9.79,0.18,-0.38,moving,1
7.1,608008.766633869,22,1,1,0,0,16.41,0.47,-1.11,6.62,0.27,-0.74,10.5,7.3125,-12.625,0.0322265625,0.72003173828125,-0.01861572265625,0.69293212890625,-42.6875,-27.75,30.5,9.79,0.2,-0.36,moving,1
7.11,608008.781034585,22,1,1,0,0,12.93,0.62,0.48,3.13,0.39,0.77,-6.0625,43.125,-12.625,0.033447265625,0.7174072265625,-0.01806640625,0.69561767578125,-42.6875,-27.75,30.5,9.79,0.22,-0.29,moving,1
7.12,608008.781034585,22,1,1,0,0,11.27,0.45,0.21,1.47,0.21,0.41,-8.0625,50.4375,-13.6875,0.034912109375,0.71435546875,-0.01751708984375,0.69873046875,-42.6875,-27.75,30.5,9.8,0.24,-0.2,moving,1
7.13,608008.795396361,22,1,1,0,0,9.76,0.23,0.38,-0.03,-0.03,0.49,-10.375,58.125,-15.0625,0.03656005859375,0.71075439453125,-0.01702880859375,0.7022705078125,-40.1875,-28.5,31.6875,9.8,0.27,-0.1,moving,1
7.14,608008.795396361,22,1,1,0,0,8.35,0.41,0.32,-1.44,0.11,0.31,-14.5,68.9375,-13.5625,0.03839111328125,0.70654296875,-0.016845703125,0.70648193359375,-40.1875,-28.5,31.6875,9.8,0.29,0.01,moving,1
7.15,608008.826020059,22,1,1,0,0,5.99,0.56,0.58,-3.81,0.24,0.47,-29.375,61.75,-8.375,0.04083251953125,0.70263671875,-0.0179443359375,0.710205078125,-40.1875,-28.5,31.6875,9.8,0.31,0.11,moving,1
7.16,608008.826020059,22,1,1,0,0,5.01,0.13,0.0,-4.78,-0.17,-0.21,-50.1875,52.9375,-1.5,0.0440673828125,0.69915771484375,-0.020751953125,0.71331787109375,-40.1875,-28.5,31.6875,9.79,0.31,0.21,moving,1
7.17,608008.840510863,22,1,1,0,0,4.28,-0.49,0.18,-5.51,-0.8,-0.12,-60.25,52.3125,2.6875,0.04766845703125,0.69561767578125,-0.02447509765625,0.71636962890625,-40.1875,-28.5,31.6875,9.79,0.3,0.3,moving,1
7.18,608008.840510863,22,1,1,0,0,3.44,-0.71,0.71,-6.35,-1.01,0.34,-50.9375,35.5625,2.8125,0.0506591796875,0.69317626953125,-0.0277099609375,0.71844482421875,-41.875,-29.1875,31.0,9.79,0.29,0.36,moving,1
7.19,608008.856885863,22,1,1,0,0,3.28,-0.47,0.49,-6.5,-0.77,0.1,-30.6875,15.9375,0.5625,0.052490234375,0.6920166015625,-0.02960205078125,0.7193603515625,-41.875,-29.1875,31.0,9.79,0.29,0.39,moving,1
7.2,608008.856885863,22,1,1,0,0,3.2,-0.4,0.34,-6.58,-0.7,-0.07,-6.625,15.625,-3.25,0.05316162109375,0.6910400390625,-0.02972412109375,0.72027587890625,-41.875,-29.1875,31.0,9.79,0.3,0.42,moving,1
7.21,608008.88575187,22,1,1,0,0,2.95,-0.55,0.07,-6.83,-0.86,-0.38,13.5,18.25,-9.4375,0.052978515625,0.69000244140625,-0.0281982421875,0.7213134765625,-41.875,-29.1875,31.0,9.79,0.31,0.45,moving,1
7.22,608008.88575187,22,1,1,0,0,3.09,-0.36,0.08,-6.69,-0.7,-0.4,30.625,17.1875,-13.25,0.052001953125,0.6890869140625,-0.025390625,0.722412109375,-41.875,-29.1875,31.0,9.78,0.34,0.48,moving,1
7.23,608008.900988321,22,1,1,0,0,3.28,0.03,0.21,-6.49,-0.33,-0.28,43.25,14.875,-14.0625,0.05035400390625,0.6883544921875,-0.02178955078125,0.72332763671875,-42.5625,-29.875,28.6875,9.78,0.37,0.5,moving,1
7.24,608008.900988321,22,1,1,0,0,3.73,0.17,0.43,-6.05,-0.22,-0.07,42.1875,6.75,-12.5625,0.04864501953125,0.6881103515625,-0.018310546875,0.7237548828125,-42.5625,-29.875,28.6875,9.78,0.39,0.51,moving,1
7.25,608008.916155435,22,1,1,0,0,4.46,0.34,0.45,-5.31,-0.06,-0.04,24.5,-9.125,-6.1875,0.04754638671875,0.68878173828125,-0.01641845703125,0.72320556640625,-42.5625,-29.875,28.6875,9.78,0.4,0.49,moving,1
7.26,608008.916155435,22,1,1,0,0,4.46,0.34,0.45,-5.31,-0.06,-0.04,24.5,-9.125,-6.1875,0.04754638671875,0.68878173828125,-0.01641845703125,0.72320556640625,-42.5625,-29.875,28.6875,9.78,0.4,0.49,moving,1
7.26,608008.929826944,22,1,1,0,0,7.12,-0.02,0.19,-2.66,-0.43,-0.25,0.0625,-26.25,2.625,0.04730224609375,0.69049072265625,-0.0167236328125,0.72161865234375,-42.5625,-29.875,28.6875,9.78,0.4,0.45,moving,1
7.27,608008.929826944,22,1,1,0,0,9.07,-0.13,-0.25,-0.71,-0.52,-0.64,-15.25,-38.125,10.8125,0.0474853515625,0.69281005859375,-0.01849365234375,0.7193603515625,-42.5625,-29.875,28.6875,9.79,0.38,0.38,moving,1
7.28,608008.945773721,22,1,1,0,0,11.61,-0.06,-0.78,1.81,-0.41,-1.08,-18.5,-52.125,17.5625,0.04742431640625,0.6959228515625,-0.02093505859375,0.71624755859375,-43.375,-28.5,30.1875,9.79,0.35,0.29,moving,1
7.29,608008.945773721,22,1,1,0,0,17.79,0.53,-0.26,7.99,0.22,-0.44,-20.25,-68.8125,24.1875,0.0469970703125,0.7000732421875,-0.02392578125,0.71209716796875,-43.375,-28.5,30.1875,9.8,0.31,0.18,moving,1
7.3,608008.977149942,22,1,1,0,0,19.58,-0.34,4.05,9.78,-0.6,4.01,-32.625,-81.0625,29.625,0.0469970703125,0.70489501953125,-0.02813720703125,0.7071533203125,-43.375,-28.5,30.1875,9.8,0.25,0.04,moving,1
7.31,608008.977149942,22,1,1,0,0,19.15,0.27,4.41,9.35,0.05,4.45,-36.1875,-47.8125,23.625,0.04766845703125,0.7076416015625,-0.031982421875,0.7042236328125,-43.375,-28.5,30.1875,9.8,0.21,-0.03,moving,1
7.32,608008.990683999,22,1,1,0,0,19.07,1.47,-1.18,9.26,1.26,-1.13,31.875,-10.875,3.125,0.04547119140625,0.70843505859375,-0.0302734375,0.70367431640625,-43.375,-28.5,30.1875,9.8,0.21,-0.05,moving,1
7.33,608008.990683999,22,1,1,0,0,18.17,0.61,-1.76,8.37,0.36,-1.63,81.6875,-40.0625,-22.75,0.04168701171875,0.71124267578125,-0.0240478515625,0.7012939453125,-42.1875,-29.875,30.5,9.8,0.25,-0.12,moving,1
7.34,608009.005000324,22,1,1,0,0,18.21,-0.77,-1.43,8.41,-1.05,-1.28,36.8125,-8.375,-18.5625,0.04052734375,0.7119140625,-0.0206298828125,0.70074462890625,-42.1875,-29.875,30.5,9.8,0.28,-0.14,moving,1
7.35,608009.005000324,22,1,1,0,0,17.85,0.19,-0.7,8.05,-0.09,-0.59,4.5625,17.1875,-7.1875,0.04071044921875,0.71087646484375,-0.01983642578125,0.70184326171875,-42.1875,-29.875,30.5,9.8,0.29,-0.11,moving,1
7.36,608009.036522094,22,1,1,0,0,14.95,0.26,0.55,5.15,-0.04,0.59,2.1875,40.875,-8.4375,0.0411376953125,0.70843505859375,-0.01904296875,0.704345703125,-42.1875,-29.875,30.5,9.8,0.3,-0.04,moving,1
7.37,608009.036522094,22,1,1,0,0,13.66,0.31,0.47,3.86,0.0,0.42,-3.0,53.8125,-8.3125,0.04193115234375,0.705078125,-0.0185546875,0.7076416015625,-42.1875,-29.875,30.5,9.8,0.32,0.04,moving,1
7.38,608009.049964192,22,1,1,0,0,12.32,0.34,0.68,2.52,0.01,0.54,-14.5625,54.75,-5.125,0.04327392578125,0.70166015625,-0.0189208984375,0.7109375,-40.375,-27.75,32.0625,9.8,0.33,0.14,moving,1
7.39,608009.049964192,22,1,1,0,0,10.86,0.86,0.69,1.06,0.53,0.43,-33.5,63.875,1.0625,0.04534912109375,0.69757080078125,-0.02081298828125,0.71478271484375,-40.375,-27.75,32.0625,9.79,0.32,0.25,moving,1
7.4,608009.065596882,22,1,1,0,0,7.79,0.16,1.5,-2.0,-0.15,1.14,-48.3125,64.4375,4.9375,0.048095703125,0.69329833984375,-0.02386474609375,0.7186279296875,-40.375,-27.75,32.0625,9.79,0.31,0.36,moving,1
7.41,608009.065596882,22,1,1,0,0,5.03,-0.28,-0.16,-4.75,-0.59,-0.64,-46.9375,65.9375,2.75,0.0509033203125,0.68896484375,-0.0267333984375,0.7225341796875,-40.375,-27.75,32.0625,9.78,0.3,0.48,moving,1
7.42,608009.09800065,22,1,1,0,0,4.62,-0.16,1.35,-5.16,-0.47,0.83,-26.9375,26.125,-1.5625,0.05267333984375,0.68719482421875,-0.0281982421875,0.7239990234375,-40.375,-27.75,32.0625,9.78,0.3,0.52,moving,1
7.43,608009.09800065,22,1,1,0,0,3.78,0.28,-0.36,-6.0,-0.02,-0.87,-16.1875,-12.75,0.3125,0.0535888671875,0.68792724609375,-0.029296875,0.72320556640625,-42.5625,-29.5625,29.75,9.78,0.3,0.5,moving,1
7.44,608009.110422321,22,1,1,0,0,3.13,-0.03,-0.2,-6.65,-0.34,-0.66,-9.5625,-31.625,-2.5,0.05426025390625,0.68988037109375,-0.0299072265625,0.72125244140625,-42.5625,-29.5625,29.75,9.79,0.31,0.45,moving,1
7.45,608009.110422321,22,1,1,0,0,2.69,-0.45,0.11,-7.09,-0.78,-0.35,0.0,3.5625,-7.0,0.0546875,0.68963623046875,-0.02947998046875,0.721435546875,-42.5625,-29.5625,29.75,9.79,0.32,0.46,moving,1
7.46,608009.125294921,22,1,1,0,0,2.87,-0.15,0.58,-6.91,-0.5,0.09,20.0625,17.0,-13.8125,0.05438232421875,0.688720703125,-0.02728271484375,0.72247314453125,-42.5625,-29.5625,29.75,9.78,0.34,0.48,moving,1
7.47,608009.125294921,22,1,1,0,0,2.6,0.25,1.11,-7.18,-0.12,0.59,34.75,21.125,-19.25,0.0535888671875,0.68756103515625,-0.02386474609375,0.7237548828125,-42.5625,-29.5625,29.75,9.78,0.38,0.52,moving,1
7.48,608009.156343139,22,1,1,0,0,2.42,0.26,0.62,-7.35,-0.16,0.09,38.875,4.6875,-21.8125,0.0526123046875,0.6875,-0.02008056640625,0.7239990234375,-43.6875,-29.875,29.0,9.78,0.42,0.52,moving,1
7.49,608009.156343139,22,1,1,0,0,2.44,0.2,0.85,-7.33,-0.25,0.31,32.4375,4.4375,-19.6875,0.05194091796875,0.6873779296875,-0.01678466796875,0.7242431640625,-43.6875,-29.875,29.0,9.78,0.46,0.53,moving,1
7.5,608009.170053262,22,1,1,0,0,2.33,0.11,0.73,-7.44,-0.38,0.18,26.9375,6.6875,-18.6875,0.051513671875,0.6871337890625,-0.01397705078125,0.724609375,-43.6875,-29.875,29.0,9.77,0.49,0.54,stop,1
7.51,608009.170053262,22,1,1,0,0,3.06,0.31,0.82,-6.7,-0.21,0.26,30.625,13.5,-18.625,0.05084228515625,0.6864013671875,-0.0108642578125,0.725341796875,-43.6875,-29.875,29.0,9.77,0.53,0.56,stop,1
7.52,608009.185085407,22,1,1,0,0,3.05,0.26,0.1,-6.71,-0.29,-0.49,34.1875,21.5625,-16.875,0.0499267578125,0.6851806640625,-0.007568359375,0.72662353515625,-43.6875,-29.875,29.0,9.77,0.56,0.59,stop,1
7.53,608009.185085407,22,1,1,0,0,3.87,0.1,-0.47,-5.89,-0.49,-1.09,33.9375,15.375,-15.625,0.04888916015625,0.68438720703125,-0.00439453125,0.72747802734375,-43.0,-28.5,29.0,9.76,0.59,0.61,stop,1
7.54,608009.200204589,22,1,1,0,0,3.87,0.1,-0.47,-5.89,-0.49,-1.09,33.9375,15.375,-15.625,0.04888916015625,0.68438720703125,-0.00439453125,0.72747802734375,-43.0,-28.5,29.0,9.76,0.59,0.61,stop,1
7.54,608009.200204589,22,1,1,0,0,7.37,-0.12,-1.62,-2.39,-0.74,-2.21,27.1875,-14.625,-8.9375,0.04779052734375,0.6854248046875,-0.002197265625,0.7265625,-43.0,-28.5,29.0,9.76,0.61,0.59,stop,1
7.55,608009.215917195,22,1,1,0,0,10.52,0.13,-2.04,0.74,-0.47,-2.56,14.875,-43.625,1.875,0.04681396484375,0.688232421875,-0.0015869140625,0.7239990234375,-43.0,-28.5,29.0,9.77,0.6,0.51,stop,1
7.56,608009.215917195,22,1,1,0,0,14.08,0.51,-2.58,4.3,-0.07,-2.98,-2.3125,-66.875,14.0,0.0460205078125,0.69244384765625,-0.00286865234375,0.719970703125,-43.0,-28.5,29.0,9.78,0.58,0.4,stop,1
7.57,608009.247178466,22,1,1,0,0,17.64,0.56,-2.76,7.85,0.03,-3.02,-30.125,-88.75,28.6875,0.0460205078125,0.6978759765625,-0.0068359375,0.7147216796875,-43.0,-28.5,29.0,9.78,0.53,0.25,stop,1
7.58,608009.247178466,22,1,1,0,0,21.81,-0.59,4.89,12.02,-1.05,4.81,-70.25,-105.5625,41.9375,0.047607421875,0.7041015625,-0.01416015625,0.7083740234375,-43.0,-27.75,29.75,9.79,0.46,0.07,stop,1
7.59,608009.261290648,22,1,1,0,0,22.58,0.03,1.97,12.78,-0.36,2.02,-77.75,-80.1875,36.625,0.050048828125,0.7086181640625,-0.0216064453125,0.7034912109375,-43.0,-27.75,29.75,9.79,0.39,-0.05,stop,1
7.6,608009.261290648,22,1,1,0,0,24.04,1.97,-1.93,14.24,1.59,-1.79,25.125,-52.0625,14.125,0.0474853515625,0.7119140625,-0.0211181640625,0.7003173828125,-43.0,-27.75,29.75,9.79,0.37,-0.14,stop,1
7.61,608009.276886555,22,1,1,0,0,22.79,3.04,-0.98,12.99,2.65,-0.69,103.625,-85.875,-12.4375,0.04168701171875,0.71759033203125,-0.014404296875,0.695068359375,-43.0,-27.75,29.75,9.79,0.39,-0.29,stop,1
7.62,608009.276886555,22,1,1,0,0,15.97,2.81,3.77,6.18,2.4,4.14,56.4375,-42.125,-11.1875,0.03875732421875,0.7203369140625,-0.01043701171875,0.6925048828125,-43.0,-27.75,29.75,9.79,0.4,-0.37,stop,1
7.63,608009.306870238,22,1,1,0,0,13.79,3.28,3.23,4.0,2.85,3.54,4.125,38.25,-13.75,0.03936767578125,0.718017578125,-0.0091552734375,0.69482421875,-41.5,-29.1875,30.5625,9.79,0.42,-0.3,stop,1
7.64,608009.306870238,22,1,1,0,0,10.4,1.04,0.55,0.61,0.57,0.71,-10.375,83.375,-26.0,0.0416259765625,0.71295166015625,-0.00787353515625,0.699951171875,-41.5,-29.1875,30.5625,9.79,0.47,-0.16,stop,1
7.65,608009.321081623,22,1,1,0,0,8.95,1.31,0.37,-0.83,0.8,0.45,10.6875,48.75,-22.0,0.0423583984375,0.71002197265625,-0.00567626953125,0.702880859375,-41.5,-29.1875,30.5625,9.79,0.51,-0.08,stop,1
7.66,608009.321081623,22,1,1,0,0,6.88,1.39,0.21,-2.9,0.85,0.15,9.9375,79.4375,-18.875,0.04296875,0.70513916015625,-0.00360107421875,0.707763671875,-41.5,-29.1875,30.5625,9.79,0.54,0.05,stop,1
7.67,608009.335214151,22,1,1,0,0,5.06,1.28,0.12,-4.72,0.7,-0.11,2.4375,110.25,-21.875,0.044189453125,0.69830322265625,-0.001708984375,0.71441650390625,-41.5,-29.1875,30.5625,9.78,0.58,0.24,stop,1
7.68,608009.335214151,22,1,1,0,0,3.93,1.2,-1.23,-5.84,0.58,-1.68,-2.875,120.4375,-19.5625,0.04559326171875,0.69073486328125,-0.00018310546875,0.7216796875,-40.0625,-27.0625,32.5,9.77,0.61,0.44,stop,1
7.69,608009.366572468,22,1,1,0,0,5.07,0.65,0.72,-4.69,0.02,0.09,-7.4375,110.1875,-9.25,0.046630859375,0.68377685546875,0.00030517578125,0.72821044921875,-40.0625,-27.0625,32.5,9.76,0.63,0.63,stop,1
7.7,608009.366572468,22,1,1,0,0,2.13,-0.4,-4.17,-7.61,-1.02,-4.99,-29.625,107.8125,3.125,0.0482177734375,0.6767578125,-0.00128173828125,0.734619140625,-40.0625,-27.0625,32.5,9.75,0.62,0.82,stop,1
7.71,608009.38134973,22,1,1,0,0,3.79,-0.33,-0.11,-5.95,-0.93,-1.0,-11.25,36.5,11.25,0.04815673828125,0.67431640625,-0.0025634765625,0.73681640625,-40.0625,-27.0625,32.5,9.74,0.6,0.88,stop,1
7.72,608009.38134973,22,1,1,0,0,7.24,0.53,0.53,-2.51,-0.06,-0.27,27.5625,-45.875,2.5625,0.04638671875,0.67742919921875,-0.0010986328125,0.734130859375,-40.0625,-27.0625,32.5,9.75,0.6,0.8,stop,1
7.73,608009.396357828,22,1,1,0,0,8.66,2.08,1.01,-1.1,1.47,0.42,53.375,-119.625,-0.4375,0.043212890625,0.68524169921875,0.0018310546875,0.72705078125,-43.0,-28.1875,28.6875,9.76,0.6,0.59,stop,1
7.74,608009.396357828,22,1,1,0,0,8.49,2.13,-0.9,-1.27,1.54,-1.41,1.5625,-56.375,7.9375,0.0426025390625,0.68878173828125,0.001220703125,0.72369384765625,-43.0,-28.1875,28.6875,9.77,0.59,0.5,stop,1
7.75,608009.426861286,22,1,1,0,0,8.65,0.48,0.03,-1.12,-0.08,-0.43,-41.1875,-22.3125,7.3125,0.04461669921875,0.6900634765625,-0.00189208984375,0.72235107421875,-43.0,-28.1875,28.6875,9.77,0.57,0.46,stop,1
7.76,608009.426861286,22,1,1,0,0,10.46,0.49,0.23,0.68,-0.06,-0.2,-48.25,-17.4375,10.6875,0.046875,0.69097900390625,-0.005615234375,0.72137451171875,-43.0,-28.1875,28.6875,9.78,0.55,0.44,stop,1
7.77,608009.443257445,22,1,1,0,0,11.15,0.72,-0.35,1.36,0.19,-0.7,-26.8125,-59.5625,12.3125,0.04766845703125,0.694580078125,-0.00830078125,0.7177734375,-43.0,-28.1875,28.6875,9.78,0.53,0.34,stop,1
7.78,608009.443257445,22,1,1,0,0,12.38,0.91,1.86,2.59,0.4,1.61,-15.75,-57.3125,11.0,0.04791259765625,0.6981201171875,-0.01019287109375,0.71435546875,-42.5625,-28.1875,30.1875,9.79,0.51,0.24,stop,1
7.79,608009.471399047,22,1,1,0,0,12.75,0.5,1.03,2.95,0.0,0.86,-18.375,-44.5,9.8125,0.04840087890625,0.70074462890625,-0.0120849609375,0.71160888671875,-42.5625,-28.1875,30.1875,9.79,0.49,0.17,stop,1
7.8,608009.471399047,22,1,1,0,0,12.75,0.5,1.03,2.95,0.0,0.86,-18.375,-44.5,9.8125,0.04840087890625,0.70074462890625,-0.0120849609375,0.71160888671875,-42.5625,-28.1875,30.1875,9.79,0.49,0.17,stop,1
7.8,608009.476552611,22,1,1,0,0,13.09,0.22,-0.14,3.29,-0.26,-0.22,-10.5,-52.5,5.4375,0.04864501953125,0.7039794921875,-0.0133056640625,0.70843505859375,-42.5625,-28.1875,30.1875,9.79,0.48,0.08,stop,1
7.81,608009.476552611,22,1,1,0,0,12.62,0.44,-0.58,2.82,-0.04,-0.57,2.3125,-58.5,1.75,0.04833984375,0.70758056640625,-0.0135498046875,0.704833984375,-42.5625,-28.1875,30.1875,9.79,0.48,-0.01,stop,1
7.82,608009.486359822,22,1,1,0,0,13.46,1.35,1.66,3.67,0.87,1.78,12.8125,-59.4375,-2.875,0.04766845703125,0.7113037109375,-0.0128173828125,0.701171875,-42.5625,-28.1875,30.1875,9.79,0.48,-0.11,stop,1
7.83,608009.486359822,22,1,1,0,0,11.02,0.42,1.13,1.22,-0.07,1.26,-1.1875,-3.3125,-4.375,0.0479736328125,0.71148681640625,-0.01263427734375,0.700927734375,-42.1875,-29.1875,30.5,9.79,0.49,-0.12,stop,1
7.84,608009.515256509,22,1,1,0,0,10.66,0.83,1.0,0.87,0.33,1.07,-1.6875,29.5625,-5.9375,0.04852294921875,0.70965576171875,-0.01220703125,0.7027587890625,-42.1875,-29.1875,30.5,9.79,0.5,-0.07,stop,1
7.85,608009.515256509,22,1,1,0,0,9.69,0.65,0.54,-0.1,0.13,0.54,4.75,42.0,-7.875,0.04876708984375,0.70709228515625,-0.01123046875,0.705322265625,-42.1875,-29.1875,30.5,9.79,0.52,0.0,stop,1
7.86,608009.529900308,22,1,1,0,0,9.19,0.51,0.34,-0.59,-0.02,0.27,7.8125,43.625,-8.0,0.048828125,0.7044677734375,-0.01007080078125,0.7080078125,-42.1875,-29.1875,30.5,9.79,0.53,0.07,stop,1
7.87,608009.529900308,22,1,1,0,0,8.23,0.85,-0.29,-1.55,0.31,-0.43,9.5,40.6875,-6.6875,0.04864501953125,0.70196533203125,-0.0089111328125,0.71044921875,-42.1875,-29.1875,30.5,9.79,0.54,0.13,stop,1
7.88,608009.546888264,22,1,1,0,0,8.08,0.93,-0.34,-1.7,0.38,-0.54,5.125,30.0625,-4.125,0.04864501953125,0.70013427734375,-0.0081787109375,0.7122802734375,-40.375,-29.5625,31.25,9.78,0.55,0.19,stop,1
7.89,608009.546888264,22,1,1,0,0,7.76,0.73,-0.29,-2.02,0.17,-0.51,0.5,21.5625,-0.5,0.04864501953125,0.69879150390625,-0.00811767578125,0.713623046875,-40.375,-29.5625,31.25,9.78,0.55,0.22,stop,1
7.9,608009.576660359,22,1,1,0,0,8.01,0.45,0.0,-1.77,-0.09,-0.25,1.8125,15.9375,0.0,0.048583984375,0.69781494140625,-0.0079345703125,0.714599609375,-40.375,-29.5625,31.25,9.78,0.55,0.25,stop,1
7.91,608009.576660359,23,1,1,0,0,8.14,0.26,-0.22,-1.64,-0.29,-0.49,4.5625,7.625,0.25,0.04827880859375,0.69732666015625,-0.007568359375,0.715087890625,-40.375,-29.5625,31.25,9.78,0.55,0.26,stop,1
7.92,608009.60705135,23,1,1,0,0,8.43,0.21,-0.52,-1.35,-0.33,-0.77,6.125,-7.625,0.6875,0.0478515625,0.6978759765625,-0.00726318359375,0.714599609375,-40.375,-29.5625,31.25,9.78,0.55,0.25,stop,1
7.93,608009.60705135,23,1,1,0,0,8.93,0.17,-0.6,-0.84,-0.37,-0.82,2.75,-20.5,3.125,0.0474853515625,0.69915771484375,-0.00738525390625,0.71337890625,-41.1875,-29.875,30.1875,9.78,0.54,0.21,stop,1
7.94,608009.629079019,23,1,1,0,0,9.93,0.25,0.02,0.14,-0.27,-0.14,-1.9375,-27.625,5.75,0.0472412109375,0.70086669921875,-0.00799560546875,0.71173095703125,-41.1875,-29.875,30.1875,9.79,0.53,0.17,stop,1
7.95,608009.629079019,23,1,1,0,0,10.28,0.35,0.44,0.48,-0.16,0.32,-0.5,-29.5625,6.5,0.04681396484375,0.70269775390625,-0.00848388671875,0.70989990234375,-41.1875,-29.875,30.1875,9.79,0.52,0.12,stop,1
7.96,608009.635653035,23,1,1,0,0,10.43,0.55,0.54,0.64,0.03,0.47,5.75,-28.875,5.1875,0.046142578125,0.7044677734375,-0.008544921875,0.70819091796875,-41.1875,-29.875,30.1875,9.79,0.51,0.07,stop,1
7.97,608009.635653035,23,1,1,0,0,10.25,0.85,-0.25,0.45,0.33,-0.28,11.125,-24.625,3.5625,0.04522705078125,0.7060546875,-0.0081787109375,0.7066650390625,-41.1875,-29.875,30.1875,9.79,0.51,0.02,stop,1
7.98,608009.666260701,23,1,1,0,0,10.31,0.8,-0.66,0.52,0.3,-0.65,12.0625,-22.4375,2.75,0.04425048828125,0.70745849609375,-0.0076904296875,0.705322265625,-41.1875,-28.5,31.0,9.79,0.5,-0.01,stop,1
7.99,608009.666260701,23,1,1,0,0,10.02,0.83,-0.38,0.22,0.33,-0.33,10.875,-19.8125,3.1875,0.04339599609375,0.708740234375,-0.00732421875,0.7041015625,-41.1875,-28.5,31.0,9.79,0.5,-0.04,stop,1
8.0,608009.673287353,23,1,1,0,0,10.82,1.53,0.78,1.03,1.03,0.86,9.25,-19.1875,3.125,0.0426025390625,0.7099609375,-0.00701904296875,0.70294189453125,-41.1875,-28.5,31.0,9.79,0.49,-0.07,stop,1
8.01,608009.673287353,23,1,1,0,0,10.22,0.78,0.51,0.42,0.28,0.58,8.8125,4.875,-0.1875,0.04205322265625,0.70965576171875,-0.00640869140625,0.7032470703125,-41.1875,-28.5,31.0,9.79,0.49,-0.07,stop,1
8.02,608009.696295247,23,1,1,0,0,9.92,0.8,0.08,0.12,0.29,0.12,15.8125,15.625,-4.6875,0.0413818359375,0.708740234375,-0.005126953125,0.7042236328125,-41.1875,-28.5,31.0,9.79,0.5,-0.04,stop,1
8.03,608009.696295247,23,1,1,0,0,9.45,0.5,-0.15,-0.33,0.0,-0.14,15.9375,23.4375,-6.1875,0.04083251953125,0.7073974609375,-0.003662109375,0.70562744140625,-41.1875,-27.0625,31.6875,9.79,0.51,0.0,stop,1
8.04,608009.710626423,23,1,1,0,0,9.39,0.34,-0.35,-0.39,-0.17,-0.37,10.125,13.5625,-4.0,0.04046630859375,0.70660400390625,-0.00274658203125,0.70648193359375,-41.1875,-27.0625,31.6875,9.79,0.52,0.01,stop,1
8.05,608009.710626423,23,1,1,0,0,9.29,0.07,-0.01,-0.49,-0.45,-0.05,-0.875,9.6875,0.0,0.04052734375,0.70599365234375,-0.00274658203125,0.70709228515625,-41.1875,-27.0625,31.6875,9.79,0.52,0.03,stop,1
8.06,608009.7407937,23,1,1,0,0,9.51,0.2,0.26,-0.27,-0.31,0.22,-7.9375,7.1875,3.0,0.04083251953125,0.70550537109375,-0.00335693359375,0.70751953125,-41.1875,-27.0625,31.6875,9.79,0.51,0.04,stop,1
8.07,608009.7407937,23,1,1,0,0,9.51,0.2,0.26,-0.27,-0.31,0.22,-7.9375,7.1875,3.0,0.04083251953125,0.70550537109375,-0.00335693359375,0.70751953125,-41.1875,-27.0625,31.6875,9.79,0.51,0.04,stop,1
8.07,608009.745785074,23,1,1,0,0,9.42,0.23,0.52,-0.36,-0.27,0.46,-5.9375,6.4375,4.375,0.0408935546875,0.705078125,-0.0040283203125,0.70794677734375,-41.1875,-27.0625,31.6875,9.79,0.51,0.05,stop,1
8.08,608009.745785074,23,1,1,0,0,9.38,0.52,0.35,-0.4,0.02,0.29,-1.8125,6.8125,3.875,0.040771484375,0.70465087890625,-0.00433349609375,0.7083740234375,-40.5,-27.0625,31.0,9.79,0.5,0.06,stop,1
8.09,608009.756380859,23,1,1,0,0,9.35,0.53,0.06,-0.43,0.03,-0.01,-2.1875,3.0625,4.3125,0.0406494140625,0.7044677734375,-0.00469970703125,0.70855712890625,-40.5,-27.0625,31.0,9.79,0.49,0.07,stop,1
8.1,608009.756380859,23,1,1,0,0,9.37,0.52,-0.15,-0.41,0.03,-0.21,-4.4375,-5.3125,5.4375,0.04058837890625,0.70477294921875,-0.00531005859375,0.708251953125,-40.5,-27.0625,31.0,9.79,0.48,0.06,stop,1
8.11,608009.788142903,23,1,1,0,0,9.42,0.42,-0.1,-0.36,-0.05,-0.15,-7.1875,-8.3125,6.4375,0.0406494140625,0.70526123046875,-0.0062255859375,0.707763671875,-40.5,-27.0625,31.0,9.79,0.47,0.05,stop,1
8.12,608009.788142903,23,1,1,0,0,9.74,0.48,0.25,-0.04,0.01,0.22,-4.9375,-9.3125,6.0,0.04058837890625,0.705810546875,-0.00689697265625,0.70721435546875,-40.5,-27.0625,31.0,9.79,0.46,0.03,stop,1
8.13,608009.801549967,23,1,1,0,0,9.83,0.47,-0.03,0.03,0.01,-0.05,0.5625,-10.25,4.6875,0.04022216796875,0.7064208984375,-0.0072021484375,0.70660400390625,-41.5,-28.5,31.25,9.79,0.45,0.01,stop,1
8.14,608009.801549967,23,1,1,0,0,10.02,0.48,0.45,0.23,0.03,0.46,4.375,-13.3125,3.25,0.03973388671875,0.707275390625,-0.0072021484375,0.705810546875,-41.5,-28.5,31.25,9.79,0.45,0.0,stop,1
8.15,608009.815924885,23,1,1,0,0,9.89,-0.06,0.17,0.1,-0.5,0.19,-2.1875,-10.0,4.3125,0.03961181640625,0.7078857421875,-0.00762939453125,0.7052001953125,-41.5,-28.5,31.25,9.79,0.44,-0.02,stop,1
8.16,608009.815924885,23,1,1,0,0,10.05,0.37,0.6,0.25,-0.06,0.62,-2.4375,2.375,2.6875,0.03961181640625,0.70770263671875,-0.0079345703125,0.705322265625,-41.5,-28.5,31.25,9.79,0.44,-0.01,stop,1
8.17,608009.845973835,23,1,1,0,0,10.39,0.84,0.93,0.59,0.4,0.95,5.0625,0.1875,2.625,0.03912353515625,0.70770263671875,-0.00775146484375,0.70538330078125,-41.5,-28.5,31.25,9.79,0.43,-0.01,stop,1
8.18,608009.845973835,23,1,1,0,0,9.49,0.07,0.17,-0.3,-0.35,0.16,1.1875,15.5625,0.875,0.03900146484375,0.706787109375,-0.0076904296875,0.70635986328125,-41.5,-30.25,32.5,9.79,0.43,0.0,stop,1
8.19,608009.862259928,23,1,1,0,0,9.63,0.65,0.0,-0.15,0.21,-0.04,5.5,13.4375,0.375,0.0386962890625,0.7059326171875,-0.00732421875,0.7071533203125,-41.5,-30.25,32.5,9.79,0.43,0.03,stop,1
8.2,608009.862259928,23,1,1,0,0,9.51,0.45,-0.04,-0.28,0.01,-0.09,3.125,6.875,2.0625,0.03839111328125,0.70550537109375,-0.0072021484375,0.70758056640625,-41.5,-30.25,32.5,9.79,0.43,0.04,stop,1
8.21,608009.893744303,23,1,1,0,0,9.58,0.51,-0.02,-0.21,0.08,-0.08,-1.375,7.625,2.6875,0.038330078125,0.705078125,-0.0074462890625,0.70806884765625,-41.5,-30.25,32.5,9.79,0.42,0.05,stop,1
8.22,608009.893744303,23,1,1,0,0,9.72,0.45,0.21,-0.07,0.03,0.15,-1.5625,4.8125,3.25,0.0382080078125,0.7047119140625,-0.0076904296875,0.7083740234375,-41.5,-30.25,32.5,9.79,0.42,0.06,stop,1
8.23,608009.905819539,23,1,1,0,0,9.73,0.4,0.22,-0.06,-0.01,0.16,-0.625,1.375,3.0,0.0380859375,0.70465087890625,-0.0079345703125,0.70849609375,-41.875,-29.5625,31.25,9.79,0.41,0.06,stop,1
8.24,608009.905819539,23,1,1,0,0,9.63,0.29,0.12,-0.16,-0.12,0.05,0.0,3.8125,2.0625,0.0379638671875,0.70440673828125,-0.008056640625,0.708740234375,-41.875,-29.5625,31.25,9.79,0.41,0.07,stop,1
8.25,608009.920433267,23,1,1,0,0,9.73,0.28,0.1,-0.06,-0.05,-0.02,-1.0,1.1875,2.0625,0.03546142578125,0.70233154296875,-0.0107421875,0.71087646484375,-41.875,-29.5625,31.25,9.79,0.33,0.13,stop,1
8.26,608009.920433267,23,1,1,0,0,9.74,0.21,0.34,-0.05,-0.12,0.22,-4.25,-2.875,2.75,0.0355224609375,0.70245361328125,-0.01123046875,0.71075439453125,-41.875,-29.5625,31.25,9.8,0.33,0.12,stop,1
8.27,608009.935453857,23,1,1,0,0,9.72,0.23,0.47,-0.07,-0.09,0.35,-5.5625,-3.4375,3.1875,0.03564453125,0.70257568359375,-0.01177978515625,0.7105712890625,-41.875,-29.5625,31.25,9.8,0.32,0.12,stop,1
8.28,608009.935453857,23,1,1,0,0,9.71,0.3,0.51,-0.08,-0.01,0.39,-4.75,-2.875,2.875,0.0357666015625,0.7027587890625,-0.01226806640625,0.71044921875,-42.1875,-28.875,31.0,9.8,0.32,0.11,stop,1
8.29,608009.967283324,23,1,1,0,0,9.71,0.22,-0.27,-0.08,-0.08,-0.38,-2.625,-2.6875,2.375,0.0357666015625,0.70294189453125,-0.0125732421875,0.71026611328125,-42.1875,-28.875,31.0,9.8,0.31,0.11,stop,1
8.3,608009.967283324,23,1,1,0,0,9.92,0.3,-0.09,0.12,-0.01,-0.2,-0.5625,-4.125,2.25,0.03570556640625,0.70318603515625,-0.01275634765625,0.71002197265625,-42.1875,-28.875,31.0,9.8,0.31,0.1,stop,1
8.31,608009.981400878,23,1,1,0,0,10.1,0.36,-0.23,0.3,0.05,-0.32,1.625,-6.875,1.9375,0.03546142578125,0.70361328125,-0.0128173828125,0.7095947265625,-42.1875,-28.875,31.0,9.8,0.31,0.09,stop,1
8.32,608009.981400878,23,1,1,0,0,9.68,0.07,-0.24,-0.11,-0.23,-0.34,1.375,2.4375,1.1875,0.0352783203125,0.70343017578125,-0.01275634765625,0.70977783203125,-42.1875,-28.875,31.0,9.8,0.3,0.09,stop,1
8.33,608009.995653971,23,1,1,0,0,9.99,0.73,0.54,0.19,0.42,0.44,6.125,-0.9375,0.9375,0.03485107421875,0.7034912109375,-0.012451171875,0.709716796875,-41.5,-27.375,30.1875,9.8,0.3,0.09,stop,1
8.34,608009.995653971,23,1,1,0,0,9.6,0.14,0.37,-0.2,-0.15,0.27,1.375,5.6875,1.0,0.03472900390625,0.70318603515625,-0.01239013671875,0.7100830078125,-41.5,-27.375,30.1875,9.8,0.3,0.1,stop,1
8.35,608010.026165771,23,1,1,0,0,9.67,0.25,0.29,-0.12,-0.04,0.17,-3.6875,6.625,1.6875,0.03485107421875,0.7027587890625,-0.01275634765625,0.71051025390625,-41.5,-27.375,30.1875,9.8,0.3,0.11,stop,1
8.36,608010.026165771,23,1,1,0,0,9.57,0.26,0.18,-0.22,-0.03,0.06,-2.0,2.6875,2.1875,0.03485107421875,0.70257568359375,-0.01300048828125,0.71063232421875,-41.5,-27.375,30.1875,9.8,0.29,0.12,stop,1
8.37,608010.041332966,23,1,1,0,0,9.38,0.24,0.17,-0.42,-0.04,0.04,-2.0,3.0,1.8125,0.03485107421875,0.70233154296875,-0.01318359375,0.71087646484375,-41.5,-27.375,30.1875,9.8,0.29,0.12,stop,1
8.38,608010.041332966,23,1,1,0,0,9.39,0.4,0.21,-0.4,0.11,0.08,-0.3125,4.125,1.1875,0.0347900390625,0.70208740234375,-0.01324462890625,0.71112060546875,-41.1875,-29.5625,31.0,9.8,0.29,0.13,stop,1
8.39,608010.057266194,23,1,1,0,0,9.48,0.53,0.09,-0.32,0.23,-0.04,2.4375,0.875,0.6875,0.03460693359375,0.7020263671875,-0.01318359375,0.711181640625,-41.1875,-29.5625,31.0,9.8,0.29,0.13,stop,1
8.4,608010.057266194,23,1,1,0,0,9.39,0.38,-0.19,-0.41,0.09,-0.33,2.5,0.0,0.25,0.034423828125,0.7020263671875,-0.01300048828125,0.711181640625,-41.1875,-29.5625,31.0,9.8,0.29,0.13,stop,1
8.41,608010.086824666,23,1,1,0,0,9.39,0.38,-0.13,-0.4,0.09,-0.26,1.5625,-1.9375,0.1875,0.03436279296875,0.7021484375,-0.01287841796875,0.7110595703125,-41.1875,-29.5625,31.0,9.8,0.29,0.13,stop,1
8.42,608010.086824666,23,1,1,0,0,9.43,0.33,0.08,-0.36,0.04,-0.04,-1.4375,-4.5625,1.0,0.03436279296875,0.70245361328125,-0.0130615234375,0.7108154296875,-41.1875,-29.5625,31.0,9.8,0.29,0.12,stop,1
8.43,608010.100705729,23,1,1,0,0,9.49,0.29,0.27,-0.3,0.0,0.16,-4.0,-5.0625,1.625,0.03448486328125,0.7027587890625,-0.013427734375,0.71044921875,-41.5,-28.875,31.0,9.8,0.28,0.11,stop,1
8.44,608010.100705729,23,1,1,0,0,9.57,0.33,0.22,-0.22,0.04,0.1,-2.6875,-3.6875,1.1875,0.03460693359375,0.70294189453125,-0.013671875,0.71026611328125,-41.5,-28.875,31.0,9.8,0.28,0.11,stop,1
8.45,608010.116799479,23,1,1,0,0,9.59,0.3,0.0,-0.21,0.01,-0.11,0.0,-3.6875,0.375,0.03460693359375,0.70318603515625,-0.013671875,0.71002197265625,-41.5,-28.875,31.0,9.8,0.28,0.1,stop,1
8.46,608010.116799479,23,1,1,0,0,9.58,0.25,-0.09,-0.21,-0.02,-0.18,0.0,-4.0,0.3125,0.03460693359375,0.70343017578125,-0.013671875,0.70977783203125,-41.5,-28.875,31.0,9.8,0.28,0.09,stop,1
8.47,608010.146012166,23,1,1,0,0,9.83,0.18,0.0,0.02,-0.09,-0.08,-1.5,-5.875,1.125,0.03460693359375,0.70379638671875,-0.01385498046875,0.70941162109375,-41.5,-28.875,31.0,9.8,0.28,0.08,stop,1
8.48,608010.146012166,23,1,1,0,0,9.98,0.33,0.1,0.18,0.05,0.02,-0.75,-5.5,1.5625,0.0345458984375,0.70416259765625,-0.0140380859375,0.70904541015625,-41.875,-27.375,31.25,9.8,0.28,0.07,stop,1
8.49,608010.161128661,23,1,1,0,0,10.18,0.56,0.29,0.38,0.28,0.22,2.875,-4.25,1.125,0.0343017578125,0.70440673828125,-0.013916015625,0.70880126953125,-41.875,-27.375,31.25,9.8,0.28,0.07,stop,1
8.5,608010.161128661,23,1,1,0,0,10.18,0.56,0.29,0.38,0.28,0.22,2.875,-4.25,1.125,0.0343017578125,0.70440673828125,-0.013916015625,0.70880126953125,-41.875,-27.375,31.25,9.8,0.28,0.07,stop,1
8.5,608010.191464843,23,1,1,0,0,10.02,0.44,0.1,0.22,0.16,0.02,3.4375,1.5,0.4375,0.03411865234375,0.704345703125,-0.01373291015625,0.70892333984375,-41.875,-27.375,31.25,9.8,0.28,0.07,stop,1
8.51,608010.191464843,23,1,1,0,0,9.96,0.64,0.11,0.16,0.36,0.04,4.0625,3.125,0.0625,0.03387451171875,0.70416259765625,-0.013427734375,0.7091064453125,-41.875,-27.375,31.25,9.8,0.28,0.07,stop,1
8.52,608010.19699414,23,1,1,0,0,9.87,0.46,0.01,0.07,0.18,-0.06,2.3125,2.1875,0.625,0.03369140625,0.70404052734375,-0.01336669921875,0.70928955078125,-41.875,-27.375,31.25,9.8,0.27,0.08,stop,1
8.53,608010.19699414,23,1,1,0,0,9.82,0.4,0.04,0.01,0.12,-0.03,-1.25,3.0,1.25,0.03369140625,0.70379638671875,-0.01348876953125,0.70947265625,-41.5,-28.875,31.6875,9.8,0.27,0.08,stop,1
8.54,608010.206049479,23,1,1,0,0,9.77,0.41,0.08,-0.02,0.13,-0.01,-0.4375,2.625,0.9375,0.03363037109375,0.70367431640625,-0.01348876953125,0.7095947265625,-41.5,-28.875,31.6875,9.8,0.27,0.09,stop,1
8.55,608010.206049479,23,1,1,0,0,9.64,0.34,0.11,-0.15,0.07,0.01,0.125,2.5,0.5,0.03369140625,0.7034912109375,-0.01348876953125,0.70977783203125,-41.5,-28.875,31.6875,9.8,0.27,0.09,stop,1
8.56,608010.236122965,23,1,1,0,0,9.58,0.33,0.09,-0.22,0.06,0.0,0.75,2.25,0.25,0.03363037109375,0.703369140625,-0.013427734375,0.70989990234375,-41.5,-28.875,31.6875,9.8,0.27,0.1,stop,1
8.57,608010.236122965,23,1,1,0,0,9.53,0.33,0.04,-0.26,0.05,-0.05,0.5625,0.375,0.3125,0.0335693359375,0.703369140625,-0.01336669921875,0.70989990234375,-41.5,-28.875,31.6875,9.8,0.27,0.1,stop,1
8.58,608010.250763549,23,1,1,0,0,9.5,0.3,0.05,-0.3,0.02,-0.04,-0.5625,-0.4375,0.625,0.0335693359375,0.703369140625,-0.01348876953125,0.70989990234375,-41.5,-26.6875,31.25,9.8,0.27,0.1,stop,1
8.59,608010.250763549,23,1,1,0,0,9.62,0.32,0.06,-0.17,0.05,-0.03,-1.375,-1.375,0.875,0.03363037109375,0.70343017578125,-0.01361083984375,0.7098388671875,-41.5,-26.6875,31.25,9.8,0.27,0.09,stop,1
8.6,608010.28138566,23,1,1,0,0,9.66,0.37,0.12,-0.13,0.1,0.03,-1.125,-2.125,0.875,0.03363037109375,0.70355224609375,-0.01373291015625,0.709716796875,-41.5,-26.6875,31.25,9.8,0.27,0.09,stop,1
8.61,608010.28138566,23,1,1,0,0,9.72,0.42,0.15,-0.08,0.15,0.06,-0.6875,-1.125,0.75,0.03363037109375,0.70361328125,-0.0137939453125,0.70965576171875,-41.5,-26.6875,31.25,9.8,0.27,0.09,stop,1
8.62,608010.295792358,23,1,1,0,0,9.78,0.39,0.17,-0.01,0.12,0.08,-1.0,-1.0625,0.875,0.03369140625,0.70367431640625,-0.013916015625,0.7095947265625,-41.5,-26.6875,31.25,9.8,0.27,0.09,stop,1
8.63,608010.295792358,23,1,1,0,0,9.83,0.44,0.22,0.02,0.17,0.13,-1.875,-2.25,1.0625,0.03375244140625,0.70379638671875,-0.01409912109375,0.70947265625,-42.1875,-28.5,31.0,9.8,0.27,0.08,stop,1
8.64,608010.310445637,23,1,1,0,0,9.69,0.3,0.1,-0.11,0.03,0.01,-2.625,0.5625,1.125,0.03387451171875,0.7037353515625,-0.0142822265625,0.70953369140625,-42.1875,-28.5,31.0,9.8,0.26,0.08,stop,1
8.65,608010.310445637,23,1,1,0,0,9.87,0.54,0.11,0.07,0.27,0.02,0.0,1.5,0.4375,0.033935546875,0.70361328125,-0.0142822265625,0.7095947265625,-42.1875,-28.5,31.0,9.8,0.26,0.09,stop,1
8.66,608010.325041951,23,1,1,0,0,9.74,0.44,0.06,-0.05,0.17,-0.02,1.125,2.375,0.25,0.03387451171875,0.7034912109375,-0.01416015625,0.70977783203125,-42.1875,-28.5,31.0,9.8,0.27,0.09,stop,1
8.67,608010.325041951,23,1,1,0,0,9.79,0.51,0.04,-0.01,0.24,-0.06,1.3125,4.625,-0.125,0.03387451171875,0.70318603515625,-0.01397705078125,0.71002197265625,-42.1875,-28.5,31.0,9.8,0.27,0.1,stop,1
8.68,608010.355585245,23,1,1,0,0,9.79,0.54,-0.02,0.0,0.27,-0.13,1.4375,2.6875,-0.125,0.0338134765625,0.70306396484375,-0.01385498046875,0.710205078125,-41.5,-29.1875,31.25,9.8,0.27,0.1,stop,1
8.69,608010.355585245,23,1,1,0,0,9.64,0.48,-0.05,-0.15,0.2,-0.16,-0.0625,3.25,0.0625,0.033935546875,0.702880859375,-0.01373291015625,0.7103271484375,-41.5,-29.1875,31.25,9.8,0.27,0.11,stop,1
8.7,608010.370850952,23,1,1,0,0,9.65,0.43,-0.04,-0.14,0.15,-0.16,-0.875,4.25,0.0,0.0340576171875,0.70269775390625,-0.01373291015625,0.7105712890625,-41.5,-29.1875,31.25,9.8,0.27,0.11,stop,1
8.71,608010.370850952,23,1,1,0,0,9.71,0.44,0.0,-0.09,0.16,-0.12,-1.25,3.5,0.25,0.0341796875,0.7025146484375,-0.01373291015625,0.71075439453125,-41.5,-29.1875,31.25,9.8,0.27,0.12,stop,1
8.72,608010.385205444,23,1,1,0,0,9.72,0.43,0.19,-0.07,0.15,0.06,-1.9375,3.375,0.25,0.03436279296875,0.7022705078125,-0.0137939453125,0.7109375,-41.5,-29.1875,31.25,9.8,0.28,0.12,stop,1
8.73,608010.385205444,23,1,1,0,0,9.76,0.45,0.17,-0.03,0.17,0.04,-3.375,2.5,0.375,0.03460693359375,0.7021484375,-0.01397705078125,0.7110595703125,-41.875,-28.875,31.6875,9.8,0.28,0.13,stop,1
8.74,608010.417656453,23,1,1,0,0,9.71,0.32,0.12,-0.09,0.04,0.0,-5.5,0.625,0.75,0.034912109375,0.70208740234375,-0.01434326171875,0.71112060546875,-41.875,-28.875,31.6875,9.8,0.28,0.13,stop,1
8.75,608010.417656453,23,1,1,0,0,9.6,0.23,0.0,-0.2,-0.04,-0.14,-4.875,-0.6875,0.4375,0.03521728515625,0.70208740234375,-0.0146484375,0.7110595703125,-41.875,-28.875,31.6875,9.8,0.28,0.13,stop,1
8.76,608010.433524169,23,1,1,0,0,9.48,0.2,-0.27,-0.32,-0.08,-0.41,-0.6875,1.0,-1.1875,0.03533935546875,0.70208740234375,-0.01458740234375,0.7110595703125,-41.875,-28.875,31.6875,9.8,0.28,0.13,stop,1
8.77,608010.433524169,23,1,1,0,0,9.6,0.32,-0.09,-0.2,0.04,-0.22,0.3125,0.4375,-1.5,0.035400390625,0.7021484375,-0.0145263671875,0.71099853515625,-41.875,-28.875,31.6875,9.8,0.28,0.13,stop,1
8.78,608010.447101033,23,1,1,0,0,9.66,0.49,0.11,-0.13,0.2,-0.01,1.4375,0.0,-1.5625,0.03546142578125,0.70220947265625,-0.0142822265625,0.71099853515625,-42.1875,-27.375,31.0,9.8,0.28,0.13,stop,1
8.79,608010.447101033,23,1,1,0,0,9.66,0.49,0.11,-0.13,0.2,-0.01,1.4375,0.0,-1.5625,0.03546142578125,0.70220947265625,-0.0142822265625,0.71099853515625,-42.1875,-27.375,31.0,9.8,0.28,0.13,stop,1
8.79,608010.460087727,23,1,1,0,0,9.83,0.31,0.22,0.03,0.02,0.1,-3.9375,-1.625,0.125,0.03570556640625,0.7022705078125,-0.0145263671875,0.71087646484375,-42.1875,-27.375,31.0,9.8,0.28,0.12,stop,1
8.8,608010.460087727,23,1,1,0,0,9.78,0.38,0.25,-0.01,0.1,0.12,-6.125,-1.0,0.8125,0.0360107421875,0.70233154296875,-0.01495361328125,0.7108154296875,-42.1875,-27.375,31.0,9.8,0.28,0.12,stop,1
8.81,608010.477548909,23,1,1,0,0,9.74,0.42,0.15,-0.05,0.13,0.02,-1.5,1.375,-0.3125,0.0361328125,0.70220947265625,-0.01507568359375,0.71087646484375,-42.1875,-27.375,31.0,9.8,0.28,0.13,stop,1
8.82,608010.477548909,23,1,1,0,0,9.81,0.47,0.2,0.0,0.18,0.07,0.0625,2.3125,-0.8125,0.03619384765625,0.70208740234375,-0.0150146484375,0.71099853515625,-42.1875,-27.375,31.0,9.8,0.28,0.13,stop,1
8.83,608010.50625708,23,1,1,0,0,9.83,0.53,0.21,0.02,0.24,0.07,-0.375,2.875,-1.0,0.03631591796875,0.701904296875,-0.014892578125,0.711181640625,-41.5,-27.75,31.0,9.8,0.29,0.13,stop,1
8.84,608010.50625708,23,1,1,0,0,9.83,0.49,0.22,0.03,0.19,0.07,-1.625,3.1875,-1.125,0.0364990234375,0.70166015625,-0.01483154296875,0.71142578125,-41.5,-27.75,31.0,9.8,0.29,0.14,stop,1
8.85,608010.523055094,23,1,1,0,0,9.74,0.45,0.13,-0.05,0.15,-0.01,-1.9375,2.375,-1.0,0.0367431640625,0.7015380859375,-0.014892578125,0.7115478515625,-41.5,-27.75,31.0,9.8,0.29,0.15,stop,1
8.86,608010.523055094,23,1,1,0,0,9.61,0.39,0.03,-0.18,0.09,-0.12,-1.25,2.875,-1.5625,0.03692626953125,0.70135498046875,-0.01483154296875,0.71173095703125,-41.5,-27.75,31.0,9.8,0.3,0.15,stop,1
8.87,608010.535172485,23,1,1,0,0,9.48,0.45,0.07,-0.31,0.14,-0.08,-0.6875,3.375,-1.875,0.03717041015625,0.70111083984375,-0.01470947265625,0.7119140625,-41.5,-27.75,31.0,9.8,0.3,0.16,stop,1
8.88,608010.535172485,23,1,1,0,0,9.48,0.49,0.12,-0.31,0.18,-0.03,-1.0,2.625,-2.0,0.037353515625,0.70098876953125,-0.0146484375,0.7120361328125,-42.1875,-27.75,30.1875,9.8,0.3,0.16,stop,1
8.89,608010.567041707,23,1,1,0,0,9.46,0.5,0.16,-0.33,0.19,0.0,-1.4375,2.0625,-2.0,0.03753662109375,0.70086669921875,-0.01458740234375,0.712158203125,-42.1875,-27.75,30.1875,9.8,0.31,0.16,stop,1
8.9,608010.567041707,23,1,1,0,0,9.51,0.39,0.13,-0.28,0.07,-0.03,-2.375,1.5,-1.875,0.037841796875,0.70074462890625,-0.0146484375,0.7122802734375,-42.1875,-27.75,30.1875,9.8,0.31,0.17,stop,1
8.91,608010.582202758,23,1,1,0,0,9.51,0.35,0.15,-0.28,0.03,-0.01,-3.25,0.125,-1.3125,0.0380859375,0.70074462890625,-0.01470947265625,0.7122802734375,-42.1875,-27.75,30.1875,9.79,0.31,0.17,stop,1
8.92,608010.582202758,23,1,1,0,0,9.56,0.32,0.17,-0.23,0.0,0.0,-4.125,-0.1875,-0.875,0.0384521484375,0.70074462890625,-0.01495361328125,0.71221923828125,-42.1875,-27.75,30.1875,9.79,0.31,0.17,stop,1
8.93,608010.596769856,23,1,1,0,0,9.68,0.29,0.18,-0.11,-0.02,0.01,-4.375,-1.375,-0.25,0.0386962890625,0.7008056640625,-0.01519775390625,0.712158203125,-42.1875,-29.5625,30.5625,9.79,0.31,0.16,stop,1
8.94,608010.596769856,23,1,1,0,0,9.73,0.34,0.11,-0.06,0.02,-0.04,-3.5,-2.3125,0.0,0.0389404296875,0.700927734375,-0.01544189453125,0.7120361328125,-42.1875,-29.5625,30.5625,9.8,0.31,0.16,stop,1
8.95,608010.625068115,23,1,1,0,0,9.69,0.51,0.17,-0.1,0.19,0.0,-2.0,-1.5,-0.25,0.0390625,0.70098876953125,-0.01556396484375,0.7119140625,-42.1875,-29.5625,30.5625,9.8,0.31,0.16,stop,1
8.96,608010.625068115,23,1,1,0,0,9.71,0.52,0.19,-0.08,0.2,0.02,-1.4375,-0.0625,-0.625,0.0391845703125,0.70098876953125,-0.01556396484375,0.7119140625,-42.1875,-29.5625,30.5625,9.8,0.32,0.16,stop,1
8.97,608010.640531168,23,1,1,0,0,9.73,0.47,0.19,-0.06,0.15,0.02,-3.9375,-1.125,0.1875,0.03948974609375,0.7010498046875,-0.01580810546875,0.71185302734375,-42.1875,-29.5625,30.5625,9.8,0.32,0.16,stop,1
8.98,608010.640531168,23,1,1,0,0,9.72,0.53,0.21,-0.07,0.21,0.05,-0.875,1.5,-0.9375,0.03961181640625,0.70098876953125,-0.0157470703125,0.7119140625,-41.5,-29.1875,31.6875,9.79,0.32,0.16,stop,1
8.99,608010.656288086,23,1,1,0,0,9.72,0.45,0.23,-0.07,0.13,0.06,-0.875,1.5,-0.9375,0.039794921875,0.70086669921875,-0.01568603515625,0.7120361328125,-41.5,-29.1875,31.6875,9.79,0.32,0.16,stop,1
9.0,608010.656288086,23,1,1,0,0,9.76,0.43,0.24,-0.03,0.1,0.07,-1.5,1.6875,-1.3125,0.03997802734375,0.70074462890625,-0.01568603515625,0.71209716796875,-41.5,-29.1875,31.6875,9.79,0.33,0.17,stop,1
9.01,608010.686744751,23,1,1,0,0,9.75,0.43,0.17,-0.04,0.1,0.0,-1.375,1.3125,-1.375,0.0401611328125,0.70062255859375,-0.01568603515625,0.71221923828125,-41.5,-29.1875,31.6875,9.79,0.33,0.17,stop,1
9.02,608010.686744751,23,1,1,0,0,9.75,0.43,0.18,-0.04,0.09,0.0,-2.1875,1.4375,-1.1875,0.0404052734375,0.7005615234375,-0.01568603515625,0.7122802734375,-41.5,-29.1875,31.6875,9.79,0.33,0.17,stop,1
9.03,608010.701697184,23,1,1,0,0,9.73,0.45,0.14,-0.05,0.11,-0.02,-1.8125,0.8125,-0.6875,0.04058837890625,0.70050048828125,-0.0157470703125,0.71234130859375,-40.75,-27.0625,30.5,9.79,0.33,0.17,stop,1
9.04,608010.701697184,23,1,1,0,0,9.68,0.45,0.13,-0.11,0.12,-0.04,-1.8125,0.8125,-0.6875,0.040771484375,0.700439453125,-0.01580810546875,0.71240234375,-40.75,-27.0625,30.5,9.79,0.33,0.17,stop,1
9.05,608010.715004191,23,1,1,0,0,9.64,0.49,0.1,-0.15,0.15,-0.08,-1.0,1.0,-0.3125,0.04083251953125,0.70037841796875,-0.01580810546875,0.71240234375,-40.75,-27.0625,30.5,9.79,0.34,0.18,stop,1
9.06,608010.715004191,23,1,1,0,0,9.66,0.51,0.16,-0.13,0.17,-0.01,-2.1875,0.3125,-0.125,0.041015625,0.70037841796875,-0.01593017578125,0.71240234375,-40.75,-27.0625,30.5,9.79,0.34,0.18,stop,1
9.07,608010.745098429,23,1,1,0,0,9.64,0.53,0.26,-0.15,0.18,0.08,-3.5625,0.375,0.0625,0.041259765625,0.70037841796875,-0.01611328125,0.71240234375,-40.75,-27.0625,30.5,9.79,0.34,0.18,stop,1
9.08,608010.745098429,23,1,1,0,0,9.67,0.45,0.38,-0.12,0.11,0.2,-4.25,-0.5625,0.4375,0.04156494140625,0.70037841796875,-0.016357421875,0.71240234375,-42.1875,-29.1875,30.5,9.79,0.34,0.18,stop,1
9.09,608010.759729329,23,1,1,0,0,9.66,0.4,0.4,-0.13,0.05,0.22,-3.375,-1.375,0.125,0.04180908203125,0.70037841796875,-0.01654052734375,0.71234130859375,-42.1875,-29.1875,30.5,9.79,0.34,0.18,stop,1
9.1,608010.759729329,23,1,1,0,0,9.64,0.38,0.29,-0.15,0.04,0.11,-1.375,-0.9375,-0.125,0.04193115234375,0.700439453125,-0.0166015625,0.71234130859375,-42.1875,-29.1875,30.5,9.79,0.34,0.17,stop,1
9.11,608010.776139201,23,1,1,0,0,9.65,0.38,0.27,-0.14,0.03,0.09,-1.375,-0.5625,-0.125,0.04205322265625,0.700439453125,-0.01666259765625,0.7122802734375,-42.1875,-29.1875,30.5,9.79,0.34,0.17,stop,1
9.12,608010.776139201,23,1,1,0,0,9.61,0.3,0.16,-0.17,-0.04,-0.01,-0.9375,-0.125,0.0,0.0421142578125,0.700439453125,-0.0167236328125,0.7122802734375,-42.1875,-29.1875,30.5,9.79,0.34,0.17,stop,1
9.13,608010.806992675,23,1,1,0,0,9.68,0.37,0.16,-0.11,0.03,-0.01,0.4375,-0.375,0.0,0.0421142578125,0.700439453125,-0.0167236328125,0.7122802734375,-42.1875,-28.1875,29.75,9.79,0.34,0.17,stop,1
9.14,608010.806992675,23,1,1,0,0,9.74,0.44,0.24,-0.04,0.09,0.06,0.625,-0.1875,0.25,0.04205322265625,0.70037841796875,-0.01666259765625,0.7122802734375,-42.1875,-28.1875,29.75,9.79,0.34,0.17,stop,1
9.15,608010.820589925,23,1,1,0,0,9.79,0.5,0.41,0.0,0.16,0.23,0.25,0.1875,0.25,0.0421142578125,0.70037841796875,-0.01666259765625,0.71234130859375,-42.1875,-28.1875,29.75,9.79,0.34,0.18,stop,1
9.16,608010.820589925,23,1,1,0,0,9.77,0.5,0.41,-0.02,0.15,0.23,-0.125,0.0,0.5,0.0421142578125,0.7003173828125,-0.0166015625,0.71240234375,-42.1875,-28.1875,29.75,9.79,0.34,0.18,stop,1
9.17,608010.836016723,23,1,1,0,0,9.75,0.47,0.4,-0.04,0.13,0.22,0.0625,1.0,0.0625,0.04217529296875,0.7001953125,-0.01654052734375,0.7125244140625,-42.1875,-28.1875,29.75,9.79,0.34,0.18,stop,1
9.18,608010.836016723,23,1,1,0,0,9.7,0.5,0.33,-0.09,0.15,0.15,0.75,1.625,0.0,0.04217529296875,0.7000732421875,-0.0164794921875,0.712646484375,-41.875,-28.875,30.1875,9.79,0.34,0.18,stop,1
9.19,608010.867610066,23,1,1,0,0,9.68,0.33,0.09,-0.11,-0.01,-0.09,2.1875,0.25,0.0,0.04205322265625,0.7000732421875,-0.01629638671875,0.712646484375,-41.875,-28.875,30.1875,9.79,0.34,0.18,stop,1
9.2,608010.867610066,23,1,1,0,0,9.67,0.36,0.0,-0.12,0.01,-0.18,5.125,0.9375,-0.875,0.04180908203125,0.70001220703125,-0.01593017578125,0.71270751953125,-41.875,-28.875,30.1875,9.79,0.35,0.19,stop,1
9.21,608010.881862182,23,1,1,0,0,9.6,0.36,-0.1,-0.19,0.01,-0.29,5.25,1.0,-0.875,0.04156494140625,0.699951171875,-0.0155029296875,0.7127685546875,-41.875,-28.875,30.1875,9.79,0.35,0.19,stop,1
9.22,608010.881862182,23,1,1,0,0,9.5,0.59,0.28,-0.29,0.24,0.09,3.8125,0.4375,0.0,0.04132080078125,0.70001220703125,-0.0152587890625,0.7127685546875,-41.875,-28.875,30.1875,9.79,0.35,0.19,stop,1
9.23,608010.895776163,23,1,1,0,0,9.63,0.5,0.41,-0.15,0.15,0.22,-1.25,-0.5625,1.5,0.04132080078125,0.70001220703125,-0.01544189453125,0.7127685546875,-42.5625,-27.375,30.5625,9.79,0.35,0.19,stop,1
9.24,608010.895776163,23,1,1,0,0,9.7,0.36,0.3,-0.09,0.01,0.11,-1.3125,-1.0625,1.9375,0.04132080078125,0.7000732421875,-0.015625,0.71270751953125,-42.5625,-27.375,30.5625,9.79,0.34,0.18,stop,1
9.25,608010.926407959,23,1,1,0,0,9.73,0.51,0.31,-0.06,0.16,0.12,3.125,-0.9375,0.875,0.04107666015625,0.70013427734375,-0.0155029296875,0.712646484375,-42.5625,-27.375,30.5625,9.79,0.34,0.18,stop,1
9.26,608010.926407959,23,1,1,0,0,9.75,0.5,0.2,-0.03,0.15,0.01,4.0625,-0.4375,0.1875,0.04083251953125,0.70013427734375,-0.0152587890625,0.712646484375,-42.5625,-27.375,30.5625,9.79,0.34,0.18,stop,1
9.27,608010.940325317,23,1,1,0,0,9.73,0.55,0.17,-0.06,0.2,-0.01,4.3125,0.125,-0.0625,0.04052734375,0.70013427734375,-0.01495361328125,0.71270751953125,-42.5625,-27.375,30.5625,9.79,0.34,0.18,stop,1
9.28,608010.940325317,23,1,1,0,0,9.78,0.56,0.21,-0.01,0.21,0.02,2.8125,0.375,0.0625,0.0404052734375,0.70013427734375,-0.0147705078125,0.71270751953125,-41.1875,-28.1875,31.0,9.79,0.34,0.18,stop,1
9.29,608010.955709717,23,1,1,0,0,9.68,0.36,0.22,-0.11,0.01,0.03,1.5,0.0625,0.1875,0.04034423828125,0.70013427734375,-0.0146484375,0.71270751953125,-41.1875,-28.1875,31.0,9.79,0.34,0.18,stop,1
9.3,608010.955709717,23,1,1,0,0,9.61,0.35,0.14,-0.18,0.0,-0.04,1.4375,1.0,0.0625,0.040283203125,0.7000732421875,-0.0145263671875,0.7127685546875,-41.1875,-28.1875,31.0,9.79,0.34,0.18,stop,1
9.31,608010.986175781,23,1,1,0,0,9.53,0.37,0.12,-0.26,0.02,-0.06,1.375,2.0,0.0625,0.0401611328125,0.699951171875,-0.01446533203125,0.712890625,-41.1875,-28.1875,31.0,9.79,0.34,0.19,stop,1
9.32,608010.986175781,23,1,1,0,0,9.57,0.44,0.12,-0.22,0.09,-0.07,1.5,1.4375,0.125,0.04010009765625,0.69989013671875,-0.01434326171875,0.71295166015625,-41.1875,-28.1875,31.0,9.79,0.35,0.19,stop,1
9.33,608010.999990804,23,1,1,0,0,9.59,0.56,0.2,-0.2,0.2,0.0,1.0625,1.6875,0.0,0.0400390625,0.6998291015625,-0.01422119140625,0.71307373046875,-41.5,-27.75,30.5625,9.79,0.35,0.19,stop,1
9.34,608010.999990804,23,1,1,0,0,9.57,0.55,0.17,-0.22,0.2,-0.02,0.0,2.375,0.125,0.04010009765625,0.69964599609375,-0.01416015625,0.71319580078125,-41.5,-27.75,30.5625,9.79,0.35,0.2,stop,1
9.35,608011.014967895,23,1,1,0,0,9.57,0.5,0.18,-0.22,0.14,-0.02,-1.0625,1.8125,0.3125,0.04022216796875,0.69952392578125,-0.01422119140625,0.71331787109375,-41.5,-27.75,30.5625,9.79,0.35,0.2,stop,1
9.36,608011.014967895,23,1,1,0,0,9.59,0.46,0.2,-0.2,0.11,0.0,-1.5,1.4375,0.3125,0.04034423828125,0.699462890625,-0.0142822265625,0.71337890625,-41.5,-27.75,30.5625,9.79,0.35,0.2,stop,1
9.37,608011.044973592,23,1,1,0,0,9.71,0.38,0.22,-0.08,0.02,0.01,-1.125,1.0,0.3125,0.0404052734375,0.69940185546875,-0.01434326171875,0.71343994140625,-41.5,-27.75,30.5625,9.79,0.35,0.2,stop,1
9.38,608011.044973592,23,1,1,0,0,9.71,0.38,0.2,-0.08,0.02,0.0,-0.4375,1.0,0.0625,0.0404052734375,0.6993408203125,-0.0142822265625,0.7135009765625,-41.5,-27.375,31.25,9.79,0.35,0.21,stop,1
9.39,608011.060614258,23,1,1,0,0,9.66,0.42,0.27,-0.13,0.07,0.05,-0.1875,1.6875,0.0,0.0404052734375,0.69921875,-0.0142822265625,0.713623046875,-41.5,-27.375,31.25,9.79,0.35,0.21,stop,1
9.4,608011.060614258,23,1,1,0,0,9.59,0.39,0.22,-0.2,0.04,0.0,-2.75,1.375,0.75,0.04058837890625,0.6990966796875,-0.0145263671875,0.7137451171875,-41.5,-27.375,31.25,9.79,0.35,0.21,stop,1
9.41,608011.074769775,23,1,1,0,0,9.61,0.33,0.21,-0.17,-0.01,0.0,-4.1875,0.0625,1.375,0.04071044921875,0.6990966796875,-0.01483154296875,0.7137451171875,-41.5,-27.375,31.25,9.79,0.35,0.21,stop,1
9.42,608011.074769775,23,1,1,0,0,9.56,0.4,0.27,-0.23,0.05,0.05,-2.3125,0.875,1.0625,0.04083251953125,0.69903564453125,-0.01507568359375,0.71380615234375,-41.5,-27.375,31.25,9.79,0.34,0.21,stop,1
9.43,608011.107208984,23,1,1,0,0,9.5,0.43,0.35,-0.29,0.08,0.13,-1.625,0.6875,0.6875,0.0408935546875,0.698974609375,-0.01519775390625,0.7138671875,-41.1875,-28.5,30.5625,9.79,0.34,0.22,stop,1
9.44,608011.107208984,23,1,1,0,0,9.39,0.42,0.31,-0.4,0.07,0.08,-0.75,0.625,0.25,0.04095458984375,0.69891357421875,-0.01519775390625,0.7138671875,-41.1875,-28.5,30.5625,9.79,0.34,0.22,stop,1
9.45,608011.119763509,23,1,1,0,0,9.34,0.39,0.2,-0.45,0.04,-0.02,0.0,1.125,-0.125,0.04095458984375,0.69879150390625,-0.01519775390625,0.7139892578125,-41.1875,-28.5,30.5625,9.79,0.34,0.22,stop,1
9.46,608011.119763509,23,1,1,0,0,9.23,0.33,0.22,-0.56,-0.01,0.0,0.4375,0.875,-0.3125,0.04095458984375,0.69873046875,-0.01519775390625,0.71405029296875,-41.1875,-28.5,30.5625,9.79,0.34,0.22,stop,1
9.47,608011.135993042,23,1,1,0,0,9.26,0.28,0.2,-0.53,-0.06,-0.02,0.375,0.0625,0.0,0.04095458984375,0.69873046875,-0.01519775390625,0.71405029296875,-41.1875,-28.5,30.5625,9.79,0.34,0.22,stop,1
9.48,608011.135993042,23,1,1,0,0,9.27,0.28,0.17,-0.52,-0.06,-0.05,0.375,-0.75,0.0625,0.04095458984375,0.69879150390625,-0.01519775390625,0.7139892578125,-41.875,-29.1875,30.1875,9.79,0.34,0.22,stop,1
9.49,608011.165092488,23,1,1,0,0,9.27,0.22,0.11,-0.52,-0.11,-0.1,0.3125,-1.25,0.125,0.04095458984375,0.69891357421875,-0.01519775390625,0.71392822265625,-41.875,-29.1875,30.1875,9.79,0.34,0.22,stop,1
9.5,608011.165092488,23,1,1,0,0,9.35,0.22,0.0,-0.44,-0.12,-0.21,1.1875,-2.3125,0.0,0.0408935546875,0.69903564453125,-0.01513671875,0.7137451171875,-41.875,-29.1875,30.1875,9.79,0.34,0.21,stop,1
9.51,608011.180828979,23,1,1,0,0,9.5,0.23,-0.01,-0.29,-0.1,-0.22,2.3125,-3.4375,0.0,0.04071044921875,0.6993408203125,-0.0150146484375,0.7135009765625,-41.875,-29.1875,30.1875,9.79,0.34,0.21,stop,1
9.52,608011.180828979,23,1,1,0,0,9.59,0.27,0.0,-0.2,-0.07,-0.2,2.4375,-4.8125,0.375,0.04052734375,0.69964599609375,-0.014892578125,0.713134765625,-41.875,-29.1875,30.1875,9.79,0.34,0.2,stop,1
9.53,608011.194989543,23,1,1,0,0,9.65,0.35,0.11,-0.14,0.0,-0.08,2.125,-5.5625,0.875,0.04034423828125,0.70001220703125,-0.01483154296875,0.71282958984375,-41.1875,-27.375,30.1875,9.79,0.34,0.19,stop,1
9.54,608011.194989543,23,1,1,0,0,9.63,0.4,0.29,-0.16,0.05,0.11,1.0,-5.3125,1.125,0.04022216796875,0.70037841796875,-0.01483154296875,0.7125244140625,-41.1875,-27.375,30.1875,9.79,0.34,0.18,stop,1
9.55,608011.224864746,23,1,1,0,0,9.46,0.42,0.51,-0.33,0.08,0.34,-0.5,-5.625,1.375,0.04010009765625,0.70068359375,-0.01495361328125,0.712158203125,-41.1875,-27.375,30.1875,9.79,0.34,0.17,stop,1
9.56,608011.224864746,23,1,1,0,0,9.24,0.41,0.57,-0.55,0.07,0.41,-1.8125,-5.25,1.4375,0.0401611328125,0.7010498046875,-0.01519775390625,0.71185302734375,-41.1875,-27.375,30.1875,9.79,0.33,0.16,stop,1
9.57,608011.240995361,23,1,1,0,0,8.86,0.34,0.63,-0.93,0.01,0.47,-2.5,-4.125,1.375,0.04022216796875,0.7012939453125,-0.01544189453125,0.71160888671875,-41.1875,-27.375,30.1875,9.79,0.33,0.15,stop,1
9.58,608011.240995361,23,1,1,0,0,8.53,0.38,0.77,-1.26,0.04,0.62,-4.1875,-6.5625,2.4375,0.040283203125,0.70166015625,-0.015869140625,0.711181640625,-43.0,-28.1875,31.25,9.79,0.33,0.14,stop,1
9.59,608011.254702881,23,1,1,0,0,8.58,0.12,0.34,-1.21,-0.2,0.21,-6.125,-7.0625,3.375,0.04046630859375,0.70208740234375,-0.0164794921875,0.71075439453125,-43.0,-28.1875,31.25,9.8,0.32,0.13,stop,1
9.6,608011.254702881,23,1,1,0,0,9.24,0.13,0.16,-0.55,-0.18,0.05,-2.0625,-14.125,4.625,0.040283203125,0.70294189453125,-0.0169677734375,0.70989990234375,-43.0,-28.1875,31.25,9.8,0.31,0.1,stop,1
9.61,608011.270466675,23,1,1,0,0,9.24,0.13,0.16,-0.55,-0.18,0.05,-2.0625,-14.125,4.625,0.040283203125,0.70294189453125,-0.0169677734375,0.70989990234375,-43.0,-28.1875,31.25,9.8,0.31,0.1,stop,1
9.62,608011.270466675,23,1,1,0,0,10.17,0.25,-0.03,0.37,-0.05,-0.11,2.625,-16.9375,5.0,0.039794921875,0.7039794921875,-0.01715087890625,0.7088623046875,-43.0,-28.1875,31.25,9.8,0.31,0.08,stop,1
9.62,608011.284845744,23,1,1,0,0,11.78,0.61,0.3,1.98,0.31,0.26,4.875,-21.0,5.4375,0.03912353515625,0.70526123046875,-0.01727294921875,0.7076416015625,-43.0,-28.1875,31.25,9.8,0.3,0.04,stop,1
9.63,608011.284845744,23,1,1,0,0,12.88,0.84,0.5,3.08,0.55,0.5,2.5625,-25.4375,7.3125,0.0384521484375,0.70684814453125,-0.01763916015625,0.70611572265625,-41.5,-29.1875,30.1875,9.8,0.28,0.0,stop,1
9.64,608011.315987996,23,1,1,0,0,14.03,0.87,0.73,4.22,0.6,0.78,-2.3125,-29.4375,8.375,0.0380859375,0.7086181640625,-0.01837158203125,0.70428466796875,-41.5,-29.1875,30.1875,9.8,0.27,-0.04,stop,1
9.65,608011.315987996,23,1,1,0,0,15.37,0.71,1.05,5.57,0.44,1.14,-0.6875,-26.25,6.4375,0.03765869140625,0.71026611328125,-0.0189208984375,0.70269775390625,-41.5,-29.1875,30.1875,9.8,0.26,-0.09,stop,1
9.66,608011.329998739,23,1,1,0,0,15.37,0.8,0.73,5.56,0.54,0.85,8.4375,-15.8125,1.4375,0.03704833984375,0.71124267578125,-0.0185546875,0.70172119140625,-41.5,-29.1875,30.1875,9.8,0.26,-0.12,stop,1
9.67,608011.329998739,23,1,1,0,0,15.18,0.96,0.73,5.38,0.7,0.87,15.0,-13.0,-2.75,0.0362548828125,0.71209716796875,-0.0174560546875,0.700927734375,-41.5,-29.1875,30.1875,9.8,0.26,-0.14,stop,1
9.68,608011.345701823,23,1,1,0,0,15.24,1.16,0.59,5.44,0.89,0.74,6.3125,0.5625,-3.4375,0.03607177734375,0.7120361328125,-0.016845703125,0.70098876953125,-41.875,-29.1875,31.6875,9.8,0.27,-0.14,stop,1
9.69,608011.345701823,23,1,1,0,0,14.51,0.52,0.14,4.71,0.24,0.27,6.0,5.5625,-4.375,0.0360107421875,0.71173095703125,-0.01617431640625,0.70135498046875,-41.875,-29.1875,31.6875,9.8,0.27,-0.13,stop,1
9.7,608011.375803223,23,1,1,0,0,14.0,0.56,0.07,4.19,0.27,0.18,10.875,14.625,-5.9375,0.03570556640625,0.71087646484375,-0.01513671875,0.7022705078125,-41.875,-29.1875,31.6875,9.8,0.28,-0.1,stop,1
9.71,608011.375803223,23,1,1,0,0,13.09,0.38,0.32,3.29,0.08,0.38,11.75,23.9375,-7.375,0.03546142578125,0.70947265625,-0.01385498046875,0.7037353515625,-41.875,-29.1875,31.6875,9.8,0.3,-0.06,stop,1
9.72,608011.391714111,23,1,1,0,0,12.19,0.41,0.51,2.38,0.1,0.53,11.75,31.0625,-8.125,0.0352783203125,0.70758056640625,-0.01251220703125,0.70562744140625,-41.875,-29.1875,31.6875,9.8,0.31,-0.01,stop,1
9.73,608011.391714111,23,1,1,0,0,10.01,0.41,0.48,0.21,0.08,0.44,10.6875,34.3125,-8.625,0.03515625,0.70550537109375,-0.01123046875,0.707763671875,-40.75,-28.5,31.6875,9.8,0.33,0.04,stop,1
9.74,608011.423687541,23,1,1,0,0,8.81,0.42,0.46,-0.98,0.07,0.35,8.25,38.125,-9.0,0.0352783203125,0.70318603515625,-0.010009765625,0.7100830078125,-40.75,-28.5,31.6875,9.79,0.34,0.1,stop,1
9.75,608011.423687541,23,1,1,0,0,7.48,0.23,0.2,-2.3,-0.12,0.02,6.5,41.25,-8.6875,0.03546142578125,0.70062255859375,-0.00897216796875,0.71258544921875,-40.75,-28.5,31.6875,9.79,0.36,0.17,stop,1
9.76,608011.436036173,23,1,1,0,0,5.3,-0.17,-0.47,-4.49,-0.54,-0.73,9.4375,43.875,-8.8125,0.03546142578125,0.69793701171875,-0.0076904296875,0.71527099609375,-40.75,-28.5,31.6875,9.79,0.37,0.25,stop,1
9.77,608011.436036173,23,1,1,0,0,4.54,-0.1,-0.58,-5.24,-0.5,-0.9,17.0625,43.6875,-10.125,0.03509521484375,0.69525146484375,-0.005859375,0.7178955078125,-40.75,-28.5,31.6875,9.79,0.39,0.32,stop,1
9.78,608011.450161865,23,1,1,0,0,3.89,0.0,-0.71,-5.89,-0.4,-1.1,20.8125,38.5625,-11.125,0.0345458984375,0.69287109375,-0.0037841796875,0.72021484375,-41.1875,-26.6875,31.25,9.79,0.41,0.39,stop,1
9.79,608011.450161865,23,1,1,0,0,3.46,0.03,-0.73,-6.32,-0.4,-1.17,22.25,32.0625,-11.0,0.033935546875,0.69091796875,-0.0015869140625,0.72210693359375,-41.1875,-26.6875,31.25,9.78,0.43,0.44,stop,1
9.8,608011.465748535,23,1,1,0,0,2.85,-0.07,-0.61,-6.92,-0.53,-1.11,28.4375,33.1875,-12.0,0.032958984375,0.68890380859375,0.00103759765625,0.72406005859375,-41.1875,-26.6875,31.25,9.78,0.45,0.49,stop,1
9.81,608011.465748535,23,1,1,0,0,2.62,0.03,-0.6,-7.14,-0.44,-1.17,39.125,42.875,-14.1875,0.031494140625,0.686279296875,0.00445556640625,0.72662353515625,-41.1875,-26.6875,31.25,9.77,0.48,0.56,stop,1
9.82,608011.500773844,23,1,1,0,0,2.93,0.12,-0.56,-6.83,-0.39,-1.2,47.375,50.0625,-16.3125,0.0296630859375,0.6832275390625,0.00860595703125,0.72955322265625,-41.1875,-26.6875,31.25,9.77,0.52,0.64,stop,1
9.83,608011.500773844,23,1,1,0,0,2.1,0.18,-1.15,-7.65,-0.37,-1.9,43.8125,57.25,-16.5625,0.028076171875,0.6796875,0.01251220703125,0.73284912109375,-42.5625,-28.875,31.0,9.76,0.55,0.74,stop,1
9.84,608011.510282837,23,1,1,0,0,2.42,0.22,-0.96,-7.33,-0.36,-1.76,32.125,36.75,-15.25,0.027099609375,0.6773681640625,0.01556396484375,0.7349853515625,-42.5625,-28.875,31.0,9.75,0.58,0.8,stop,1
9.85,608011.510282837,23,1,1,0,0,2.71,0.14,-1.31,-7.03,-0.45,-2.12,13.375,6.3125,-8.0625,0.02685546875,0.677001953125,0.0169677734375,0.73529052734375,-42.5625,-28.875,31.0,9.75,0.6,0.81,stop,1
9.86,608011.527707235,23,1,1,0,0,3.42,0.13,-0.97,-6.32,-0.46,-1.76,-2.3125,-16.375,-2.125,0.02716064453125,0.67803955078125,0.01690673828125,0.73431396484375,-42.5625,-28.875,31.0,9.75,0.6,0.78,stop,1
9.87,608011.527707235,23,1,1,0,0,4.72,-0.05,-0.41,-5.03,-0.65,-1.16,-14.0,-20.125,0.0625,0.02801513671875,0.6793212890625,0.01593017578125,0.733154296875,-42.5625,-28.875,31.0,9.75,0.6,0.75,stop,1
9.88,608011.540571533,23,1,1,0,0,5.72,-0.02,-0.33,-4.04,-0.61,-1.04,-22.75,-23.25,3.0625,0.0291748046875,0.68072509765625,0.01422119140625,0.7318115234375,-43.5625,-27.75,30.1875,9.76,0.59,0.71,stop,1
9.89,608011.540571533,23,1,1,0,0,5.72,-0.02,-0.33,-4.04,-0.61,-1.04,-22.75,-23.25,3.0625,0.0291748046875,0.68072509765625,0.01422119140625,0.7318115234375,-43.5625,-27.75,30.1875,9.76,0.59,0.71,stop,1
9.89,608011.556611694,23,1,1,0,0,7.04,0.23,-0.71,-2.72,-0.33,-1.36,-30.125,-39.125,8.75,0.03045654296875,0.68316650390625,0.01171875,0.72955322265625,-43.5625,-27.75,30.1875,9.76,0.57,0.65,stop,1
9.9,608011.556611694,23,1,1,0,0,11.82,0.83,-1.08,2.04,0.29,-1.6,-41.9375,-77.0,18.75,0.0318603515625,0.68798828125,0.0076904296875,0.72503662109375,-43.5625,-27.75,30.1875,9.77,0.53,0.52,moving,1
9.91,608011.586748698,23,1,1,0,0,14.94,1.11,-0.97,5.15,0.63,-1.29,-65.375,-122.0,35.125,0.03363037109375,0.69549560546875,0.0010986328125,0.7177734375,-43.5625,-27.75,30.1875,9.78,0.47,0.32,moving,1
9.92,608011.586748698,23,1,1,0,0,18.17,1.27,1.01,8.37,0.89,0.92,-94.0,-143.4375,53.6875,0.0360107421875,0.7041015625,-0.0084228515625,0.70916748046875,-43.5625,-27.75,30.1875,9.79,0.37,0.08,moving,1
9.93,608011.60124707,23,1,1,0,0,20.15,0.58,5.35,10.35,0.29,5.47,-90.8125,-117.125,50.375,0.038330078125,0.7109375,-0.01751708984375,0.70196533203125,-42.875,-26.375,30.1875,9.8,0.29,-0.11,moving,1
9.94,608011.60124707,23,1,1,0,0,22.19,0.53,-2.17,12.39,0.27,-1.93,4.25,-78.3125,21.5,0.03668212890625,0.7156982421875,-0.01885986328125,0.6971435546875,-42.875,-26.375,30.1875,9.8,0.25,-0.24,moving,1
9.95,608011.615269938,23,1,1,0,0,21.41,0.39,-4.33,11.61,0.13,-3.92,82.4375,-92.3125,-4.6875,0.0316162109375,0.7215576171875,-0.01385498046875,0.69146728515625,-42.875,-26.375,30.1875,9.79,0.26,-0.4,moving,1
9.96,608011.615269938,23,1,1,0,0,20.28,0.19,-1.37,10.5,-0.07,-0.82,51.875,-81.6875,-7.875,0.02874755859375,0.72662353515625,-0.01043701171875,0.68634033203125,-42.875,-26.375,30.1875,9.78,0.26,-0.55,moving,1
9.97,608011.647122111,23,1,1,0,0,20.56,0.43,-1.25,10.77,0.17,-0.71,1.6875,4.4375,2.625,0.02850341796875,0.72637939453125,-0.010498046875,0.6866455078125,-42.875,-26.375,30.1875,9.78,0.26,-0.54,moving,1
9.98,608011.647122111,23,1,1,0,0,17.39,0.88,0.78,7.6,0.61,1.3,26.9375,12.375,-5.25,0.027099609375,0.7257080078125,-0.00848388671875,0.68743896484375,-40.0,-29.5625,31.6875,9.78,0.27,-0.52,moving,1
9.99,608011.659766846,23,1,1,0,0,15.2,1.28,0.18,5.41,0.99,0.64,37.875,39.5,-12.8125,0.0255126953125,0.72344970703125,-0.00531005859375,0.68988037109375,-40.0,-29.5625,31.6875,9.79,0.28,-0.45,moving,1
10.0,608011.659766846,23,1,1,0,0,12.67,0.92,0.01,2.87,0.6,0.35,33.6875,72.8125,-18.25,0.0245361328125,0.7191162109375,-0.001953125,0.6944580078125,-40.0,-29.5625,31.6875,9.79,0.31,-0.33,moving,1
10.01,608011.676424601,23,1,1,0,0,8.5,0.96,-0.26,-1.29,0.62,-0.08,16.5,95.3125,-14.3125,0.02435302734375,0.71337890625,0.0001220703125,0.70037841796875,-40.0,-29.5625,31.6875,9.79,0.34,-0.17,moving,1
10.02,608011.676424601,23,1,1,0,0,6.72,0.39,-0.21,-3.07,0.03,-0.18,-5.375,81.5,-9.3125,0.0252685546875,0.70831298828125,0.00054931640625,0.7054443359375,-40.0,-29.5625,31.6875,9.8,0.35,-0.03,moving,1
10.03,608011.707187256,23,1,1,0,0,5.93,0.07,-0.02,-3.86,-0.29,-0.11,-17.5,67.8125,-2.25,0.0264892578125,0.7041015625,-0.000244140625,0.7095947265625,-40.25,-26.0,34.0,9.79,0.36,0.08,moving,1
10.04,608011.707187256,23,1,1,0,0,6.24,0.27,0.68,-3.54,-0.08,0.45,-21.0625,87.25,0.0,0.02777099609375,0.69866943359375,-0.0013427734375,0.71490478515625,-40.25,-26.0,34.0,9.79,0.36,0.23,moving,1
10.05,608011.721047974,23,1,1,0,0,3.38,0.48,1.84,-6.41,0.12,1.54,-19.0625,34.875,-1.1875,0.029052734375,0.6964111328125,-0.00238037109375,0.717041015625,-40.25,-26.0,34.0,9.79,0.36,0.29,moving,1
10.06,608011.721047974,23,1,1,0,0,3.94,0.47,-0.55,-5.85,0.12,-0.84,-32.375,0.625,5.6875,0.0306396484375,0.6962890625,-0.00469970703125,0.71710205078125,-40.25,-26.0,34.0,9.79,0.35,0.29,moving,1
10.07,608011.735505534,23,1,1,0,0,3.24,-0.17,0.03,-6.55,-0.51,-0.22,-29.375,-20.9375,5.125,0.0321044921875,0.697509765625,-0.0069580078125,0.7158203125,-40.25,-26.0,34.0,9.79,0.34,0.26,moving,1
10.08,608011.735505534,23,1,1,0,0,2.81,-0.71,-0.96,-6.98,-1.05,-1.21,-20.625,-8.875,2.0625,0.03326416015625,0.697998046875,-0.00836181640625,0.71527099609375,-41.75,-26.6875,32.0625,9.79,0.33,0.24,moving,1
10.09,608011.76756779,23,1,1,0,0,3.21,-0.61,-0.24,-6.57,-0.96,-0.5,1.875,5.5625,-6.5625,0.0335693359375,0.69769287109375,-0.0078125,0.715576171875,-41.75,-26.6875,32.0625,9.79,0.34,0.25,moving,1
10.1,608011.76756779,23,1,1,0,0,2.27,-0.74,-1.14,-7.52,-1.12,-1.44,18.6875,23.6875,-13.5625,0.03326416015625,0.6962890625,-0.0057373046875,0.71697998046875,-41.75,-26.6875,32.0625,9.79,0.37,0.29,moving,1
10.11,608011.78030896,23,1,1,0,0,2.56,-0.53,-0.4,-7.22,-0.94,-0.73,25.3125,19.5625,-17.0,0.0328369140625,0.69512939453125,-0.0030517578125,0.7181396484375,-41.75,-26.6875,32.0625,9.79,0.4,0.32,moving,1
10.12,608011.78030896,23,1,1,0,0,3.13,0.03,-0.31,-6.65,-0.39,-0.67,15.4375,16.8125,-12.625,0.03265380859375,0.694091796875,-0.00128173828125,0.7191162109375,-41.75,-26.6875,32.0625,9.79,0.42,0.35,moving,1
10.13,608011.795176107,23,1,1,0,0,4.01,0.33,0.11,-5.77,-0.1,-0.24,-0.8125,4.6875,-5.5625,0.0330810546875,0.69384765625,-0.0009765625,0.7193603515625,-42.0625,-27.0625,31.25,9.79,0.43,0.36,moving,1
10.14,608011.795176107,23,1,1,0,0,4.01,0.33,0.11,-5.77,-0.1,-0.24,-0.8125,4.6875,-5.5625,0.0330810546875,0.69384765625,-0.0009765625,0.7193603515625,-42.0625,-27.0625,31.25,9.79,0.43,0.36,moving,1
10.14,608011.811323568,23,1,1,0,0,4.33,0.4,0.76,-5.45,-0.03,0.37,-12.375,15.375,-2.6875,0.03399658203125,0.69281005859375,-0.0015869140625,0.72027587890625,-42.0625,-27.0625,31.25,9.78,0.43,0.39,moving,1
10.15,608011.811323568,23,1,1,0,0,6.96,0.88,0.69,-2.82,0.44,0.27,-12.5,13.25,-1.75,0.03485107421875,0.69195556640625,-0.002197265625,0.7210693359375,-42.0625,-27.0625,31.25,9.78,0.44,0.41,moving,1
10.16,608011.82632548,23,1,1,0,0,9.31,1.21,0.43,-0.47,0.78,0.06,-16.9375,-25.5625,6.6875,0.03546142578125,0.69354248046875,-0.00372314453125,0.71954345703125,-42.0625,-27.0625,31.25,9.79,0.42,0.37,moving,1
10.17,608011.82632548,23,1,1,0,0,12.67,1.35,0.5,2.87,0.96,0.22,-33.3125,-55.5625,16.8125,0.03643798828125,0.6968994140625,-0.00701904296875,0.71624755859375,-42.0625,-27.0625,31.25,9.79,0.39,0.28,moving,1
10.18,608011.855436931,23,1,1,0,0,16.37,0.97,1.07,6.57,0.62,0.91,-50.875,-75.5,26.8125,0.03778076171875,0.701416015625,-0.0120849609375,0.711669921875,-42.5,-28.1875,31.25,9.79,0.35,0.15,moving,1
10.19,608011.855436931,23,1,1,0,0,21.09,-0.41,2.91,11.29,-0.71,2.88,-43.1875,-79.0,26.6875,0.0386962890625,0.70611572265625,-0.01666259765625,0.70684814453125,-42.5,-28.1875,31.25,9.8,0.3,0.02,moving,1
10.2,608011.871763753,23,1,1,0,0,21.68,0.65,-0.21,11.88,0.36,-0.13,17.8125,-57.4375,10.3125,0.036865234375,0.709716796875,-0.01641845703125,0.703369140625,-42.5,-28.1875,31.25,9.8,0.28,-0.07,moving,1
10.21,608011.871763753,23,1,1,0,0,22.67,3.26,-2.97,12.87,2.95,-2.81,95.5625,-45.625,-15.6875,0.0318603515625,0.71282958984375,-0.00970458984375,0.7005615234375,-42.5,-28.1875,31.25,9.8,0.31,-0.16,moving,1
10.22,608011.885569865,23,1,1,0,0,20.81,3.57,-2.76,11.01,3.21,-2.54,80.125,-33.3125,-28.5,0.028564453125,0.715087890625,-0.00311279296875,0.698486328125,-42.5,-28.1875,31.25,9.79,0.35,-0.22,moving,1
10.23,608011.885569865,23,1,1,0,0,18.83,1.2,-2.16,9.03,0.81,-1.95,7.0,9.5,-15.0,0.029052734375,0.71453857421875,-0.001708984375,0.69903564453125,-41.375,-27.375,31.0,9.79,0.38,-0.2,moving,1
10.24,608011.916966878,23,1,1,0,0,17.2,1.06,0.04,7.4,0.66,0.2,-0.9375,26.625,-11.6875,0.02984619140625,0.712890625,-0.0009765625,0.70062255859375,-41.375,-27.375,31.0,9.79,0.4,-0.16,moving,1
10.25,608011.916966878,23,1,1,0,0,16.2,1.68,1.18,6.41,1.24,1.27,8.5625,42.6875,-18.0,0.03045654296875,0.7103271484375,0.00079345703125,0.7032470703125,-41.375,-27.375,31.0,9.79,0.43,-0.08,moving,1
10.26,608011.930441447,23,1,1,0,0,10.97,1.25,0.76,1.18,0.77,0.71,0.25,81.875,-25.0625,0.031982421875,0.70526123046875,0.0025634765625,0.708251953125,-41.375,-27.375,31.0,9.79,0.47,0.05,moving,1
10.27,608011.930441447,23,1,1,0,0,8.67,0.7,0.49,-1.11,0.19,0.27,-22.3125,97.9375,-22.5,0.03472900390625,0.6990966796875,0.00286865234375,0.71417236328125,-41.375,-27.375,31.0,9.79,0.51,0.22,moving,1
10.28,608011.945199667,23,1,1,0,0,6.34,0.5,0.31,-3.43,-0.02,-0.07,-53.4375,93.5,-11.8125,0.0386962890625,0.693115234375,0.00054931640625,0.71978759765625,-40.6875,-28.1875,33.6875,9.78,0.53,0.38,moving,1
10.29,608011.945199667,23,1,1,0,0,4.85,0.13,0.49,-4.92,-0.39,-0.03,-75.0625,82.0625,-2.4375,0.04339599609375,0.68768310546875,-0.0037841796875,0.7247314453125,-40.6875,-28.1875,33.6875,9.77,0.53,0.53,moving,1
10.3,608011.975910604,23,1,1,0,0,3.28,0.61,1.53,-6.47,0.09,0.85,-77.6875,82.625,1.6875,0.0479736328125,0.68212890625,-0.0084228515625,0.7296142578125,-40.6875,-28.1875,33.6875,9.76,0.52,0.67,moving,1
10.31,608011.975910604,23,1,1,0,0,2.8,0.07,2.32,-6.95,-0.43,1.52,-69.5,62.625,-1.75,0.05230712890625,0.67779541015625,-0.01251220703125,0.7332763671875,-40.6875,-28.1875,33.6875,9.76,0.51,0.79,moving,1
10.32,608011.991182984,23,1,1,0,0,1.96,-0.28,0.71,-7.78,-0.79,-0.2,-63.125,70.875,-3.6875,0.05633544921875,0.6729736328125,-0.0159912109375,0.73736572265625,-40.6875,-28.1875,33.6875,9.75,0.51,0.91,moving,1
10.33,608011.991182984,23,1,1,0,0,0.86,-0.94,1.66,-8.88,-1.46,0.69,-43.875,26.8125,-9.6875,0.0595703125,0.6710205078125,-0.01812744140625,0.73883056640625,-42.875,-27.75,29.375,9.74,0.52,0.96,moving,1
10.34,608012.006683106,23,1,1,0,0,0.64,-1.19,0.87,-9.1,-1.73,-0.09,-16.0,-3.9375,-12.125,0.061279296875,0.67120361328125,-0.0184326171875,0.73846435546875,-42.875,-27.75,29.375,9.74,0.53,0.96,moving,1
10.35,608012.006683106,23,1,1,0,0,1.54,-0.7,1.8,-8.19,-1.27,0.86,25.0625,-9.875,-17.375,0.0609130859375,0.6719970703125,-0.015869140625,0.73785400390625,-42.875,-27.75,29.375,9.74,0.57,0.94,moving,1
10.36,608012.036350464,23,1,1,0,0,1.19,-0.38,0.78,-8.54,-1.0,-0.18,54.4375,15.375,-25.0,0.05938720703125,0.67132568359375,-0.01080322265625,0.73870849609375,-42.875,-27.75,29.375,9.73,0.62,0.96,moving,1
10.37,608012.036350464,23,1,1,0,0,1.53,0.33,0.56,-8.19,-0.35,-0.42,64.0625,23.8125,-29.875,0.05755615234375,0.670166015625,-0.0047607421875,0.739990234375,-42.875,-27.75,29.375,9.73,0.68,0.99,moving,1
10.38,608012.049900513,23,1,1,0,0,2.11,0.38,0.49,-7.61,-0.34,-0.53,54.5625,21.6875,-21.9375,0.05584716796875,0.66900634765625,0.0001220703125,0.74114990234375,-43.5625,-29.5625,27.75,9.72,0.73,1.02,moving,1
10.39,608012.049900513,23,1,1,0,0,3.11,0.38,-0.36,-6.61,-0.37,-1.39,37.9375,3.375,-7.6875,0.0540771484375,0.6689453125,0.0030517578125,0.7413330078125,-43.5625,-29.5625,27.75,9.72,0.75,1.02,moving,1
10.4,608012.065382243,23,1,1,0,0,3.11,0.38,-0.36,-6.61,-0.37,-1.39,37.9375,3.375,-7.6875,0.0540771484375,0.6689453125,0.0030517578125,0.7413330078125,-43.5625,-29.5625,27.75,9.72,0.75,1.02,moving,1
10.4,608012.065382243,23,1,1,0,0,4.91,0.39,-1.34,-4.81,-0.35,-2.28,26.5625,-50.375,4.4375,0.05230712890625,0.67236328125,0.0042724609375,0.7384033203125,-43.5625,-29.5625,27.75,9.73,0.75,0.94,moving,1
10.41,608012.081301555,23,1,1,0,0,13.89,1.17,-1.68,4.14,0.46,-2.43,6.6875,-111.375,26.375,0.05023193359375,0.67950439453125,0.002685546875,0.73193359375,-43.5625,-29.5625,27.75,9.75,0.7,0.75,moving,1
10.42,608012.081301555,23,1,1,0,0,19.89,1.32,-1.95,10.12,0.71,-2.45,-32.25,-145.75,56.8125,0.04852294921875,0.6885986328125,-0.00341796875,0.7235107421875,-43.5625,-29.5625,27.75,9.77,0.6,0.5,moving,1
10.43,608012.097986288,23,1,1,0,0,25.59,1.15,1.36,15.8,0.67,1.09,-69.75,-140.9375,68.0,0.04840087890625,0.6971435546875,-0.01251220703125,0.7152099609375,-43.5625,-28.5,27.75,9.79,0.48,0.27,moving,1
10.44,608012.097986288,23,1,1,0,0,24.71,1.14,2.75,14.91,0.74,2.63,-48.375,-94.3125,45.8125,0.04840087890625,0.70269775390625,-0.0186767578125,0.7095947265625,-43.5625,-28.5,27.75,9.79,0.4,0.11,moving,1
10.45,608012.125010091,23,1,1,0,0,23.79,3.96,-3.4,13.99,3.55,-3.48,94.0,-17.8125,3.625,0.0423583984375,0.7042236328125,-0.01318359375,0.7086181640625,-43.5625,-28.5,27.75,9.79,0.4,0.07,moving,1
10.46,608012.125010091,23,1,1,0,0,19.88,2.61,-3.77,10.09,2.13,-3.76,148.5,-40.8125,-46.625,0.03607177734375,0.707275390625,-0.00128173828125,0.7060546875,-43.5625,-28.5,27.75,9.79,0.48,0.0,moving,1
10.47,608012.140809774,23,1,1,0,0,17.45,1.7,-0.57,7.66,1.17,-0.49,47.3125,-41.375,-26.0625,0.0347900390625,0.7099609375,0.00311279296875,0.703369140625,-43.5625,-28.5,27.75,9.79,0.52,-0.07,moving,1
10.48,608012.140809774,23,1,1,0,0,12.34,0.45,-1.23,2.55,-0.1,-1.25,-40.375,56.3125,-13.3125,0.0380859375,0.70635986328125,0.00164794921875,0.70684814453125,-41.0625,-28.5,30.1875,9.79,0.55,0.02,moving,1
10.49,608012.155612427,23,1,1,0,0,12.71,0.99,1.9,2.92,0.4,1.81,-14.3125,39.8125,-18.3125,0.04010009765625,0.703857421875,0.00201416015625,0.709228515625,-41.0625,-28.5,30.1875,9.78,0.58,0.09,moving,1
10.5,608012.155612427,23,1,1,0,0,11.6,0.9,0.34,1.82,0.29,0.13,-4.375,74.3125,-16.25,0.0413818359375,0.69921875,0.0030517578125,0.71368408203125,-41.0625,-28.5,30.1875,9.78,0.6,0.21,moving,1
10.51,608012.186904989,23,1,1,0,0,7.94,0.63,1.42,-1.82,0.0,1.0,-22.5625,115.9375,-16.3125,0.04376220703125,0.69189453125,0.0030517578125,0.720703125,-41.0625,-28.5,30.1875,9.77,0.63,0.41,moving,1
10.52,608012.186904989,23,1,1,0,0,4.94,0.67,0.24,-4.82,0.03,-0.4,-57.875,132.625,-7.9375,0.0477294921875,0.68328857421875,0.00042724609375,0.72857666015625,-41.0625,-28.5,30.1875,9.76,0.64,0.64,moving,1
10.53,608012.200712362,23,1,1,0,0,4.34,-0.18,1.14,-5.41,-0.82,0.35,-75.0,80.6875,-2.1875,0.05230712890625,0.67779541015625,-0.00390625,0.7333984375,-40.6875,-27.375,32.0625,9.75,0.63,0.79,moving,1
10.54,608012.200712362,23,1,1,0,0,3.15,-0.94,-0.43,-6.58,-1.57,-1.36,-56.9375,74.0,1.75,0.05560302734375,0.67279052734375,-0.00726318359375,0.73773193359375,-40.6875,-27.375,32.0625,9.74,0.62,0.92,moving,1
10.55,608012.215193807,23,1,1,0,0,2.44,-0.12,1.13,-7.29,-0.75,0.13,-19.5,41.4375,-1.875,0.056884765625,0.6700439453125,-0.00823974609375,0.7401123046875,-40.6875,-27.375,32.0625,9.73,0.62,1.0,moving,1
10.56,608012.215193807,23,1,1,0,0,2.36,0.2,0.7,-7.36,-0.42,-0.34,-2.25,31.0,-4.5625,0.057373046875,0.66802978515625,-0.0079345703125,0.74188232421875,-40.6875,-27.375,32.0625,9.72,0.63,1.05,moving,1
10.57,608012.246533855,23,1,1,0,0,2.5,0.13,1.3,-7.22,-0.5,0.22,-1.9375,16.375,-2.125,0.0576171875,0.66693115234375,-0.00787353515625,0.74285888671875,-40.6875,-27.375,32.0625,9.72,0.63,1.08,moving,1
10.58,608012.246533855,23,1,1,0,0,1.98,-0.15,0.64,-7.73,-0.78,-0.46,-14.0,14.5,1.375,0.058349609375,0.66595458984375,-0.0087890625,0.74365234375,-43.5625,-30.6875,26.6875,9.72,0.63,1.1,moving,1
10.59,608012.261128866,23,1,1,0,0,2.1,-0.72,0.0,-7.62,-1.35,-1.1,-17.0625,5.0625,-0.6875,0.05938720703125,0.66552734375,-0.00982666015625,0.74395751953125,-43.5625,-30.6875,26.6875,9.72,0.63,1.11,moving,1
10.6,608012.261128866,23,1,1,0,0,2.26,-0.84,0.05,-7.45,-1.48,-1.06,0.1875,-1.4375,-1.375,0.05950927734375,0.6656494140625,-0.009765625,0.74383544921875,-43.5625,-30.6875,26.6875,9.72,0.63,1.11,moving,1
10.61,608012.280163778,23,1,1,0,0,3.12,-0.31,0.49,-6.6,-0.95,-0.58,25.25,-16.375,-0.875,0.05810546875,0.66680908203125,-0.00811767578125,0.742919921875,-43.5625,-30.6875,26.6875,9.72,0.64,1.08,moving,1
10.62,608012.280163778,23,1,1,0,0,5.5,0.51,0.94,-4.23,-0.12,-0.07,31.25,-39.125,1.3125,0.05615234375,0.66949462890625,-0.00634765625,0.74066162109375,-43.5625,-30.6875,26.6875,9.73,0.64,1.01,moving,1
10.63,608012.307451742,23,1,1,0,0,7.21,0.71,0.01,-2.52,0.08,-0.89,15.0625,-56.125,9.0,0.0546875,0.6732177734375,-0.0062255859375,0.7374267578125,-44.6875,-31.0625,27.0625,9.74,0.63,0.91,moving,1
10.64,608012.307451742,23,1,1,0,0,10.38,0.99,-0.49,0.62,0.39,-1.28,-1.25,-79.0,18.875,0.053466796875,0.67822265625,-0.00775146484375,0.73284912109375,-44.6875,-31.0625,27.0625,9.75,0.59,0.78,moving,1
10.65,608012.312975057,23,1,1,0,0,10.38,0.99,-0.49,0.62,0.39,-1.28,-1.25,-79.0,18.875,0.053466796875,0.67822265625,-0.00775146484375,0.73284912109375,-44.6875,-31.0625,27.0625,9.75,0.59,0.78,moving,1
10.65,608012.312975057,23,1,1,0,0,14.53,0.91,-1.61,4.76,0.38,-2.2,-14.4375,-115.125,34.75,0.052001953125,0.68548583984375,-0.01129150390625,0.72613525390625,-44.6875,-31.0625,27.0625,9.77,0.53,0.58,moving,1
10.66,608012.336196574,23,1,1,0,0,21.18,0.59,4.35,11.39,0.13,4.0,-31.0625,-140.75,44.6875,0.0509033203125,0.69415283203125,-0.01654052734375,0.71783447265625,-44.6875,-31.0625,27.0625,9.78,0.46,0.35,moving,1
10.67,608012.336196574,23,1,1,0,0,19.01,0.15,7.39,9.21,-0.26,7.16,-27.8125,-72.625,25.4375,0.0509033203125,0.69854736328125,-0.0201416015625,0.7135009765625,-44.6875,-31.0625,27.0625,9.79,0.41,0.22,moving,1
10.68,608012.351213501,23,1,1,0,0,18.08,0.23,-0.81,8.29,-0.18,-1.06,49.0625,12.25,-2.625,0.048095703125,0.697998046875,-0.01690673828125,0.71429443359375,-42.75,-28.875,30.5625,9.79,0.42,0.24,moving,1
10.69,608012.351213501,23,1,1,0,0,18.19,1.48,-1.9,8.4,1.01,-2.05,106.8125,-48.625,-24.375,0.04302978515625,0.70147705078125,-0.00897216796875,0.71136474609375,-42.75,-28.875,30.5625,9.79,0.46,0.15,moving,1
10.7,608012.366652995,23,1,1,0,0,18.13,0.67,-1.38,8.34,0.18,-1.47,54.875,-34.0,-13.6875,0.04052734375,0.70379638671875,-0.00482177734375,0.709228515625,-42.75,-28.875,30.5625,9.79,0.49,0.09,moving,1
10.71,608012.366652995,23,1,1,0,0,17.67,1.45,0.31,7.88,0.96,0.19,2.8125,18.625,-0.0625,0.04034423828125,0.70263671875,-0.00457763671875,0.71038818359375,-42.75,-28.875,30.5625,9.79,0.49,0.12,moving,1
10.72,608012.396988648,23,1,1,0,0,15.31,0.9,0.57,5.52,0.4,0.35,-12.0625,58.6875,-0.1875,0.0411376953125,0.69891357421875,-0.005126953125,0.7139892578125,-42.75,-28.875,30.5625,9.79,0.49,0.22,moving,1
10.73,608012.396988648,23,1,1,0,0,12.34,1.4,0.42,2.55,0.9,0.09,-4.8125,61.25,-3.0,0.0416259765625,0.69512939453125,-0.0050048828125,0.71771240234375,-39.875,-28.1875,32.1875,9.78,0.49,0.32,moving,1
10.74,608012.412118165,23,1,1,0,0,10.53,1.89,0.48,0.75,1.38,0.04,-5.4375,62.9375,-6.125,0.0423583984375,0.69110107421875,-0.0047607421875,0.72149658203125,-39.875,-28.1875,32.1875,9.78,0.5,0.43,moving,1
10.75,608012.412118165,23,1,1,0,0,8.82,1.98,0.44,-0.94,1.47,-0.12,-26.6875,71.6875,-6.0625,0.04443359375,0.6865234375,-0.00579833984375,0.72576904296875,-39.875,-28.1875,32.1875,9.77,0.51,0.56,moving,1
10.76,608012.425912232,23,1,1,0,0,5.52,0.38,0.21,-4.24,-0.12,-0.5,-48.3125,88.3125,-4.3125,0.047607421875,0.68072509765625,-0.00823974609375,0.73095703125,-39.875,-28.1875,32.1875,9.76,0.51,0.71,moving,1
10.77,608012.425912232,23,1,1,0,0,4.35,0.13,1.03,-5.39,-0.37,0.17,-50.0625,79.3125,-2.8125,0.05084228515625,0.6754150390625,-0.01092529296875,0.735595703125,-39.875,-28.1875,32.1875,9.75,0.51,0.85,moving,1
10.78,608012.456255494,23,1,1,0,0,2.74,0.2,-0.04,-7.0,-0.31,-0.97,-38.375,41.4375,-3.4375,0.0533447265625,0.672607421875,-0.01300048828125,0.73797607421875,-42.0,-28.1875,31.0,9.74,0.51,0.93,moving,1
10.79,608012.456255494,23,1,1,0,0,2.83,0.43,1.2,-6.91,-0.08,0.29,-31.1875,-15.0625,-5.125,0.0555419921875,0.67340087890625,-0.0147705078125,0.737060546875,-42.0,-28.1875,31.0,9.75,0.51,0.9,moving,1
10.8,608012.471169271,23,1,1,0,0,2.46,0.47,0.52,-7.29,-0.03,-0.33,-44.0,-30.5625,0.25,0.05804443359375,0.6751708984375,-0.01776123046875,0.73516845703125,-42.0,-28.1875,31.0,9.75,0.51,0.86,moving,1
10.81,608012.471169271,23,1,1,0,0,2.59,0.03,0.87,-7.16,-0.47,0.05,-47.125,-28.3125,-1.6875,0.0609130859375,0.6767578125,-0.02081298828125,0.7333984375,-42.0,-28.1875,31.0,9.75,0.5,0.81,moving,1
10.82,608012.485887696,23,1,1,0,0,2.17,-0.33,0.49,-7.58,-0.85,-0.31,-33.375,-5.875,-7.25,0.0633544921875,0.67694091796875,-0.02252197265625,0.73297119140625,-42.0,-28.1875,31.0,9.75,0.51,0.8,moving,1
10.83,608012.485887696,23,1,1,0,0,1.9,-0.41,0.93,-7.85,-0.95,0.12,-8.1875,2.3125,-14.125,0.06475830078125,0.6767578125,-0.022216796875,0.7330322265625,-43.75,-31.0625,28.1875,9.75,0.53,0.81,moving,1
10.84,608012.516454712,23,1,1,0,0,1.99,-0.14,1.23,-7.75,-0.72,0.42,9.1875,-0.25,-20.125,0.06549072265625,0.6768798828125,-0.02044677734375,0.73291015625,-43.75,-31.0625,28.1875,9.75,0.57,0.81,moving,1
10.85,608012.516454712,23,1,1,0,0,2.26,-0.08,0.67,-7.49,-0.68,-0.11,12.125,-11.75,-16.25,0.0657958984375,0.677734375,-0.01873779296875,0.73211669921875,-43.75,-31.0625,28.1875,9.75,0.6,0.79,moving,1
10.86,608012.530896078,23,1,1,0,0,3.08,-0.13,0.72,-6.67,-0.75,-0.02,7.1875,-26.6875,-6.0,0.06573486328125,0.679443359375,-0.01806640625,0.73052978515625,-43.75,-31.0625,28.1875,9.75,0.61,0.74,moving,1
10.87,608012.530896078,23,1,1,0,0,5.99,-0.52,0.36,-3.77,-1.14,-0.31,4.8125,-37.5625,1.3125,0.0653076171875,0.681884765625,-0.01806640625,0.72833251953125,-43.75,-31.0625,28.1875,9.76,0.61,0.68,moving,1
10.88,608012.545959839,23,1,1,0,0,8.54,-0.23,-0.23,-1.22,-0.83,-0.83,5.0,-47.625,8.75,0.0643310546875,0.6849365234375,-0.0185546875,0.72552490234375,-42.75,-32.0625,27.0625,9.76,0.6,0.59,moving,1
10.89,608012.545959839,23,1,1,0,0,12.04,0.27,-1.27,2.26,-0.28,-1.75,-3.1875,-68.6875,21.1875,0.0631103515625,0.689208984375,-0.0203857421875,0.7215576171875,-42.75,-32.0625,27.0625,9.77,0.56,0.48,moving,1
10.9,608012.561509603,23,1,1,0,0,16.43,0.66,-2.68,6.64,0.16,-2.99,-21.25,-101.375,38.125,0.061767578125,0.69537353515625,-0.02459716796875,0.715576171875,-42.75,-32.0625,27.0625,9.78,0.49,0.31,moving,1
10.91,608012.561509603,23,1,1,0,0,16.43,0.66,-2.68,6.64,0.16,-2.99,-21.25,-101.375,38.125,0.061767578125,0.69537353515625,-0.02459716796875,0.715576171875,-42.75,-32.0625,27.0625,9.78,0.49,0.31,moving,1
10.91,608012.576736695,23,1,1,0,0,25.0,0.15,4.56,15.21,-0.25,4.45,-41.125,-120.4375,50.3125,0.0609130859375,0.7025146484375,-0.0308837890625,0.70843505859375,-42.75,-32.0625,27.0625,9.79,0.41,0.1,moving,1
10.92,608012.576736695,23,1,1,0,0,22.96,0.35,6.74,13.16,0.0,6.76,-41.8125,-73.3125,33.75,0.0611572265625,0.7066650390625,-0.035888671875,0.7039794921875,-42.75,-32.0625,27.0625,9.8,0.35,-0.01,moving,1
10.93,608012.607170248,23,1,1,0,0,22.34,1.72,-1.1,12.54,1.38,-1.1,55.6875,8.375,5.25,0.05743408203125,0.7064208984375,-0.03277587890625,0.7047119140625,-41.25,-31.0625,29.75,9.8,0.34,0.0,moving,1
10.94,608012.607170248,23,1,1,0,0,18.37,-0.7,-2.57,8.57,-1.1,-2.53,122.75,-19.6875,-36.25,0.05206298828125,0.70831298828125,-0.0230712890625,0.70361328125,-41.25,-31.0625,29.75,9.79,0.4,-0.04,moving,1
10.95,608012.620422689,23,1,1,0,0,19.99,1.18,-0.66,10.2,0.74,-0.54,66.8125,-40.125,-23.4375,0.04925537109375,0.71112060546875,-0.0177001953125,0.70111083984375,-41.25,-31.0625,29.75,9.79,0.44,-0.11,moving,1
10.96,608012.620422689,23,1,1,0,0,16.29,1.06,-1.89,6.5,0.61,-1.82,4.0625,31.5,-7.4375,0.04949951171875,0.709228515625,-0.016845703125,0.70306396484375,-41.25,-31.0625,29.75,9.79,0.45,-0.06,moving,1
10.97,608012.636252035,23,1,1,0,0,14.28,1.34,0.57,4.49,0.86,0.55,13.0,51.0625,-14.75,0.0496826171875,0.70611572265625,-0.01495361328125,0.7061767578125,-41.25,-31.0625,29.75,9.79,0.48,0.02,moving,1
10.98,608012.636252035,23,1,1,0,0,10.77,1.71,-0.18,0.98,1.21,-0.32,11.9375,67.4375,-12.9375,0.04986572265625,0.7020263671875,-0.01312255859375,0.71026611328125,-39.5,-29.1875,31.6875,9.79,0.5,0.13,moving,1
10.99,608012.666037232,23,1,1,0,0,9.11,1.09,0.32,-0.67,0.56,0.05,-1.0,74.375,-13.375,0.05084228515625,0.69744873046875,-0.01202392578125,0.71478271484375,-39.5,-29.1875,31.6875,9.78,0.52,0.26,moving,1
11.0,608012.666037232,23,1,1,0,0,7.41,1.13,-0.22,-2.36,0.6,-0.67,-24.8125,106.375,-7.3125,0.05291748046875,0.690673828125,-0.01263427734375,0.72113037109375,-39.5,-29.1875,31.6875,9.78,0.53,0.44,moving,1
