timestamp,android_nano_timestamp,temperature,calib_mag,calib_accel,calib_gyro,calib_sys,acc_x,acc_y,acc_z,lacc_x,lacc_y,lacc_z,gyro_x,gyro_y,gyro_z,quat_w,quat_x,quat_y,quat_z,mag_x,mag_y,mag_z,gravity_x,gravity_y,gravity_z,label,person
5.55,1848169.750938755,23,3,3,0,3,0.38,0.9,0.18,-8.58,-2.9,1.34,-93.4375,88.375,-69.0625,0.6634521484375,0.2611083984375,-0.7005615234375,-0.029541015625,-44.6875,38.5625,-7.75,8.96,3.8,-1.15,moving,3
5.56,1848169.750938755,23,3,3,0,3,-0.18,0.91,0.44,-9.12,-3.01,1.37,-96.8125,99.0625,-70.0625,0.67144775390625,0.260009765625,-0.69293212890625,-0.0372314453125,-44.6875,38.5625,-7.75,8.93,3.93,-0.93,moving,3
5.57,1848169.767909174,23,3,3,0,3,-0.63,0.87,0.66,-9.53,-3.18,1.36,-104.6875,105.0,-69.0625,0.67987060546875,0.25836181640625,-0.684814453125,-0.04522705078125,-44.6875,38.5625,-7.75,8.9,4.05,-0.7,moving,3
5.58,1848169.767909174,23,3,3,0,3,-1.22,0.76,0.71,-10.09,-3.39,1.16,-119.8125,108.375,-64.0,0.688720703125,0.2554931640625,-0.6763916015625,-0.0537109375,-44.6875,38.5625,-7.75,8.86,4.16,-0.44,moving,3
5.59,1848169.783804112,23,3,3,0,3,-1.61,0.64,0.79,-10.44,-3.61,0.96,-136.4375,109.6875,-54.1875,0.6978759765625,0.2509765625,-0.66790771484375,-0.06256103515625,-44.6875,38.5625,-7.75,8.83,4.25,-0.17,moving,3
5.6,1848169.783804112,23,3,3,0,3,-1.76,0.54,0.65,-10.56,-3.77,0.54,-152.6875,113.125,-45.125,0.70745849609375,0.244873046875,-0.6590576171875,-0.07171630859375,-46.5625,36.0625,-8.1875,8.8,4.32,0.11,moving,3
5.61,1848169.800662714,23,3,3,0,3,-2.01,0.5,0.33,-10.77,-3.87,-0.08,-166.625,119.8125,-39.75,0.717529296875,0.23760986328125,-0.64971923828125,-0.0811767578125,-46.5625,36.0625,-8.1875,8.76,4.37,0.42,moving,3
5.61,1848169.800662714,23,3,3,0,3,-2.01,0.5,0.33,-10.77,-3.87,-0.08,-166.625,119.8125,-39.75,0.717529296875,0.23760986328125,-0.64971923828125,-0.0811767578125,-46.5625,36.0625,-8.1875,8.76,4.37,0.42,moving,3
5.62,1848169.80950801,23,3,3,0,3,-2.01,0.27,-0.2,-10.73,-4.13,-0.94,-175.125,120.4375,-36.5,0.72760009765625,0.22955322265625,-0.64007568359375,-0.09088134765625,-46.5625,36.0625,-8.1875,8.72,4.41,0.73,moving,3
5.63,1848169.80950801,23,3,3,0,3,-1.58,0.33,-0.38,-10.27,-4.09,-1.42,-177.5625,109.625,-31.3125,0.73687744140625,0.2208251953125,-0.6309814453125,-0.10052490234375,-46.5625,36.0625,-8.1875,8.68,4.43,1.04,moving,3
5.64,1848169.845114496,23,3,3,0,3,-0.5,0.59,-0.51,-9.15,-3.83,-1.81,-173.5625,82.25,-23.75,0.74444580078125,0.211669921875,-0.62359619140625,-0.11004638671875,-46.5625,36.0625,-8.1875,8.64,4.43,1.3,moving,3
5.65,1848169.845114496,23,3,3,0,3,1.48,1.03,-0.64,-7.14,-3.38,-2.11,-157.5625,28.5,-14.6875,0.74871826171875,0.2025146484375,-0.61993408203125,-0.1190185546875,-48.0625,34.0,-8.875,8.63,4.42,1.46,moving,3
5.66,1848169.859734369,23,3,3,0,3,6.98,2.0,-0.68,-1.66,-2.38,-2.15,-123.625,-64.8125,0.6875,0.747314453125,0.1937255859375,-0.62286376953125,-0.12677001953125,-48.0625,34.0,-8.875,8.64,4.38,1.46,moving,3
5.67,1848169.859734369,23,3,3,0,3,10.03,2.09,-1.34,1.31,-2.22,-2.54,-64.75,-205.8125,31.0625,0.7374267578125,0.18548583984375,-0.63592529296875,-0.1317138671875,-48.0625,34.0,-8.875,8.71,4.32,1.19,moving,3
5.68,1848169.873952916,23,3,3,0,3,12.99,2.5,-3.56,4.16,-1.71,-4.16,26.875,-374.1875,71.0625,0.7166748046875,0.17889404296875,-0.6611328125,-0.13165283203125,-48.0625,34.0,-8.875,8.83,4.22,0.6,moving,3
5.69,1848169.873952916,23,3,3,0,3,16.46,3.71,-5.05,7.54,-0.34,-4.7,157.8125,-542.5,110.1875,0.68328857421875,0.17596435546875,-0.69769287109375,-0.12396240234375,-48.0625,34.0,-8.875,8.92,4.05,-0.34,moving,3
5.7,1848169.907076695,23,3,3,0,3,33.64,16.23,0.46,24.74,12.43,2.02,278.8125,-657.6875,133.125,0.63916015625,0.177001953125,-0.740478515625,-0.10894775390625,-47.25,35.0,-2.375,8.9,3.8,-1.56,moving,3
5.71,1848169.907076695,23,3,3,0,3,37.07,23.0,-10.82,28.28,19.53,-8.18,246.5625,-591.5625,159.5,0.59765625,0.174560546875,-0.7769775390625,-0.09307861328125,-47.25,35.0,-2.375,8.78,3.46,-2.63,moving,3
5.72,1848169.921021519,23,3,3,0,3,32.11,9.73,-15.87,23.36,6.57,-12.77,-51.1875,-330.1875,211.5,0.577392578125,0.15478515625,-0.79656982421875,-0.09051513671875,-47.25,35.0,-2.375,8.74,3.16,-3.1,moving,3
5.73,1848169.921021519,23,3,3,0,3,26.31,2.17,-9.09,17.58,-0.91,-5.87,-138.125,-118.25,99.5625,0.57171630859375,0.139892578125,-0.8026123046875,-0.0966796875,-47.25,35.0,-2.375,8.73,3.09,-3.21,moving,3
5.74,1848169.933062453,23,3,3,0,3,17.35,1.95,-6.81,8.53,-1.19,-3.9,-18.0625,187.9375,-30.875,0.584716796875,0.14276123046875,-0.7926025390625,-0.09716796875,-47.25,35.0,-2.375,8.81,3.14,-2.91,moving,3
5.75,1848169.933062453,23,3,3,0,3,15.63,6.5,-3.85,6.71,3.27,-1.37,102.0,319.75,-83.25,0.60455322265625,0.1563720703125,-0.77581787109375,-0.09033203125,-40.0625,40.75,12.0,8.92,3.22,-2.47,moving,3
5.76,1848169.966566563,23,3,3,0,3,15.07,10.69,-2.01,6.1,7.37,0.16,137.125,245.5,-92.0,0.618408203125,0.17169189453125,-0.762451171875,-0.08251953125,-40.0625,40.75,12.0,8.96,3.31,-2.17,moving,3
5.77,1848169.966566563,23,3,3,0,3,12.02,7.32,-3.6,3.03,3.93,-1.65,83.3125,175.6875,-66.25,0.62823486328125,0.18182373046875,-0.75244140625,-0.077880859375,-40.0625,40.75,12.0,8.99,3.38,-1.94,moving,3
5.78,1848169.981085158,23,3,3,0,3,11.12,5.83,-3.71,2.11,2.4,-1.9,47.0,109.0,-34.0625,0.63433837890625,0.1873779296875,-0.7462158203125,-0.074951171875,-40.0625,40.75,12.0,9.0,3.42,-1.8,moving,3
5.79,1848169.981085158,23,3,3,0,3,10.47,6.01,-3.71,1.45,2.6,-1.93,71.8125,40.3125,-6.125,0.6357421875,0.1920166015625,-0.744384765625,-0.0699462890625,-40.0625,40.75,12.0,9.01,3.41,-1.78,moving,3
5.8,1848169.994430943,23,3,3,0,3,10.02,6.29,-3.2,1.01,2.92,-1.3,120.9375,-27.0625,1.25,0.63189697265625,0.19842529296875,-0.74658203125,-0.06243896484375,-42.75,40.0625,4.375,9.01,3.37,-1.89,moving,3
5.81,1848169.994430943,23,3,3,0,3,8.3,5.24,-3.03,-0.67,1.91,-0.95,165.8125,-56.375,-10.1875,0.625244140625,0.20794677734375,-0.7503662109375,-0.05316162109375,-42.75,40.0625,4.375,8.98,3.33,-2.08,moving,3
5.82,1848170.021198847,23,3,3,0,3,6.9,4.27,-2.49,-2.04,0.97,-0.22,191.625,-45.1875,-26.25,0.6185302734375,0.2198486328125,-0.75311279296875,-0.04290771484375,-42.75,40.0625,4.375,8.95,3.3,-2.26,moving,3
5.83,1848170.021198847,23,3,3,0,3,5.41,3.25,-1.55,-3.5,-0.03,0.85,200.375,-16.625,-42.0625,0.61334228515625,0.23333740234375,-0.75384521484375,-0.03228759765625,-42.75,40.0625,4.375,8.92,3.28,-2.4,moving,3
5.84,1848170.041268427,23,3,3,0,3,4.07,2.33,-0.6,-4.82,-0.96,1.85,188.625,35.625,-59.75,0.611572265625,0.2474365234375,-0.75115966796875,-0.02239990234375,-42.75,40.0625,4.375,8.9,3.29,-2.46,moving,3
5.85,1848170.041268427,23,3,3,0,3,1.75,0.78,1.06,-7.17,-2.61,3.27,121.375,208.6875,-92.375,0.62225341796875,0.26031494140625,-0.73809814453125,-0.01483154296875,-43.875,39.6875,0.25,8.93,3.39,-2.2,moving,3
5.86,1848170.058955642,23,3,3,0,3,0.64,0.36,1.59,-8.3,-3.12,3.54,121.375,208.6875,-92.375,0.6326904296875,0.2730712890625,-0.72467041015625,-0.00732421875,-43.875,39.6875,0.25,8.95,3.49,-1.95,moving,3
5.87,1848170.058955642,23,3,3,0,3,0.64,0.36,1.59,-8.3,-3.12,3.54,121.375,208.6875,-92.375,0.6326904296875,0.2730712890625,-0.72467041015625,-0.00732421875,-43.875,39.6875,0.25,8.95,3.49,-1.95,moving,3
5.87,1848170.065497471,23,3,3,0,3,-0.3,0.5,1.69,-9.28,-3.12,3.23,75.375,297.9375,-102.875,0.64935302734375,0.2838134765625,-0.70556640625,-0.00115966796875,-43.875,39.6875,0.25,8.97,3.63,-1.53,moving,3
5.88,1848170.065497471,23,3,3,0,3,-0.82,0.64,1.7,-9.8,-3.15,2.67,21.625,368.3125,-111.5,0.67108154296875,0.291748046875,-0.6815185546875,0.00299072265625,-43.875,39.6875,0.25,8.98,3.8,-0.97,moving,3
5.89,1848170.08380045,23,3,3,0,3,-1.64,-0.15,1.95,-10.6,-4.13,2.25,-31.125,419.375,-113.0625,0.69635009765625,0.29632568359375,-0.6536865234375,0.00518798828125,-43.875,39.6875,0.25,8.95,3.98,-0.29,moving,3
5.9,1848170.08380045,23,3,3,0,3,-2.47,-0.39,1.64,-11.38,-4.46,1.07,-156.0,485.125,-56.125,0.727294921875,0.28955078125,-0.6221923828125,0.00543212890625,-46.75,36.75,-10.0625,8.9,4.06,0.56,moving,3
5.91,1848170.111108067,23,3,3,0,3,-3.12,-0.58,0.72,-11.9,-4.7,-0.69,-156.0,485.125,-56.125,0.7568359375,0.2822265625,-0.5894775390625,0.005615234375,-46.75,36.75,-10.0625,8.78,4.12,1.42,moving,3
5.92,1848170.111108067,23,3,3,0,3,-4.21,-2.33,-1.19,-12.83,-6.4,-3.51,-225.6875,480.75,-13.75,0.7862548828125,0.26751708984375,-0.55694580078125,0.00494384765625,-46.75,36.75,-10.0625,8.61,4.07,2.31,moving,3
5.93,1848170.124999506,23,3,3,0,3,-3.65,-3.34,-3.34,-12.12,-7.21,-6.42,-323.9375,357.875,33.875,0.81048583984375,0.2432861328125,-0.5328369140625,-0.0001220703125,-46.75,36.75,-10.0625,8.46,3.86,3.07,moving,3
5.94,1848170.124999506,23,3,3,0,3,-2.17,-4.3,-5.85,-10.53,-7.93,-9.47,-283.375,246.5,55.8125,0.8275146484375,0.22052001953125,-0.516357421875,-0.00408935546875,-46.75,36.75,-10.0625,8.36,3.62,3.62,moving,3
5.95,1848170.144682733,23,3,3,0,3,0.16,-4.62,-6.99,-8.18,-8.01,-10.84,-150.8125,88.3125,85.6875,0.83428955078125,0.205810546875,-0.511474609375,-0.0030517578125,-42.75,34.5625,-24.5625,8.35,3.39,3.84,moving,3
5.96,1848170.144682733,23,3,3,0,3,6.11,-2.2,-5.57,-2.37,-5.45,-9.23,44.4375,-106.75,115.5625,0.82867431640625,0.203857421875,-0.52130126953125,0.00543212890625,-42.75,34.5625,-24.5625,8.49,3.25,3.66,moving,3
5.97,1848170.178203974,23,3,3,0,3,9.42,-0.95,-5.1,0.64,-4.13,-8.11,247.625,-338.0625,145.3125,0.80816650390625,0.21514892578125,-0.54779052734375,0.02117919921875,-42.75,34.5625,-24.5625,8.77,3.18,3.01,moving,3
5.98,1848170.178203974,23,3,3,0,3,13.85,0.87,-5.86,4.71,-2.19,-7.63,432.6875,-643.875,189.3125,0.76708984375,0.2371826171875,-0.59454345703125,0.04302978515625,-42.75,34.5625,-24.5625,9.14,3.06,1.77,moving,3
5.99,1848170.190044997,23,3,3,0,3,19.08,2.83,-8.11,9.67,0.06,-7.91,633.125,-1019.0625,238.75,0.69622802734375,0.26947021484375,-0.66156005859375,0.07037353515625,-42.75,34.5625,-24.5625,9.4,2.76,-0.2,moving,3
6.0,1848170.190044997,23,3,3,0,3,28.5,3.66,-14.83,19.31,1.5,-12.19,833.5625,-1279.9375,245.1875,0.59588623046875,0.31097412109375,-0.73333740234375,0.10235595703125,-35.75,41.1875,-23.25,9.19,2.16,-2.63,moving,3
6.01,1848170.200139643,23,3,3,0,3,32.39,5.27,-15.77,23.95,3.94,-10.95,871.875,-1246.5,168.625,0.48663330078125,0.353515625,-0.78790283203125,0.1319580078125,-35.75,41.1875,-23.25,8.43,1.33,-4.82,moving,3
6.02,1848170.200139643,23,3,3,0,3,35.86,1.31,-13.6,28.08,0.61,-7.66,555.1875,-720.6875,81.375,0.41766357421875,0.3785400390625,-0.81207275390625,0.15087890625,-35.75,41.1875,-23.25,7.77,0.69,-5.93,moving,3
6.03,1848170.234682164,23,3,3,0,3,38.09,8.87,-12.67,30.3,8.31,-6.75,-62.3125,6.875,149.9375,0.41815185546875,0.36553955078125,-0.81756591796875,0.15216064453125,-35.75,41.1875,-23.25,7.79,0.55,-5.92,moving,3
6.04,1848170.234682164,23,3,3,0,3,18.7,10.43,-14.67,10.47,9.63,-9.39,-390.4375,429.5,102.25,0.459228515625,0.33782958984375,-0.80926513671875,0.14154052734375,-35.75,41.1875,-23.25,8.22,0.79,-5.27,moving,3
6.05,1848170.244503168,23,3,3,0,3,15.91,1.96,-9.49,7.27,0.83,-4.99,-374.875,483.625,-9.6875,0.50384521484375,0.31707763671875,-0.79315185546875,0.1287841796875,-43.25,38.5625,-12.5625,8.63,1.12,-4.5,moving,3
6.06,1848170.244503168,23,3,3,0,3,16.18,-0.72,-5.36,7.28,-2.21,-1.54,-350.3125,392.8125,-73.875,0.5408935546875,0.30206298828125,-0.77691650390625,0.112060546875,-43.25,38.5625,-12.5625,8.9,1.49,-3.82,moving,3
6.07,1848170.259817865,23,3,3,0,3,14.93,-0.46,-2.34,5.88,-2.36,0.91,-344.875,294.4375,-119.25,0.57061767578125,0.29071044921875,-0.76263427734375,0.09075927734375,-43.25,38.5625,-12.5625,9.05,1.89,-3.25,moving,3
6.08,1848170.259817865,23,3,3,0,3,13.85,0.01,-2.42,4.71,-2.25,0.3,-302.0,266.5,-135.75,0.59661865234375,0.28240966796875,-0.74786376953125,0.07061767578125,-43.25,38.5625,-12.5625,9.14,2.26,-2.72,moving,3
6.09,1848170.295494908,23,3,3,0,3,12.03,0.08,-2.21,2.83,-2.46,0.03,-238.6875,237.5,-109.75,0.618408203125,0.2755126953125,-0.73394775390625,0.05517578125,-43.25,38.5625,-12.5625,9.19,2.54,-2.24,moving,3
6.1,1848170.295494908,23,3,3,0,3,9.64,0.63,-1.66,0.41,-2.09,0.23,-196.6875,160.9375,-69.6875,0.633544921875,0.2685546875,-0.724365234375,0.042724609375,-40.5,41.875,-11.875,9.22,2.73,-1.89,moving,3
6.11,1848170.309630325,23,3,3,0,3,6.64,1.01,-0.65,-2.56,-1.85,1.06,-175.6875,56.125,-55.75,0.64129638671875,0.2620849609375,-0.72052001953125,0.02984619140625,-40.5,41.875,-11.875,9.21,2.87,-1.72,moving,3
6.12,1848170.309630325,23,3,3,0,3,5.28,1.03,-0.08,-3.89,-1.97,1.61,-155.3125,-34.125,-57.25,0.642822265625,0.257080078125,-0.721435546875,0.01611328125,-40.5,41.875,-11.875,9.17,3.01,-1.69,moving,3
6.13,1848170.323337722,23,3,3,0,3,5.28,1.03,-0.08,-3.89,-1.97,1.61,-155.3125,-34.125,-57.25,0.642822265625,0.257080078125,-0.721435546875,0.01611328125,-40.5,41.875,-11.875,9.17,3.01,-1.69,moving,3
6.13,1848170.323337722,23,3,3,0,3,4.14,1.16,0.53,-4.97,-1.98,2.27,-124.6875,-68.8125,-64.5,0.64129638671875,0.25421142578125,-0.7239990234375,0.00311279296875,-40.5,41.875,-11.875,9.12,3.15,-1.74,moving,3
6.14,1848170.337445347,23,3,3,0,3,3.23,0.91,0.79,-5.82,-2.38,2.56,-90.125,-55.5625,-77.0,0.63970947265625,0.25396728515625,-0.72540283203125,-0.008056640625,-40.5,41.875,-11.875,9.06,3.3,-1.77,moving,3
6.15,1848170.337445347,23,3,3,0,3,0.64,1.23,2.03,-8.35,-2.23,3.79,-61.75,-11.9375,-92.0625,0.64019775390625,0.25634765625,-0.72393798828125,-0.01739501953125,-41.875,40.5,-10.375,9.0,3.46,-1.76,moving,3
6.16,1848170.351890619,23,3,3,0,3,-0.52,1.81,2.37,-9.47,-1.84,3.99,-44.125,73.0,-120.9375,0.64556884765625,0.2615966796875,-0.717041015625,-0.0252685546875,-41.875,40.5,-10.375,8.94,3.66,-1.61,moving,3
6.17,1848170.351890619,23,3,3,0,3,-1.16,2.4,2.19,-10.04,-1.51,3.53,-48.0625,159.3125,-159.375,0.6561279296875,0.2691650390625,-0.7042236328125,-0.0335693359375,-41.875,40.5,-10.375,8.88,3.92,-1.34,moving,3
6.18,1848170.402747594,23,3,3,0,3,-1.55,2.88,1.48,-10.34,-1.34,2.45,-72.0625,204.5,-188.5,0.66961669921875,0.277099609375,-0.68768310546875,-0.0439453125,-41.875,40.5,-10.375,8.79,4.23,-0.97,moving,3
6.19,1848170.402747594,23,3,3,0,3,-2.43,3.16,1.3,-11.1,-1.39,1.84,-106.6875,232.375,-205.6875,0.68505859375,0.28399658203125,-0.66845703125,-0.0567626953125,-41.875,40.5,-10.375,8.66,4.55,-0.53,moving,3
6.2,1848170.414250849,23,3,3,0,3,-2.57,2.79,1.58,-11.07,-2.09,1.57,-160.6875,279.8125,-216.6875,0.703857421875,0.2882080078125,-0.64520263671875,-0.07208251953125,-44.0625,37.5625,-8.0625,8.49,4.89,0.01,moving,3
6.21,1848170.414250849,23,3,3,0,3,-2.11,1.87,0.44,-10.41,-3.3,-0.24,-239.125,315.9375,-208.5625,0.725830078125,0.28704833984375,-0.61859130859375,-0.09033203125,-44.0625,37.5625,-8.0625,8.29,5.18,0.68,moving,3
6.22,1848170.421494013,23,3,3,0,3,-1.16,0.74,-3.43,-9.25,-4.62,-4.8,-324.6875,269.4375,-171.875,0.74652099609375,0.27764892578125,-0.59423828125,-0.11187744140625,-44.0625,37.5625,-8.0625,8.09,5.36,1.36,moving,3
6.23,1848170.421494013,23,3,3,0,3,-1.25,0.85,-5.04,-9.19,-4.55,-7.0,-397.125,160.625,-113.25,0.7628173828125,0.259033203125,-0.57672119140625,-0.1358642578125,-44.0625,37.5625,-8.0625,7.93,5.41,1.96,moving,3
6.24,1848170.446317418,23,3,3,0,3,-0.9,1.06,-6.73,-8.79,-4.24,-9.14,-439.625,25.3125,-49.3125,0.7728271484375,0.232421875,-0.56829833984375,-0.1605224609375,-44.0625,37.5625,-8.0625,7.88,5.31,2.41,moving,3
6.25,1848170.446317418,23,3,3,0,3,0.61,0.39,-8.45,-7.33,-4.73,-11.04,-417.5,-150.375,-1.75,0.773193359375,0.20208740234375,-0.5721435546875,-0.18426513671875,-47.0,31.375,-14.5625,7.94,5.13,2.58,moving,3
6.26,1848170.459787877,23,3,3,0,3,5.29,0.03,-9.23,-2.82,-4.93,-11.6,-300.1875,-345.9375,27.875,0.76104736328125,0.17474365234375,-0.5906982421875,-0.20330810546875,-47.0,31.375,-14.5625,8.12,4.96,2.36,moving,3
6.27,1848170.459787877,23,3,3,0,3,9.74,0.62,-10.32,1.38,-4.21,-12.01,-114.0,-538.375,59.9375,0.7352294921875,0.1544189453125,-0.62457275390625,-0.213134765625,-47.0,31.375,-14.5625,8.36,4.83,1.68,moving,3
6.28,1848170.475572585,23,3,3,0,3,14.34,0.93,-12.14,5.73,-3.74,-12.59,104.6875,-780.6875,121.9375,0.69189453125,0.1396484375,-0.6766357421875,-0.20965576171875,-47.0,31.375,-14.5625,8.6,4.67,0.44,moving,3
6.29,1848170.475572585,23,3,3,0,3,17.04,0.69,-12.62,8.37,-3.67,-11.27,332.1875,-1014.375,183.6875,0.62847900390625,0.12969970703125,-0.742919921875,-0.1904296875,-47.0,31.375,-14.5625,8.67,4.37,-1.34,moving,3
6.3,1848170.507351923,23,3,3,0,3,26.17,6.26,-4.21,17.76,2.34,-1.02,489.0625,-999.5,172.375,0.55828857421875,0.12811279296875,-0.803955078125,-0.1597900390625,-48.875,31.25,-0.5,8.4,3.92,-3.19,moving,3
6.31,1848170.507351923,23,3,3,0,3,37.09,6.92,-12.33,29.02,3.36,-8.04,483.625,-544.375,28.3125,0.5140380859375,0.141845703125,-0.83587646484375,-0.13031005859375,-48.875,31.25,-0.5,8.06,3.56,-4.29,moving,3
6.32,1848170.515224563,23,3,3,0,3,39.08,11.97,-16.17,31.23,8.46,-11.44,401.875,-135.3125,-181.6875,0.4967041015625,0.17138671875,-0.84356689453125,-0.1107177734375,-48.875,31.25,-0.5,7.84,3.5,-4.72,moving,3
6.33,1848170.515224563,23,3,3,0,3,38.85,30.41,13.9,30.83,26.7,18.14,65.375,380.0,-182.9375,0.52154541015625,0.19122314453125,-0.824462890625,-0.1080322265625,-48.875,31.25,-0.5,8.02,3.7,-4.24,moving,3
6.34,1848170.549805333,23,3,3,0,3,11.39,7.02,-11.47,3.08,3.06,-8.09,-126.1875,548.1875,-122.625,0.5611572265625,0.19921875,-0.79534912109375,-0.1134033203125,-48.875,31.25,-0.5,8.31,3.96,-3.37,moving,3
6.35,1848170.549805333,23,3,3,0,3,11.81,1.27,-4.42,3.39,-2.82,-1.52,-15.125,315.3125,-89.375,0.5821533203125,0.20770263671875,-0.77789306640625,-0.11328125,-38.0625,39.5625,19.0,8.42,4.09,-2.9,moving,3
6.36,1848170.564950108,23,3,3,0,3,12.14,4.08,-3.64,3.65,0.01,-0.9,14.125,119.625,9.4375,0.590087890625,0.20892333984375,-0.7720947265625,-0.109619140625,-38.0625,39.5625,19.0,8.48,4.07,-2.74,moving,3
6.37,1848170.564950108,23,3,3,0,3,14.46,8.29,-0.76,5.97,4.27,2.07,46.75,-43.875,26.9375,0.58648681640625,0.2091064453125,-0.77532958984375,-0.1058349609375,-38.0625,39.5625,19.0,8.48,4.01,-2.84,moving,3
6.38,1848170.581290847,23,3,3,0,3,14.14,7.59,-1.42,5.69,3.62,1.57,109.3125,-57.8125,-4.875,0.58050537109375,0.21441650390625,-0.7791748046875,-0.0997314453125,-38.0625,39.5625,19.0,8.45,3.96,-3.0,moving,3
6.39,1848170.581290847,23,3,3,0,3,14.14,7.59,-1.42,5.69,3.62,1.57,109.3125,-57.8125,-4.875,0.58050537109375,0.21441650390625,-0.7791748046875,-0.0997314453125,-38.0625,39.5625,19.0,8.45,3.96,-3.0,moving,3
6.39,1848170.592529128,23,3,3,0,3,12.37,6.5,-2.22,3.95,2.58,0.9,181.6875,-1.5,-36.0625,0.57659912109375,0.22601318359375,-0.780029296875,-0.0892333984375,-38.0625,39.5625,19.0,8.42,3.92,-3.12,moving,3
6.4,1848170.592529128,23,3,3,0,3,10.27,5.86,-2.85,1.86,1.99,0.37,225.125,31.8125,-50.125,0.5738525390625,0.240966796875,-0.779052734375,-0.07574462890625,-43.6875,36.6875,8.25,8.4,3.86,-3.23,moving,3
6.41,1848170.609784988,23,3,3,0,3,6.36,4.46,-3.0,-2.02,0.65,0.35,224.5625,20.5625,-48.375,0.570068359375,0.25555419921875,-0.7783203125,-0.06243896484375,-43.6875,36.6875,8.25,8.38,3.81,-3.35,moving,3
6.42,1848170.609784988,23,3,3,0,3,4.85,4.09,-2.73,-3.51,0.35,0.75,195.625,-2.625,-33.875,0.56524658203125,0.26751708984375,-0.7786865234375,-0.0509033203125,-43.6875,36.6875,8.25,8.36,3.74,-3.48,moving,3
6.43,1848170.639883824,23,3,3,0,3,3.63,3.57,-1.8,-4.71,-0.09,1.79,166.875,-7.875,-25.625,0.5606689453125,0.27740478515625,-0.77911376953125,-0.04095458984375,-43.6875,36.6875,8.25,8.34,3.67,-3.6,moving,3
6.44,1848170.639883824,23,3,3,0,3,2.61,2.7,-0.4,-5.72,-0.93,3.24,143.25,34.6875,-36.3125,0.559326171875,0.2869873046875,-0.7769775390625,-0.03216552734375,-43.6875,36.6875,8.25,8.34,3.63,-3.64,moving,3
6.45,1848170.654996088,23,3,3,0,3,0.37,0.86,2.32,-8.01,-2.78,5.87,119.8125,122.0,-59.25,0.56439208984375,0.29718017578125,-0.76983642578125,-0.02386474609375,-44.0625,37.5,3.375,8.38,3.64,-3.54,moving,3
6.46,1848170.654996088,23,3,3,0,3,-0.83,0.59,3.48,-9.3,-3.13,6.71,88.125,255.5,-89.1875,0.57891845703125,0.30792236328125,-0.7548828125,-0.01568603515625,-44.0625,37.5,3.375,8.47,3.72,-3.22,moving,3
6.47,1848170.670214391,23,3,3,0,3,-1.5,0.73,3.56,-10.1,-3.14,6.23,45.875,400.0625,-120.1875,0.60345458984375,0.3184814453125,-0.73101806640625,-0.00799560546875,-44.0625,37.5,3.375,8.6,3.88,-2.66,moving,3
6.48,1848170.670214391,23,3,3,0,3,-2.18,0.17,3.64,-10.89,-3.91,5.51,0.125,530.0,-141.4375,0.63641357421875,0.32745361328125,-0.6983642578125,-0.00067138671875,-44.0625,37.5,3.375,8.71,4.09,-1.86,moving,3
6.49,1848170.70097912,23,3,3,0,3,-2.59,-1.51,2.65,-11.36,-5.82,3.47,-57.75,654.9375,-134.625,0.67681884765625,0.3319091796875,-0.65704345703125,0.00701904296875,-44.0625,37.5,3.375,8.76,4.31,-0.82,moving,3
6.5,1848170.70097912,23,3,3,0,3,-2.4,-1.94,0.51,-11.13,-6.39,0.12,-136.25,730.0,-83.5,0.72113037109375,0.3275146484375,-0.6103515625,0.015380859375,-45.5,35.6875,-6.0625,8.73,4.44,0.39,moving,3
6.51,1848170.715471389,23,3,3,0,3,-2.48,-1.38,-2.22,-11.09,-5.79,-3.84,-231.9375,693.25,2.4375,0.7630615234375,0.31121826171875,-0.56597900390625,0.02294921875,-45.5,35.6875,-6.0625,8.61,4.4,1.62,moving,3
6.52,1848170.715471389,23,3,3,0,3,-3.51,-0.42,-5.36,-11.97,-4.61,-8.01,-305.25,535.1875,63.125,0.7965087890625,0.28631591796875,-0.5318603515625,0.026611328125,-45.5,35.6875,-6.0625,8.45,4.19,2.65,moving,3
6.53,1848170.730071609,23,3,3,0,3,-0.47,-2.43,-10.13,-8.85,-6.35,-13.39,-274.5625,284.875,91.1875,0.81585693359375,0.26214599609375,-0.51470947265625,0.02728271484375,-45.5,35.6875,-6.0625,8.37,3.91,3.26,moving,3
6.54,1848170.730071609,23,3,3,0,3,1.88,-2.57,-9.38,-6.59,-6.21,-12.71,-128.1875,-14.0,138.75,0.8177490234375,0.246826171875,-0.51910400390625,0.03106689453125,-45.5,35.6875,-6.0625,8.47,3.64,3.32,moving,3
6.55,1848170.742160883,23,3,3,0,3,3.51,-2.12,-7.11,-5.23,-5.5,-9.97,72.875,-283.5625,197.5625,0.8023681640625,0.24371337890625,-0.54315185546875,0.0423583984375,-39.375,32.6875,-26.75,8.74,3.38,2.85,moving,3
6.56,1848170.742160883,23,3,3,0,3,7.37,-0.8,-5.48,-1.72,-3.92,-7.4,257.0,-503.3125,240.375,0.77105712890625,0.25177001953125,-0.58172607421875,0.06060791015625,-39.375,32.6875,-26.75,9.09,3.11,1.92,moving,3
6.57,1848170.775179519,23,3,3,0,3,11.37,0.41,-7.17,1.98,-2.37,-7.68,405.5,-745.625,255.6875,0.7208251953125,0.26922607421875,-0.6334228515625,0.08172607421875,-39.375,32.6875,-26.75,9.38,2.79,0.51,moving,3
6.58,1848170.775179519,23,3,3,0,3,17.07,1.78,-10.48,7.66,-0.56,-8.99,551.3125,-1071.8125,244.25,0.6431884765625,0.29632568359375,-0.69866943359375,0.101806640625,-39.375,32.6875,-26.75,9.4,2.34,-1.48,moving,3
6.59,1848170.790525466,23,3,3,0,3,23.82,1.85,-13.76,15.01,0.19,-9.79,717.8125,-1405.125,216.25,0.531982421875,0.33270263671875,-0.76934814453125,0.1202392578125,-39.375,32.6875,-26.75,8.81,1.65,-3.97,moving,3
6.6,1848170.790525466,23,3,3,0,3,37.17,2.25,-7.64,29.45,1.46,-1.64,698.625,-1299.875,179.6875,0.41900634765625,0.3636474609375,-0.8206787109375,0.1365966796875,-34.375,39.25,-23.75,7.71,0.78,-5.99,moving,3
6.61,1848170.806852289,23,3,3,0,3,39.08,9.12,-14.03,31.86,8.79,-7.4,256.125,-468.4375,135.6875,0.37530517578125,0.368408203125,-0.83807373046875,0.1448974609375,-34.375,39.25,-23.75,7.21,0.32,-6.63,moving,3
6.62,1848170.806852289,23,3,3,0,3,33.75,13.61,-20.6,26.15,13.22,-14.43,-229.4375,342.875,152.0,0.405517578125,0.34521484375,-0.83404541015625,0.14404296875,-34.375,39.25,-23.75,7.6,0.38,-6.17,moving,3
6.63,1848170.835600947,23,3,3,0,3,21.48,6.76,-17.53,13.26,6.09,-12.23,-285.6875,613.9375,3.8125,0.4578857421875,0.3265380859375,-0.81463623046875,0.14166259765625,-34.375,39.25,-23.75,8.22,0.66,-5.3,moving,3
6.64,1848170.835600947,23,3,3,0,3,17.15,-2.27,-7.1,8.47,-3.29,-2.66,-199.75,559.1875,-122.0625,0.504150390625,0.31988525390625,-0.7901611328125,0.1383056640625,-34.375,39.25,-23.75,8.68,1.01,-4.44,moving,3
6.65,1848170.846770909,23,3,3,0,3,17.15,-2.27,-7.1,8.47,-3.29,-2.66,-199.75,559.1875,-122.0625,0.504150390625,0.31988525390625,-0.7901611328125,0.1383056640625,-34.375,39.25,-23.75,8.68,1.01,-4.44,moving,3
6.65,1848170.846770909,23,3,3,0,3,15.3,0.0,-5.89,6.4,-1.38,-2.02,-151.0,355.8125,-164.4375,0.53448486328125,0.320068359375,-0.771240234375,0.13055419921875,-40.1875,38.875,-7.25,8.9,1.38,-3.86,moving,3
6.66,1848170.864409459,23,3,3,0,3,14.51,2.03,-3.16,5.53,0.35,0.4,-104.1875,171.625,-150.75,0.550537109375,0.32330322265625,-0.76007080078125,0.12127685546875,-40.1875,38.875,-7.25,8.97,1.68,-3.57,moving,3
6.67,1848170.864409459,23,3,3,0,3,14.32,4.39,-1.54,5.32,2.5,1.86,-114.1875,81.1875,-82.5,0.5599365234375,0.3223876953125,-0.75494384765625,0.112060546875,-40.1875,38.875,-7.25,8.99,1.88,-3.41,moving,3
6.68,1848170.878921381,23,3,3,0,3,12.28,4.8,-3.05,3.29,2.78,0.29,-173.75,1.0,-21.8125,0.5650634765625,0.3153076171875,-0.75592041015625,0.09954833984375,-40.1875,38.875,-7.25,8.99,2.01,-3.35,moving,3
6.69,1848170.878921381,23,3,3,0,3,13.0,2.59,-2.13,4.05,0.47,1.26,-215.75,-83.9375,15.25,0.565185546875,0.3043212890625,-0.76220703125,0.08380126953125,-40.1875,38.875,-7.25,8.94,2.12,-3.4,moving,3
6.7,1848170.890374588,23,3,3,0,3,13.61,1.2,-1.09,4.71,-1.0,2.36,-226.0,-93.5625,27.375,0.56463623046875,0.29193115234375,-0.76898193359375,0.067626953125,-39.1875,38.875,-14.875,8.9,2.21,-3.46,moving,3
6.71,1848170.890374588,23,3,3,0,3,11.82,-1.14,-0.75,2.94,-3.47,2.67,-207.125,-30.9375,4.125,0.5677490234375,0.28155517578125,-0.771728515625,0.05316162109375,-39.1875,38.875,-14.875,8.88,2.33,-3.42,moving,3
6.72,1848170.921672561,23,3,3,0,3,9.46,-1.79,-0.51,0.57,-4.27,2.8,-176.9375,26.1875,-29.5,0.57391357421875,0.274658203125,-0.77044677734375,0.0404052734375,-39.1875,38.875,-14.875,8.88,2.48,-3.31,moving,3
6.73,1848170.921672561,23,3,3,0,3,6.81,-1.77,-0.09,-2.07,-4.42,3.08,-157.6875,46.9375,-52.4375,0.58099365234375,0.27008056640625,-0.76727294921875,0.0283203125,-39.1875,38.875,-14.875,8.89,2.65,-3.17,moving,3
6.74,1848170.957126826,23,3,3,0,3,4.36,-1.27,0.26,-4.52,-4.1,3.26,-147.9375,63.9375,-63.75,0.58880615234375,0.2666015625,-0.7628173828125,0.0167236328125,-39.1875,38.875,-14.875,8.89,2.82,-3.0,moving,3
6.75,1848170.957126826,23,3,3,0,3,0.15,0.44,1.01,-8.75,-2.57,3.78,-137.625,101.5,-80.1875,0.59881591796875,0.26470947265625,-0.755859375,0.005859375,-40.25,41.375,-5.6875,8.9,3.02,-2.77,moving,3
6.76,1848170.965676752,23,3,3,0,3,-0.95,0.72,0.87,-9.87,-2.52,3.32,-129.375,160.1875,-108.125,0.6123046875,0.264892578125,-0.744873046875,-0.004638671875,-40.25,41.375,-5.6875,8.92,3.24,-2.45,moving,3
6.77,1848170.965676752,23,3,3,0,3,-2.01,1.44,1.27,-10.93,-2.06,3.34,-133.375,200.25,-133.625,0.628173828125,0.2664794921875,-0.7308349609375,-0.0157470703125,-40.25,41.375,-5.6875,8.92,3.5,-2.06,moving,3
6.78,1848170.986314773,23,3,3,0,3,-2.78,2.29,1.7,-11.67,-1.5,3.3,-152.1875,235.625,-155.375,0.64630126953125,0.26824951171875,-0.71380615234375,-0.02850341796875,-40.25,41.375,-5.6875,8.89,3.79,-1.59,moving,3
6.79,1848170.986314773,23,3,3,0,3,-2.9,2.25,1.9,-11.74,-1.84,2.92,-168.875,293.8125,-170.5,0.66778564453125,0.2698974609375,-0.6925048828125,-0.04168701171875,-40.25,41.375,-5.6875,8.84,4.1,-1.02,moving,3
6.8,1848170.994468745,23,3,3,0,3,-3.43,1.57,1.5,-12.18,-2.83,1.84,-187.5,357.125,-181.125,0.69256591796875,0.27099609375,-0.666259765625,-0.05511474609375,-41.5,39.1875,-5.25,8.75,4.4,-0.33,moving,3
6.81,1848170.994468745,23,3,3,0,3,-3.98,0.56,0.64,-12.58,-4.12,0.2,-216.5,403.8125,-191.0,0.7196044921875,0.27069091796875,-0.63568115234375,-0.069580078125,-41.5,39.1875,-5.25,8.6,4.68,0.44,moving,3
6.82,1848171.012638666,23,3,3,0,3,-4.22,-0.55,-0.42,-12.6,-5.48,-1.7,-255.125,425.75,-188.9375,0.74725341796875,0.26739501953125,-0.602294921875,-0.08544921875,-41.5,39.1875,-5.25,8.37,4.92,1.28,moving,3
6.83,1848171.012638666,23,3,3,0,3,-3.01,-1.38,-3.71,-11.12,-6.46,-5.85,-296.125,411.4375,-170.25,0.773681640625,0.25982666015625,-0.56866455078125,-0.1024169921875,-41.5,39.1875,-5.25,8.1,5.08,2.13,moving,3
6.84,1848171.049272252,23,3,3,0,3,-2.39,-1.02,-6.52,-10.25,-6.15,-9.37,-329.5,304.3125,-133.125,0.79443359375,0.2467041015625,-0.541748046875,-0.1207275390625,-41.5,39.1875,-5.25,7.85,5.12,2.85,moving,3
6.85,1848171.049272252,23,3,3,0,3,-1.01,-0.23,-8.67,-8.73,-5.32,-11.96,-323.375,103.0625,-96.75,0.80487060546875,0.2298583984375,-0.52880859375,-0.14044189453125,-45.375,33.0,-12.5,7.71,5.08,3.28,moving,3
6.86,1848171.061867508,23,3,3,0,3,3.66,0.19,-8.45,-4.06,-4.84,-11.77,-220.9375,-117.875,-57.5,0.80291748046875,0.2154541015625,-0.53314208984375,-0.156982421875,-45.375,33.0,-12.5,7.73,5.03,3.32,moving,3
6.87,1848171.061867508,23,3,3,0,3,6.37,0.76,-7.17,-1.53,-4.24,-10.09,-45.75,-320.75,2.8125,0.78857421875,0.2076416015625,-0.5548095703125,-0.16485595703125,-45.375,33.0,-12.5,7.9,5.0,2.92,moving,3
6.88,1848171.08936409,23,3,3,0,3,11.0,1.94,-7.87,2.78,-3.0,-9.9,134.875,-555.25,80.9375,0.75946044921875,0.20477294921875,-0.59564208984375,-0.16259765625,-45.375,33.0,-12.5,8.22,4.94,2.02,moving,3
6.89,1848171.08936409,23,3,3,0,3,16.03,2.86,-9.32,7.48,-1.91,-9.73,319.6875,-920.625,165.5625,0.70562744140625,0.2034912109375,-0.6617431640625,-0.15087890625,-45.375,33.0,-12.5,8.55,4.77,0.4,moving,3
6.9,1848171.096333572,23,3,3,0,3,16.03,2.86,-9.32,7.48,-1.91,-9.73,319.6875,-920.625,165.5625,0.70562744140625,0.2034912109375,-0.6617431640625,-0.15087890625,-45.375,33.0,-12.5,8.55,4.77,0.4,moving,3
6.91,1848171.096333572,23,3,3,0,3,24.96,4.64,-5.12,16.4,0.27,-3.19,500.1875,-1298.875,223.25,0.62005615234375,0.20281982421875,-0.74658203125,-0.13031005859375,-46.1875,31.1875,-11.375,8.56,4.37,-1.93,moving,3
6.91,1848171.120263178,23,3,3,0,3,28.91,10.24,-2.3,20.88,6.5,1.88,535.1875,-1297.0,237.125,0.5247802734375,0.20001220703125,-0.82073974609375,-0.104736328125,-46.1875,31.1875,-11.375,8.03,3.74,-4.19,moving,3
6.92,1848171.120263178,23,3,3,0,3,37.99,16.06,-8.51,30.42,12.78,-3.21,355.5,-658.0,122.4375,0.4715576171875,0.2010498046875,-0.85443115234375,-0.0849609375,-46.1875,31.1875,-11.375,7.56,3.28,-5.3,moving,3
6.93,1848171.134323522,23,3,3,0,3,39.08,27.36,-6.54,31.34,24.07,-1.48,-30.8125,177.0625,15.125,0.48529052734375,0.199951171875,-0.8470458984375,-0.08349609375,-46.1875,31.1875,-11.375,7.73,3.29,-5.05,moving,3
6.94,1848171.134323522,23,3,3,0,3,15.51,3.44,-10.41,7.41,-0.1,-6.18,-148.0,530.75,-103.0,0.5257568359375,0.20489501953125,-0.82073974609375,-0.08941650390625,-46.1875,31.1875,-11.375,8.1,3.55,-4.22,moving,3
6.95,1848171.149577265,23,3,3,0,3,12.51,2.8,-10.07,4.16,-1.0,-6.63,-34.4375,528.4375,-161.75,0.562255859375,0.21875,-0.79241943359375,-0.0897216796875,-35.6875,39.5,16.0,8.35,3.8,-3.44,moving,3
6.96,1848171.149577265,23,3,3,0,3,11.13,5.91,-9.39,2.66,2.0,-6.37,37.9375,309.3125,-88.375,0.58197021484375,0.22906494140625,-0.77557373046875,-0.08551025390625,-35.6875,39.5,16.0,8.46,3.91,-3.01,moving,3
6.97,1848171.179876378,23,3,3,0,3,12.42,9.41,-5.89,3.94,5.5,-2.9,50.75,43.25,-17.5625,0.583740234375,0.23309326171875,-0.77337646484375,-0.08209228515625,-35.6875,39.5,16.0,8.47,3.91,-2.99,moving,3
6.98,1848171.179876378,23,3,3,0,3,16.04,10.74,-2.15,7.58,6.87,0.93,6.8125,-65.625,28.1875,0.57940673828125,0.2310791015625,-0.77734375,-0.08148193359375,-35.6875,39.5,16.0,8.46,3.86,-3.09,moving,3
6.99,1848171.194732823,23,3,3,0,3,15.7,7.65,-2.31,7.25,3.81,0.86,-0.375,-54.0625,22.75,0.57586669921875,0.2291259765625,-0.780517578125,-0.0814208984375,-35.6875,39.5,16.0,8.45,3.83,-3.17,moving,3
7.0,1848171.194732823,23,3,3,0,3,14.6,5.46,-2.32,6.15,1.63,0.85,64.125,24.875,-23.4375,0.57611083984375,0.234130859375,-0.77923583984375,-0.07769775390625,-41.75,36.5625,5.5,8.44,3.83,-3.17,moving,3
7.01,1848171.206824864,23,3,3,0,3,9.53,3.53,-2.9,1.07,-0.3,0.24,134.5,84.1875,-54.3125,0.57867431640625,0.2451171875,-0.7747802734375,-0.069580078125,-41.75,36.5625,5.5,8.45,3.83,-3.14,moving,3
7.02,1848171.206824864,23,3,3,0,3,6.65,3.86,-2.57,-1.8,0.03,0.58,168.25,71.25,-58.0,0.5794677734375,0.25787353515625,-0.77081298828125,-0.0595703125,-41.75,36.5625,5.5,8.45,3.83,-3.15,moving,3
7.03,1848171.242198481,23,3,3,0,3,4.56,3.8,-1.92,-3.87,-0.02,1.27,178.8125,47.625,-64.25,0.57818603515625,0.271484375,-0.767822265625,-0.0496826171875,-41.75,36.5625,5.5,8.44,3.82,-3.2,moving,3
7.04,1848171.242198481,23,3,3,0,3,2.96,3.68,-0.65,-5.47,-0.14,2.56,179.5,66.5625,-72.25,0.5780029296875,0.28558349609375,-0.76336669921875,-0.03973388671875,-41.75,36.5625,5.5,8.43,3.83,-3.22,moving,3
7.05,1848171.257996943,23,3,3,0,3,0.95,2.92,1.22,-7.49,-0.94,4.35,161.375,133.625,-86.9375,0.58245849609375,0.2999267578125,-0.7548828125,-0.030029296875,-42.0625,36.5625,4.0,8.44,3.87,-3.13,moving,3
7.06,1848171.257996943,23,3,3,0,3,-0.22,2.33,2.14,-8.7,-1.62,5.06,115.25,198.9375,-102.25,0.5921630859375,0.31292724609375,-0.74224853515625,-0.02239990234375,-42.0625,36.5625,4.0,8.48,3.96,-2.91,moving,3
7.07,1848171.26415596,23,3,3,0,3,-1.78,2.03,3.1,-10.31,-2.07,5.65,49.1875,271.5,-118.375,0.60797119140625,0.32354736328125,-0.72479248046875,-0.0179443359375,-42.0625,36.5625,4.0,8.52,4.11,-2.55,moving,3
7.08,1848171.26415596,23,3,3,0,3,-2.09,1.59,3.59,-10.67,-2.73,5.55,-16.5,387.3125,-137.4375,0.63232421875,0.331787109375,-0.69989013671875,-0.01531982421875,-42.0625,36.5625,4.0,8.58,4.32,-1.96,moving,3
7.09,1848171.301162226,23,3,3,0,3,-1.19,0.56,3.02,-9.8,-3.99,4.15,-70.0625,516.625,-141.625,0.66497802734375,0.33685302734375,-0.66650390625,-0.012451171875,-42.0625,36.5625,4.0,8.6,4.55,-1.13,moving,3
7.1,1848171.301162226,23,3,3,0,3,-1.51,-0.03,1.62,-10.08,-4.79,1.73,-120.25,617.5,-125.0,0.70318603515625,0.3372802734375,-0.6258544921875,-0.008544921875,-45.0625,33.375,-5.1875,8.57,4.75,-0.1,moving,3
7.11,1848171.315722285,23,3,3,0,3,-2.1,-0.04,-0.71,-10.56,-4.89,-1.73,-181.8125,655.25,-75.4375,0.742919921875,0.33013916015625,-0.582275390625,-0.00384521484375,-45.0625,33.375,-5.1875,8.45,4.85,1.01,moving,3
7.12,1848171.315722285,23,3,3,0,3,-3.06,0.49,-3.35,-11.36,-4.28,-5.45,-250.25,600.3125,-0.8125,0.77935791015625,0.31365966796875,-0.54241943359375,0.00067138671875,-45.0625,33.375,-5.1875,8.29,4.78,2.1,moving,3
7.13,1848171.329489619,23,3,3,0,3,-3.24,-0.58,-8.64,-11.38,-5.16,-11.61,-291.75,434.4375,54.1875,0.80706787109375,0.29095458984375,-0.5137939453125,0.00244140625,-45.0625,33.375,-5.1875,8.14,4.58,2.96,moving,3
7.14,1848171.329489619,23,3,3,0,3,-1.47,-2.16,-8.94,-9.59,-6.49,-12.33,-251.3125,160.0625,82.4375,0.8203125,0.2694091796875,-0.5045166015625,0.00103759765625,-45.0625,33.375,-5.1875,8.12,4.32,3.39,moving,3
7.15,1848171.359965205,23,3,3,0,3,0.68,-2.58,-7.46,-7.6,-6.67,-10.75,-127.5625,-136.125,115.625,0.817138671875,0.25518798828125,-0.516845703125,0.00054931640625,-42.0625,29.75,-23.5,8.28,4.08,3.28,moving,3
7.16,1848171.359965205,23,3,3,0,3,0.68,-2.58,-7.46,-7.6,-6.67,-10.75,-127.5625,-136.125,115.625,0.817138671875,0.25518798828125,-0.516845703125,0.00054931640625,-42.0625,29.75,-23.5,8.28,4.08,3.28,moving,3
7.17,1848171.370080439,23,3,3,0,3,4.01,-0.97,-4.44,-4.57,-4.85,-7.17,34.625,-366.1875,154.3125,0.79937744140625,0.25054931640625,-0.54608154296875,0.00494384765625,-42.0625,29.75,-23.5,8.58,3.87,2.72,moving,3
7.17,1848171.370080439,23,3,3,0,3,6.27,0.05,-4.62,-2.64,-3.62,-6.4,193.1875,-533.125,182.0,0.76861572265625,0.2552490234375,-0.58636474609375,0.01513671875,-42.0625,29.75,-23.5,8.91,3.67,1.78,moving,3
7.18,1848171.391244135,23,3,3,0,3,9.18,0.85,-5.64,0.0,-2.57,-6.09,333.625,-720.5,198.5,0.72222900390625,0.26776123046875,-0.63702392578125,0.0294189453125,-42.0625,29.75,-23.5,9.17,3.42,0.44,moving,3
7.19,1848171.391244135,23,3,3,0,3,11.99,1.0,-6.92,2.77,-2.05,-5.58,468.6875,-944.125,205.1875,0.65545654296875,0.28704833984375,-0.69708251953125,0.046142578125,-42.0625,29.75,-23.5,9.22,3.05,-1.33,moving,3
7.2,1848171.402426753,23,3,3,0,3,22.5,2.36,-4.2,13.64,-0.13,-0.81,593.375,-1115.6875,202.4375,0.568359375,0.31121826171875,-0.75885009765625,0.0654296875,-35.6875,36.25,-21.25,8.85,2.49,-3.38,moving,3
7.21,1848171.402426753,23,3,3,0,3,28.69,4.39,-2.68,20.52,2.62,2.43,575.375,-1022.25,201.0625,0.4813232421875,0.3304443359375,-0.807373046875,0.0853271484375,-35.6875,36.25,-21.25,8.17,1.76,-5.11,moving,3
7.22,1848171.418763911,23,3,3,0,3,38.65,8.73,-6.87,30.89,7.47,-1.01,297.6875,-472.875,160.625,0.43768310546875,0.334716796875,-0.82855224609375,0.0992431640625,-35.6875,36.25,-21.25,7.76,1.26,-5.85,moving,3
7.23,1848171.418763911,23,3,3,0,3,39.02,12.77,-17.11,31.11,11.66,-11.43,-89.75,112.25,172.8125,0.44683837890625,0.31781005859375,-0.8299560546875,0.1026611328125,-35.6875,36.25,-21.25,7.91,1.11,-5.68,moving,3
7.24,1848171.450577794,23,3,3,0,3,21.05,-0.52,-8.12,12.81,-1.75,-2.96,-197.0,337.4375,54.875,0.4759521484375,0.30291748046875,-0.819580078125,0.099853515625,-35.6875,36.25,-21.25,8.24,1.22,-5.16,moving,3
7.25,1848171.450577794,23,3,3,0,3,17.18,-1.82,-8.01,8.56,-3.25,-3.54,-131.0625,457.0625,-63.4375,0.51220703125,0.29779052734375,-0.79937744140625,0.09979248046875,-38.25,38.375,-5.875,8.61,1.42,-4.46,moving,3
7.26,1848171.459706172,23,3,3,0,3,14.08,2.48,-8.1,5.22,0.9,-4.21,-66.3125,368.25,-66.0,0.5399169921875,0.2960205078125,-0.7813720703125,0.10174560546875,-38.25,38.375,-5.875,8.86,1.57,-3.88,moving,3
7.27,1848171.459706172,23,3,3,0,3,14.88,6.44,-4.44,5.94,4.76,-0.78,-64.5,129.125,-41.125,0.55072021484375,0.29461669921875,-0.77471923828125,0.0987548828125,-38.25,38.375,-5.875,8.93,1.68,-3.66,moving,3
7.28,1848171.479920039,23,3,3,0,3,16.22,7.51,-4.9,7.3,5.76,-1.23,-139.5625,-32.875,13.5,0.55194091796875,0.2872314453125,-0.77777099609375,0.08917236328125,-38.25,38.375,-5.875,8.92,1.74,-3.67,moving,3
7.29,1848171.479920039,23,3,3,0,3,16.28,4.74,-4.12,7.42,2.93,-0.33,-167.25,-105.0,36.0625,0.54864501953125,0.27752685546875,-0.784912109375,0.076904296875,-38.25,38.375,-5.875,8.86,1.8,-3.78,moving,3
7.3,1848171.511247187,23,3,3,0,3,15.94,2.13,-3.61,7.11,0.25,0.22,-151.4375,-69.875,18.0625,0.54736328125,0.26947021484375,-0.78961181640625,0.06573486328125,-36.0625,41.0,-10.0625,8.82,1.87,-3.84,moving,3
7.31,1848171.511247187,23,3,3,0,3,14.8,0.57,-3.54,5.98,-1.4,0.25,-137.9375,1.125,-11.0,0.55072021484375,0.26361083984375,-0.7900390625,0.05572509765625,-36.0625,41.0,-10.0625,8.82,1.98,-3.79,moving,3
7.32,1848171.52496435,23,3,3,0,3,11.46,-0.58,-2.63,2.63,-2.71,1.06,-144.0625,29.0625,-32.75,0.55615234375,0.2587890625,-0.7884521484375,0.04486083984375,-36.0625,41.0,-10.0625,8.82,2.12,-3.7,moving,3
7.33,1848171.52496435,23,3,3,0,3,10.11,-0.79,-1.91,1.28,-3.09,1.66,-156.125,38.5625,-44.8125,0.5625,0.25408935546875,-0.7861328125,0.0328369140625,-36.0625,41.0,-10.0625,8.83,2.29,-3.58,moving,3
7.34,1848171.543028844,23,3,3,0,3,8.96,-0.85,-1.45,0.1,-3.32,1.96,-154.8125,60.5,-50.5,0.5701904296875,0.249755859375,-0.7823486328125,0.0211181640625,-36.0625,41.0,-10.0625,8.85,2.46,-3.42,moving,3
7.35,1848171.543028844,23,3,3,0,3,5.28,-0.13,-0.22,-3.58,-2.76,3.0,-138.5625,85.3125,-55.875,0.57904052734375,0.2464599609375,-0.77703857421875,0.0107421875,-36.5,42.0625,-4.0625,8.87,2.63,-3.22,moving,3
7.36,1848171.570860387,23,3,3,0,3,3.1,0.22,0.19,-5.79,-2.57,3.18,-117.625,118.0,-69.3125,0.589599609375,0.24505615234375,-0.76959228515625,0.0018310546875,-36.5,42.0625,-4.0625,8.9,2.8,-2.98,moving,3
7.37,1848171.570860387,23,3,3,0,3,0.62,0.77,0.91,-8.31,-2.22,3.61,-109.125,145.75,-86.5625,0.6016845703125,0.24517822265625,-0.7601318359375,-0.0068359375,-36.5,42.0625,-4.0625,8.93,2.99,-2.7,moving,3
7.38,1848171.579639969,23,3,3,0,3,-1.4,1.74,1.24,-10.35,-1.46,3.63,-128.5,159.3125,-105.5,0.61480712890625,0.24542236328125,-0.74932861328125,-0.0174560546875,-36.5,42.0625,-4.0625,8.95,3.21,-2.38,moving,3
7.39,1848171.579639969,23,3,3,0,3,-2.94,3.26,1.36,-11.89,-0.21,3.37,-151.4375,181.75,-126.5625,0.62957763671875,0.24578857421875,-0.73638916015625,-0.03021240234375,-36.5,42.0625,-4.0625,8.94,3.47,-2.01,moving,3
7.4,1848171.599856318,23,3,3,0,3,-2.66,3.08,1.28,-11.59,-0.65,2.85,-163.0625,220.625,-137.0625,0.64666748046875,0.24609375,-0.72064208984375,-0.04345703125,-36.5625,39.875,-2.0625,8.93,3.73,-1.56,moving,3
7.41,1848171.599856318,23,3,3,0,3,-2.55,2.63,1.44,-11.44,-1.34,2.49,-180.3125,251.25,-134.75,0.66558837890625,0.2452392578125,-0.70257568359375,-0.05694580078125,-36.5625,39.875,-2.0625,8.89,3.98,-1.05,moving,3
7.42,1848171.614235875,23,3,3,0,3,-2.55,2.63,1.44,-11.44,-1.34,2.49,-180.3125,251.25,-134.75,0.66558837890625,0.2452392578125,-0.70257568359375,-0.05694580078125,-36.5625,39.875,-2.0625,8.89,3.98,-1.05,moving,3
7.43,1848171.614235875,23,3,3,0,3,-2.71,1.98,0.95,-11.55,-2.23,1.42,-214.125,274.6875,-131.8125,0.68597412109375,0.24212646484375,-0.682373046875,-0.07183837890625,-36.5625,39.875,-2.0625,8.83,4.21,-0.47,moving,3
7.43,1848171.627383865,23,3,3,0,3,-2.77,0.33,-0.99,-11.52,-4.08,-1.15,-262.8125,283.0625,-126.375,0.7071533203125,0.23553466796875,-0.66070556640625,-0.0889892578125,-36.5625,39.875,-2.0625,8.75,4.42,0.15,moving,3
7.44,1848171.627383865,23,3,3,0,3,-2.11,-0.73,-2.57,-10.75,-5.29,-3.39,-319.375,268.625,-107.5,0.7279052734375,0.22393798828125,-0.63897705078125,-0.10845947265625,-36.5625,39.875,-2.0625,8.64,4.55,0.81,moving,3
7.45,1848171.659460363,23,3,3,0,3,-0.86,-1.63,-4.07,-9.41,-6.23,-5.5,-368.875,210.875,-76.8125,0.74560546875,0.2066650390625,-0.6201171875,-0.129638671875,-40.875,36.5625,-4.0625,8.54,4.59,1.42,moving,3
7.46,1848171.659460363,23,3,3,0,3,0.32,-2.5,-6.37,-8.14,-7.07,-8.27,-387.8125,106.5625,-51.5,0.75732421875,0.185302734375,-0.60748291015625,-0.1519775390625,-40.875,36.5625,-4.0625,8.47,4.56,1.89,moving,3
7.47,1848171.675350255,23,3,3,0,3,3.77,-3.32,-11.29,-4.7,-7.82,-13.32,-323.875,-88.5625,-32.625,0.757080078125,0.16436767578125,-0.6082763671875,-0.17266845703125,-40.875,36.5625,-4.0625,8.47,4.5,2.02,moving,3
7.48,1848171.675350255,23,3,3,0,3,6.33,-2.48,-9.94,-2.23,-6.93,-11.6,-157.1875,-327.0,-5.3125,0.7415771484375,0.14923095703125,-0.6270751953125,-0.1859130859375,-40.875,36.5625,-4.0625,8.57,4.45,1.65,moving,3
7.49,1848171.691078852,23,3,3,0,3,7.68,-1.7,-8.73,-1.03,-6.1,-9.58,43.8125,-512.1875,39.9375,0.712890625,0.14141845703125,-0.66082763671875,-0.1873779296875,-40.875,36.5625,-4.0625,8.71,4.4,0.84,moving,3
7.5,1848171.691078852,23,3,3,0,3,8.8,-0.02,-8.04,-0.01,-4.3,-7.74,224.3125,-638.75,85.75,0.67352294921875,0.1397705078125,-0.70404052734375,-0.17669677734375,-43.375,32.5625,-2.5,8.81,4.28,-0.29,moving,3
7.51,1848171.716770381,23,3,3,0,3,10.37,1.17,-7.92,1.6,-2.87,-6.24,370.75,-730.4375,108.3125,0.62420654296875,0.14324951171875,-0.75201416015625,-0.156005859375,-43.375,32.5625,-2.5,8.76,4.05,-1.68,moving,3
7.52,1848171.716770381,23,3,3,0,3,14.29,4.46,-4.49,5.77,0.74,-1.36,464.625,-746.375,93.4375,0.5689697265625,0.15179443359375,-0.79779052734375,-0.12939453125,-43.375,32.5625,-2.5,8.51,3.71,-3.12,moving,3
7.53,1848171.734532506,23,3,3,0,3,24.92,4.79,-2.85,16.71,1.39,1.3,454.9375,-509.5625,19.3125,0.52679443359375,0.16693115234375,-0.8270263671875,-0.103271484375,-43.375,32.5625,-2.5,8.2,3.4,-4.15,moving,3
7.54,1848171.734532506,23,3,3,0,3,38.83,21.56,8.16,30.77,18.38,12.76,284.0,-196.0625,3.75,0.50830078125,0.1778564453125,-0.8382568359375,-0.08538818359375,-43.375,32.5625,-2.5,8.05,3.17,-4.59,moving,3
7.55,1848171.744466181,23,3,3,0,3,28.66,23.23,-9.05,20.39,20.02,-4.86,-135.4375,233.3125,50.0,0.52764892578125,0.16986083984375,-0.82745361328125,-0.08941650390625,-37.25,35.5625,14.5625,8.26,3.2,-4.18,moving,3
7.56,1848171.744466181,23,3,3,0,3,19.55,9.29,-11.61,11.0,5.88,-8.22,-282.3125,437.8125,-12.125,0.56280517578125,0.1610107421875,-0.80413818359375,-0.103759765625,-37.25,35.5625,14.5625,8.54,3.41,-3.38,moving,3
7.57,1848171.782337763,23,3,3,0,3,16.0,4.83,-7.03,7.3,1.28,-4.22,-75.8125,349.6875,-62.3125,0.5875244140625,0.1646728515625,-0.78497314453125,-0.10711669921875,-37.25,35.5625,14.5625,8.69,3.54,-2.81,moving,3
7.58,1848171.782337763,23,3,3,0,3,17.69,11.35,-2.17,8.94,7.77,0.43,57.1875,159.0625,-40.25,0.59716796875,0.171875,-0.7767333984375,-0.10296630859375,-37.25,35.5625,14.5625,8.74,3.58,-2.6,moving,3
7.59,1848171.799205073,23,3,3,0,3,17.79,9.42,-2.74,9.07,5.87,-0.01,76.5625,-52.25,-5.125,0.5924072265625,0.17572021484375,-0.780029296875,-0.09881591796875,-37.25,35.5625,14.5625,8.72,3.55,-2.73,moving,3
7.6,1848171.799205073,23,3,3,0,3,17.18,6.76,-2.98,8.53,3.26,0.02,95.9375,-147.8125,3.125,0.58087158203125,0.17913818359375,-0.7884521484375,-0.0943603515625,-35.1875,38.875,13.1875,8.65,3.5,-3.01,moving,3
7.61,1848171.809597733,23,3,3,0,3,16.4,5.23,-3.01,7.83,1.77,0.27,136.6875,-129.5,-21.9375,0.569580078125,0.18646240234375,-0.795654296875,-0.08807373046875,-35.1875,38.875,13.1875,8.56,3.45,-3.29,moving,3
7.62,1848171.809597733,23,3,3,0,3,13.44,3.76,-4.06,4.94,0.32,-0.59,175.0,-54.1875,-56.0,0.56243896484375,0.1986083984375,-0.79864501953125,-0.07958984375,-35.1875,38.875,13.1875,8.5,3.43,-3.47,moving,3
7.63,1848171.838253738,23,3,3,0,3,11.46,3.41,-4.26,3.0,-0.01,-0.67,189.9375,0.1875,-77.75,0.55853271484375,0.21331787109375,-0.79852294921875,-0.07012939453125,-35.1875,38.875,13.1875,8.45,3.43,-3.59,moving,3
7.64,1848171.838253738,23,3,3,0,3,9.43,3.09,-3.87,1.02,-0.33,-0.2,183.0625,19.6875,-79.0625,0.55596923828125,0.227783203125,-0.79705810546875,-0.06085205078125,-35.1875,38.875,13.1875,8.41,3.43,-3.67,moving,3
7.65,1848171.854403966,23,3,3,0,3,5.27,3.38,-3.33,-3.12,-0.03,0.39,170.3125,29.9375,-61.75,0.55426025390625,0.240478515625,-0.795166015625,-0.0513916015625,-35.875,38.5,9.0,8.4,3.41,-3.72,moving,3
7.66,1848171.854403966,23,3,3,0,3,3.44,3.46,-2.56,-4.95,0.09,1.21,163.125,31.375,-41.5,0.55279541015625,0.2513427734375,-0.79339599609375,-0.04144287109375,-35.875,38.5,9.0,8.39,3.36,-3.77,moving,3
7.67,1848171.868227534,23,3,3,0,3,2.31,3.6,-1.61,-6.08,0.28,2.2,158.25,31.625,-32.9375,0.5513916015625,0.2613525390625,-0.7916259765625,-0.0313720703125,-35.875,38.5,9.0,8.4,3.31,-3.82,moving,3
7.68,1848171.868227534,23,3,3,0,3,1.65,3.84,-0.52,-6.75,0.57,3.32,147.625,43.25,-34.0,0.55084228515625,0.2708740234375,-0.78912353515625,-0.02178955078125,-35.875,38.5,9.0,8.4,3.26,-3.84,moving,3
7.69,1848171.884632319,23,3,3,0,3,1.65,3.84,-0.52,-6.75,0.57,3.32,147.625,43.25,-34.0,0.55084228515625,0.2708740234375,-0.78912353515625,-0.02178955078125,-35.875,38.5,9.0,8.4,3.26,-3.84,moving,3
7.69,1848171.884632319,23,3,3,0,3,0.97,3.77,1.69,-7.46,0.53,5.5,126.625,72.0,-40.125,0.552734375,0.27984619140625,-0.78485107421875,-0.0133056640625,-35.875,38.5,9.0,8.43,3.23,-3.81,moving,3
7.7,1848171.898577265,23,3,3,0,3,0.94,3.27,2.18,-7.55,0.02,5.86,94.3125,128.25,-48.5,0.55908203125,0.287841796875,-0.77752685546875,-0.00604248046875,-38.0,38.1875,4.0625,8.49,3.24,-3.67,moving,3
7.71,1848171.898577265,23,3,3,0,3,0.72,2.94,2.4,-7.85,-0.34,5.81,53.4375,197.0,-53.4375,0.57098388671875,0.29412841796875,-0.7664794921875,-0.0001220703125,-38.0,38.1875,4.0625,8.58,3.29,-3.41,moving,3
7.72,1848171.929371089,23,3,3,0,3,0.5,2.42,2.28,-8.18,-0.94,5.3,11.0625,262.75,-55.8125,0.588134765625,0.29827880859375,-0.751708984375,0.00457763671875,-38.0,38.1875,4.0625,8.69,3.37,-3.02,moving,3
7.73,1848171.929371089,23,3,3,0,3,-0.1,1.22,1.65,-8.92,-2.24,4.17,-31.9375,314.125,-49.25,0.609375,0.2996826171875,-0.7340087890625,0.00811767578125,-38.0,38.1875,4.0625,8.82,3.46,-2.52,moving,3
7.74,1848171.939339473,23,3,3,0,3,0.24,0.29,1.1,-8.68,-3.25,3.04,-75.125,343.125,-34.9375,0.633056640625,0.29754638671875,-0.714599609375,0.01043701171875,-38.0,38.1875,4.0625,8.93,3.54,-1.94,moving,3
7.75,1848171.939339473,23,3,3,0,3,0.65,-0.65,0.34,-8.36,-4.24,1.7,-120.4375,328.25,-4.3125,0.6563720703125,0.29071044921875,-0.69610595703125,0.01116943359375,-39.375,36.6875,-4.0,9.02,3.58,-1.35,moving,3
7.76,1848171.959593948,23,3,3,0,3,0.58,-1.15,-0.62,-8.52,-4.7,0.19,-157.8125,278.4375,46.125,0.677001953125,0.27850341796875,-0.68121337890625,0.01129150390625,-39.375,36.6875,-4.0,9.1,3.54,-0.81,moving,3
7.78,1848171.959593948,23,3,3,0,3,-0.36,-1.4,-5.19,-9.55,-4.81,-4.84,-174.0625,219.3125,94.4375,0.69390869140625,0.26226806640625,-0.67047119140625,0.0118408203125,-39.375,36.6875,-4.0,9.18,3.41,-0.35,moving,3
7.78,1848171.991205765,23,3,3,0,3,-0.16,-2.03,-8.88,-9.42,-5.25,-8.79,-152.4375,113.0,119.625,0.70379638671875,0.24591064453125,-0.6663818359375,0.01275634765625,-39.375,36.6875,-4.0,9.25,3.22,-0.08,moving,3
7.79,1848171.991205765,23,3,3,0,3,1.23,-2.57,-10.95,-8.08,-5.59,-10.77,-64.125,-78.25,126.0625,0.700439453125,0.23468017578125,-0.67388916015625,0.01507568359375,-39.375,36.6875,-4.0,9.32,3.02,-0.18,moving,3
7.8,1848172.00727803,23,3,3,0,3,6.86,-1.66,-10.49,-2.5,-4.46,-9.8,93.1875,-286.125,134.1875,0.68121337890625,0.2327880859375,-0.6937255859375,0.02288818359375,-38.0,36.375,-11.1875,9.37,2.79,-0.69,moving,3
7.81,1848172.00727803,23,3,3,0,3,9.51,-0.9,-10.57,0.16,-3.39,-9.0,276.6875,-458.75,153.5625,0.64678955078125,0.24053955078125,-0.72265625,0.03936767578125,-38.0,36.375,-11.1875,9.35,2.49,-1.57,moving,3
7.82,1848172.018559118,23,3,3,0,3,11.44,-0.3,-11.55,2.25,-2.34,-8.8,446.375,-621.5,174.1875,0.59625244140625,0.25628662109375,-0.75811767578125,0.06414794921875,-38.0,36.375,-11.1875,9.18,2.04,-2.75,moving,3
7.83,1848172.018559118,23,3,3,0,3,13.08,-0.27,-12.98,4.31,-1.7,-8.83,591.4375,-778.0,168.0625,0.52862548828125,0.27923583984375,-0.7960205078125,0.09429931640625,-38.0,36.375,-11.1875,8.76,1.42,-4.15,moving,3
7.84,1848172.053433507,23,3,3,0,3,21.63,2.96,0.67,13.55,2.29,6.19,678.5,-848.5,124.0,0.45013427734375,0.3074951171875,-0.828857421875,0.1258544921875,-38.0,36.375,-11.1875,8.07,0.66,-5.52,moving,3
7.86,1848172.053433507,23,3,3,0,3,39.08,23.07,9.21,31.51,22.98,15.45,471.625,-500.0625,62.0,0.39990234375,0.326416015625,-0.84344482421875,0.14874267578125,-33.6875,40.375,-6.6875,7.56,0.09,-6.23,moving,3
7.87,1848172.065547765,23,3,3,0,3,27.47,15.75,-19.81,19.68,15.68,-13.86,-205.8125,211.5,183.0,0.41876220703125,0.30291748046875,-0.84356689453125,0.14593505859375,-33.6875,40.375,-6.6875,7.79,0.07,-5.94,moving,3
7.88,1848172.065547765,23,3,3,0,3,18.76,0.28,-12.44,10.64,0.01,-6.96,-344.1875,327.8125,106.3125,0.45025634765625,0.278076171875,-0.8380126953125,0.13299560546875,-33.6875,40.375,-6.6875,8.12,0.26,-5.48,moving,3
7.88,1848172.074702306,23,3,3,0,3,14.67,-2.55,-5.88,6.21,-3.04,-0.95,-255.75,371.8125,13.0,0.48309326171875,0.2625732421875,-0.8260498046875,0.12371826171875,-33.6875,40.375,-6.6875,8.46,0.48,-4.92,moving,3
7.89,1848172.074702306,23,3,3,0,3,14.49,-2.09,-5.04,5.74,-2.81,-0.68,-188.75,364.375,-53.3125,0.51397705078125,0.25433349609375,-0.81097412109375,0.11614990234375,-33.6875,40.375,-6.6875,8.75,0.71,-4.36,moving,3
7.9,1848172.111252965,23,3,3,0,3,14.36,-0.89,-4.42,5.42,-1.89,-0.52,-117.0,285.25,-126.375,0.53778076171875,0.25506591796875,-0.79620361328125,0.1085205078125,-29.25,42.5,-6.1875,8.94,0.99,-3.9,moving,3
7.91,1848172.111252965,23,3,3,0,3,13.35,-0.22,-3.01,4.3,-1.48,0.54,-17.3125,218.4375,-158.8125,0.55474853515625,0.26312255859375,-0.7823486328125,0.10467529296875,-29.25,42.5,-6.1875,9.05,1.25,-3.55,moving,3
7.92,1848172.124366206,23,3,3,0,3,10.74,2.42,-1.13,1.62,1.01,2.17,50.875,161.375,-119.8125,0.56561279296875,0.27227783203125,-0.77117919921875,0.10601806640625,-29.25,42.5,-6.1875,9.12,1.41,-3.31,moving,3
7.93,1848172.124366206,23,3,3,0,3,11.02,5.54,1.15,1.88,4.05,4.39,23.3125,46.0,-48.5625,0.568603515625,0.2762451171875,-0.76751708984375,0.10626220703125,-29.25,42.5,-6.1875,9.13,1.48,-3.24,moving,3
7.94,1848172.136766312,23,3,3,0,3,11.02,5.54,1.15,1.88,4.05,4.39,23.3125,46.0,-48.5625,0.568603515625,0.2762451171875,-0.76751708984375,0.10626220703125,-29.25,42.5,-6.1875,9.13,1.48,-3.24,moving,3
7.95,1848172.136766312,23,3,3,0,3,11.69,5.23,-0.93,2.6,3.69,2.4,-100.875,-78.875,1.3125,0.56573486328125,0.2718505859375,-0.7723388671875,0.09771728515625,-29.25,42.5,-6.1875,9.09,1.53,-3.34,stop,3
7.96,1848172.154471471,23,3,3,0,3,12.35,2.05,-1.54,3.34,0.48,1.98,-153.8125,-145.4375,34.75,0.5592041015625,0.26312255859375,-0.781494140625,0.0855712890625,-30.375,41.375,-9.25,9.01,1.57,-3.52,stop,3
7.96,1848172.154471471,23,3,3,0,3,13.03,0.11,-0.79,4.08,-1.47,2.9,-134.6875,-130.875,45.625,0.552978515625,0.25439453125,-0.789794921875,0.07562255859375,-30.375,41.375,-9.25,8.94,1.58,-3.69,stop,3
7.97,1848172.164375361,23,3,3,0,3,12.64,-0.15,-0.91,3.74,-1.77,2.85,-109.5625,-68.375,21.375,0.55059814453125,0.248046875,-0.794189453125,0.06756591796875,-30.375,41.375,-9.25,8.9,1.62,-3.77,stop,3
7.98,1848172.164375361,23,3,3,0,3,11.54,-0.75,-1.06,2.63,-2.46,2.67,-87.875,4.5,-15.125,0.55291748046875,0.24481201171875,-0.79412841796875,0.06085205078125,-30.375,41.375,-9.25,8.9,1.7,-3.73,stop,3
7.99,1848172.196460973,23,3,3,0,3,8.94,-0.43,-1.63,0.01,-2.24,2.0,-72.75,53.0,-40.9375,0.558349609375,0.243896484375,-0.791015625,0.05499267578125,-30.375,41.375,-9.25,8.92,1.81,-3.63,stop,3
8.0,1848172.196460973,23,3,3,0,3,8.05,-0.22,-1.5,-0.89,-2.18,2.0,-60.5625,70.0,-62.8125,0.5648193359375,0.244873046875,-0.7864990234375,0.0491943359375,-32.1875,41.875,-4.6875,8.94,1.95,-3.5,stop,3
8.01,1848172.21507751,23,3,3,0,3,7.21,0.02,-1.02,-1.75,-2.07,2.32,-51.8125,81.8125,-78.125,0.57183837890625,0.247314453125,-0.78094482421875,0.0435791015625,-32.1875,41.875,-4.6875,8.97,2.1,-3.35,stop,3
8.03,1848172.21507751,23,3,3,0,3,6.49,0.33,-0.85,-2.5,-1.92,2.3,-50.625,109.5625,-82.5,0.5806884765625,0.25,-0.7738037109375,0.03839111328125,-32.1875,41.875,-4.6875,9.0,2.26,-3.16,stop,3
8.04,1848172.229204544,23,3,3,0,3,4.48,0.84,-1.44,-4.55,-1.56,1.49,-53.25,131.6875,-78.1875,0.59100341796875,0.2520751953125,-0.7655029296875,0.03369140625,-32.1875,41.875,-4.6875,9.04,2.41,-2.93,stop,3
8.04,1848172.229204544,23,3,3,0,3,3.6,0.99,-1.49,-5.47,-1.56,1.2,-55.75,127.75,-69.1875,0.6009521484375,0.25341796875,-0.75750732421875,0.02923583984375,-32.1875,41.875,-4.6875,9.07,2.55,-2.7,stop,3
8.05,1848172.256888789,23,3,3,0,3,2.92,0.9,-1.84,-6.17,-1.77,0.65,-59.625,114.125,-61.375,0.60992431640625,0.2540283203125,-0.750244140625,0.02459716796875,-32.1875,42.25,-4.25,9.09,2.67,-2.49,stop,3
8.06,1848172.256888789,23,3,3,0,3,2.32,0.9,-2.1,-6.78,-1.87,0.22,-65.6875,84.875,-49.8125,0.6170654296875,0.25360107421875,-0.74468994140625,0.01953125,-32.1875,42.25,-4.25,9.1,2.78,-2.33,stop,3
8.07,1848172.273211991,23,3,3,0,3,1.99,1.0,-2.68,-7.11,-1.86,-0.45,-69.25,46.6875,-35.4375,0.6217041015625,0.2520751953125,-0.741455078125,0.01416015625,-32.1875,42.25,-4.25,9.11,2.86,-2.22,stop,3
8.08,1848172.273211991,23,3,3,0,3,2.14,0.72,-2.72,-6.95,-2.19,-0.54,-66.1875,5.5,-21.8125,0.62359619140625,0.24981689453125,-0.74072265625,0.0087890625,-32.1875,42.25,-4.25,9.1,2.92,-2.17,stop,3
8.1,1848172.290934728,23,3,3,0,3,2.56,0.39,-2.73,-6.51,-2.56,-0.53,-56.625,-31.5,-9.8125,0.622802734375,0.2474365234375,-0.74224853515625,0.00396728515625,-32.1875,42.25,-4.25,9.08,2.96,-2.19,stop,3
8.11,1848172.290934728,23,3,3,0,3,3.22,0.14,-2.63,-5.83,-2.83,-0.36,-38.1875,-60.9375,0.3125,0.61968994140625,0.245361328125,-0.74554443359375,0.00018310546875,-35.5,39.6875,-4.0,9.06,2.97,-2.27,stop,3
8.12,1848172.321034663,23,3,3,0,3,4.65,-0.25,-2.55,-4.37,-3.23,-0.16,-11.125,-78.9375,4.5,0.61480712890625,0.24444580078125,-0.74981689453125,-0.00201416015625,-35.5,39.6875,-4.0,9.03,2.97,-2.39,stop,3
8.13,1848172.321034663,23,3,3,0,3,5.37,-0.34,-2.67,-3.61,-3.3,-0.13,20.875,-89.625,5.5,0.6085205078125,0.2451171875,-0.7547607421875,-0.00225830078125,-35.5,39.6875,-4.0,8.99,2.95,-2.54,stop,3
8.13,1848172.333689408,23,3,3,0,3,6.32,-0.22,-2.84,-2.62,-3.14,-0.11,51.9375,-100.875,9.5625,0.60076904296875,0.2471923828125,-0.76025390625,-0.00048828125,-35.5,39.6875,-4.0,8.95,2.91,-2.72,stop,3
8.14,1848172.333689408,23,3,3,0,3,9.47,1.19,-2.82,0.56,-1.65,0.11,74.5,-114.0625,19.8125,0.591552734375,0.249755859375,-0.7666015625,0.0030517578125,-35.5,39.6875,-4.0,8.9,2.85,-2.94,stop,3
8.15,1848172.35117187,23,3,3,0,3,11.38,2.22,-2.55,2.52,-0.52,0.63,78.25,-134.625,39.4375,0.580810546875,0.25115966796875,-0.7742919921875,0.0074462890625,-35.5,39.375,-1.6875,8.85,2.74,-3.18,stop,3
8.17,1848172.35117187,23,3,3,0,3,14.3,6.13,-0.73,5.51,3.51,2.71,34.875,-161.625,73.375,0.56903076171875,0.248046875,-0.783935546875,0.00994873046875,-35.5,39.375,-1.6875,8.79,2.61,-3.45,stop,3
8.18,1848172.381115474,23,3,3,0,3,17.06,8.82,-5.19,8.32,6.32,-1.52,-91.1875,-170.25,113.125,0.55914306640625,0.23583984375,-0.7947998046875,0.00567626953125,-35.5,39.375,-1.6875,8.74,2.49,-3.67,stop,3
8.19,1848172.381115474,23,3,3,0,3,21.2,2.23,-7.89,12.55,-0.16,-3.95,-149.3125,-219.375,128.875,0.54681396484375,0.21966552734375,-0.80792236328125,-0.00286865234375,-35.5,39.375,-1.6875,8.65,2.4,-3.94,stop,3
8.2,1848172.390845291,23,3,3,0,3,23.0,0.61,-6.99,14.45,-1.7,-2.79,-111.25,-204.0625,102.375,0.53448486328125,0.20703125,-0.81939697265625,-0.009765625,-35.5,39.375,-1.6875,8.54,2.32,-4.2,stop,3
8.21,1848172.390845291,23,3,3,0,3,23.0,0.61,-6.99,14.45,-1.7,-2.79,-111.25,-204.0625,102.375,0.53448486328125,0.20703125,-0.81939697265625,-0.009765625,-35.5,39.375,-1.6875,8.54,2.32,-4.2,stop,3
8.21,1848172.404211828,23,3,3,0,3,21.94,1.29,-6.21,13.43,-1.03,-1.92,-65.5625,-76.1875,34.4375,0.5302734375,0.201416015625,-0.82342529296875,-0.01416015625,-34.0,39.6875,1.75,8.5,2.32,-4.28,stop,3
8.21,1848172.404211828,23,3,3,0,3,18.5,2.61,-4.85,9.96,0.19,-0.69,-21.75,77.9375,-53.1875,0.53619384765625,0.20428466796875,-0.81884765625,-0.01678466796875,-34.0,39.6875,1.75,8.54,2.41,-4.16,stop,3
8.22,1848172.420045283,23,3,3,0,3,12.12,4.07,-2.48,3.49,1.5,1.4,3.8125,181.25,-103.75,0.548828125,0.21209716796875,-0.808349609375,-0.01812744140625,-34.0,39.6875,1.75,8.62,2.57,-3.89,stop,3
8.23,1848172.420045283,23,3,3,0,3,9.72,3.91,-1.68,1.02,1.14,1.88,-11.1875,205.0,-125.875,0.563232421875,0.220703125,-0.7960205078125,-0.0211181640625,-34.0,39.6875,1.75,8.7,2.76,-3.57,stop,3
8.25,1848172.434925248,23,3,3,0,3,7.89,3.2,-1.09,-0.86,0.22,2.15,-34.3125,203.875,-125.3125,0.57769775390625,0.22802734375,-0.7833251953125,-0.02569580078125,-34.0,39.6875,1.75,8.76,2.97,-3.24,stop,3
8.26,1848172.434925248,23,3,3,0,3,6.43,2.78,-0.56,-2.37,-0.38,2.36,-52.625,186.75,-106.375,0.5911865234375,0.23297119140625,-0.771484375,-0.03094482421875,-31.5,41.1875,4.0625,8.8,3.16,-2.93,stop,3
8.27,1848172.470530472,23,3,3,0,3,4.61,2.85,-0.52,-4.21,-0.48,2.13,-63.25,155.9375,-87.3125,0.60272216796875,0.2359619140625,-0.76141357421875,-0.0364990234375,-31.5,41.1875,4.0625,8.83,3.33,-2.65,stop,3
8.28,1848172.470530472,23,3,3,0,3,4.2,2.68,-0.55,-4.64,-0.78,1.87,-48.75,130.25,-76.875,0.612060546875,0.2388916015625,-0.75274658203125,-0.04107666015625,-31.5,41.1875,4.0625,8.84,3.47,-2.42,stop,3
8.29,1848172.48593603,23,3,3,0,3,3.72,2.56,-0.27,-5.12,-1.02,1.97,-17.4375,107.0625,-66.25,0.6192626953125,0.24267578125,-0.7454833984375,-0.04351806640625,-31.5,41.1875,4.0625,8.84,3.58,-2.24,stop,3
8.29,1848172.48593603,23,3,3,0,3,2.97,2.82,0.32,-5.86,-0.83,2.44,3.75,79.625,-53.0,0.6241455078125,0.24658203125,-0.74005126953125,-0.04443359375,-31.5,41.1875,4.0625,8.84,3.66,-2.12,stop,3
8.3,1848172.499828364,23,3,3,0,3,3.33,2.77,0.11,-5.5,-0.94,2.15,7.8125,56.9375,-39.375,0.6275634765625,0.249755859375,-0.736083984375,-0.04486083984375,-36.0625,37.875,1.75,8.84,3.72,-2.04,stop,3
8.31,1848172.499828364,23,3,3,0,3,3.79,2.45,-0.31,-5.04,-1.29,1.68,5.75,34.625,-18.3125,0.62957763671875,0.2513427734375,-0.7337646484375,-0.04473876953125,-36.0625,37.875,1.75,8.84,3.74,-1.99,stop,3
8.33,1848172.525059362,23,3,3,0,3,4.47,1.94,-0.6,-4.36,-1.78,1.39,12.75,2.0,3.875,0.6295166015625,0.25177001953125,-0.7337646484375,-0.04364013671875,-36.0625,37.875,1.75,8.84,3.73,-1.99,stop,3
8.34,1848172.525059362,23,3,3,0,3,6.21,1.27,-1.18,-2.62,-2.41,0.9,33.0625,-42.125,21.9375,0.62615966796875,0.25201416015625,-0.7366943359375,-0.04119873046875,-36.0625,37.875,1.75,8.84,3.69,-2.08,stop,3
8.35,1848172.543947953,23,3,3,0,3,6.85,1.04,-1.44,-1.97,-2.56,0.82,66.125,-93.9375,36.375,0.61883544921875,0.2529296875,-0.7427978515625,-0.03704833984375,-36.0625,37.875,1.75,8.83,3.6,-2.26,stop,3
8.36,1848172.543947953,23,3,3,0,3,7.44,0.87,-1.98,-1.35,-2.62,0.56,106.1875,-139.75,46.9375,0.6075439453125,0.255126953125,-0.7515869140625,-0.03070068359375,-38.6875,35.75,-0.5,8.8,3.49,-2.54,stop,3
8.37,1848172.575308426,23,3,3,0,3,7.7,0.84,-2.57,-1.04,-2.48,0.33,147.0,-180.0,56.6875,0.592529296875,0.25860595703125,-0.7625732421875,-0.02203369140625,-38.6875,35.75,-0.5,8.75,3.33,-2.91,stop,3
8.38,1848172.575308426,23,3,3,0,3,8.16,1.46,-4.51,-0.51,-1.66,-1.18,177.875,-211.125,65.75,0.574462890625,0.262939453125,-0.77508544921875,-0.01153564453125,-38.6875,35.75,-0.5,8.67,3.13,-3.33,stop,3
8.38,1848172.592441646,23,3,3,0,3,8.59,1.96,-5.49,0.02,-0.93,-1.7,192.4375,-232.5,74.1875,0.55419921875,0.2672119140625,-0.788330078125,-0.0001220703125,-38.6875,35.75,-0.5,8.56,2.9,-3.78,stop,3
8.4,1848172.592441646,23,3,3,0,3,9.57,2.48,-6.58,1.13,-0.17,-2.35,187.9375,-240.4375,80.25,0.53314208984375,0.2706298828125,-0.801513671875,0.01104736328125,-38.6875,35.75,-0.5,8.43,2.65,-4.22,stop,3
8.41,1848172.604378779,23,3,3,0,3,11.02,2.84,-7.06,2.72,0.42,-2.44,164.8125,-218.75,74.25,0.51373291015625,0.27325439453125,-0.81298828125,0.0208740234375,-37.875,38.25,0.6875,8.3,2.42,-4.62,stop,3
8.42,1848172.604378779,23,3,3,0,3,13.49,3.42,-8.03,5.27,1.17,-3.16,117.0625,-137.75,51.4375,0.50103759765625,0.2750244140625,-0.820068359375,0.02825927734375,-37.875,38.25,0.6875,8.21,2.24,-4.86,stop,3
8.43,1848172.618163407,23,3,3,0,3,13.09,3.84,-8.09,4.88,1.67,-3.17,47.3125,-19.3125,23.5,0.49847412109375,0.27545166015625,-0.82135009765625,0.0322265625,-37.875,38.25,0.6875,8.2,2.17,-4.91,stop,3
8.44,1848172.618163407,23,3,3,0,3,11.85,3.55,-7.43,3.57,1.37,-2.64,-10.75,88.0,4.6875,0.50506591796875,0.2744140625,-0.817626953125,0.03375244140625,-37.875,38.25,0.6875,8.28,2.17,-4.78,stop,3
8.45,1848172.645079748,23,3,3,0,3,10.11,3.36,-6.24,1.72,1.14,-1.68,-52.5,139.375,1.625,0.5162353515625,0.271484375,-0.81158447265625,0.033447265625,-37.875,38.25,0.6875,8.39,2.21,-4.55,stop,3
8.46,1848172.645079748,23,3,3,0,3,9.58,3.08,-5.5,1.08,0.8,-1.17,-80.3125,130.5625,-0.6875,0.52734375,0.26751708984375,-0.80584716796875,0.03082275390625,-33.875,40.0625,-0.1875,8.49,2.28,-4.33,stop,3
8.46,1848172.660959875,23,3,3,0,3,9.58,3.08,-5.5,1.08,0.8,-1.17,-80.3125,130.5625,-0.6875,0.52734375,0.26751708984375,-0.80584716796875,0.03082275390625,-33.875,40.0625,-0.1875,8.49,2.28,-4.33,stop,3
8.47,1848172.660959875,23,3,3,0,3,9.2,2.67,-4.85,0.63,0.31,-0.72,-88.625,109.4375,-6.25,0.537109375,0.2635498046875,-0.80084228515625,0.02685546875,-33.875,40.0625,-0.1875,8.57,2.35,-4.13,stop,3
8.48,1848172.680884598,23,3,3,0,3,9.12,2.07,-4.3,0.48,-0.35,-0.35,-79.625,96.25,-13.0625,0.54571533203125,0.260498046875,-0.796142578125,0.02288818359375,-33.875,40.0625,-0.1875,8.63,2.43,-3.95,stop,3
8.49,1848172.680884598,23,3,3,0,3,9.06,1.12,-3.74,0.37,-1.38,0.04,-57.0,89.5,-24.3125,0.55322265625,0.25927734375,-0.7913818359375,0.01983642578125,-33.875,40.0625,-0.1875,8.68,2.5,-3.79,stop,3
8.5,1848172.690222163,23,3,3,0,3,8.94,1.41,-3.64,0.21,-1.16,0.01,-24.6875,84.5,-38.75,0.5596923828125,0.26055908203125,-0.78643798828125,0.0181884765625,-33.875,40.0625,-0.1875,8.72,2.58,-3.65,stop,3
8.51,1848172.690222163,23,3,3,0,3,8.83,1.66,-3.44,0.07,-0.98,0.09,12.1875,79.4375,-51.5,0.56494140625,0.26458740234375,-0.78131103515625,0.018310546875,-33.875,40.0625,-1.1875,8.75,2.65,-3.53,stop,3
8.52,1848172.720157344,23,3,3,0,3,8.46,1.65,-3.39,-0.3,-1.05,0.06,40.625,67.5,-54.125,0.5687255859375,0.2701416015625,-0.77667236328125,0.02001953125,-33.875,40.0625,-1.1875,8.76,2.7,-3.45,stop,3
8.53,1848172.720157344,23,3,3,0,3,7.2,2.38,-2.97,-1.56,-0.36,0.45,49.4375,35.125,-43.5625,0.57000732421875,0.27545166015625,-0.77374267578125,0.02203369140625,-33.875,40.0625,-1.1875,8.76,2.74,-3.42,stop,3
8.54,1848172.735605708,23,3,3,0,3,7.2,2.72,-2.86,-1.54,-0.03,0.58,41.5,-4.8125,-26.8125,0.56878662109375,0.279296875,-0.77325439453125,0.02337646484375,-33.875,40.0625,-1.1875,8.75,2.76,-3.45,stop,3
8.55,1848172.735605708,23,3,3,0,3,7.49,2.79,-2.64,-1.23,0.03,0.88,30.1875,-38.1875,-10.8125,0.56549072265625,0.2816162109375,-0.77484130859375,0.02398681640625,-33.875,40.0625,-1.1875,8.72,2.75,-3.52,stop,3
8.56,1848172.755524369,23,3,3,0,3,7.75,2.45,-2.68,-0.93,-0.29,0.93,26.25,-51.75,-1.75,0.56134033203125,0.28314208984375,-0.77728271484375,0.0244140625,-35.6875,38.25,-3.0625,8.69,2.74,-3.61,stop,3
8.57,1848172.755524369,23,3,3,0,3,8.07,2.11,-3.38,-0.58,-0.61,0.32,33.0,-54.0,-3.75,0.556884765625,0.28509521484375,-0.77972412109375,0.025146484375,-35.6875,38.25,-3.0625,8.65,2.72,-3.71,stop,3
8.58,1848172.767836665,23,3,3,0,3,8.07,2.16,-3.7,-0.53,-0.54,0.11,47.25,-52.875,-10.3125,0.5521240234375,0.2882080078125,-0.78192138671875,0.02655029296875,-35.6875,38.25,-3.0625,8.61,2.71,-3.81,stop,3
8.59,1848172.767836665,23,3,3,0,3,8.13,2.26,-3.94,-0.44,-0.43,-0.03,58.125,-47.875,-15.4375,0.5474853515625,0.2921142578125,-0.78363037109375,0.028564453125,-35.6875,38.25,-3.0625,8.57,2.69,-3.91,stop,3
8.6,1848172.800008296,23,3,3,0,3,8.29,2.62,-4.14,-0.24,-0.05,-0.14,60.4375,-38.5625,-16.25,0.5433349609375,0.29620361328125,-0.784912109375,0.03094482421875,-35.6875,38.25,-3.0625,8.54,2.68,-3.99,stop,3
8.61,1848172.800008296,23,3,3,0,3,8.39,2.55,-4.31,-0.12,-0.1,-0.25,50.0625,-26.5625,-12.3125,0.540283203125,0.29949951171875,-0.78570556640625,0.03314208984375,-36.0625,37.1875,-2.6875,8.52,2.66,-4.06,stop,3
8.62,1848172.814753454,23,3,3,0,3,8.47,2.56,-4.36,-0.02,-0.08,-0.25,32.75,-18.75,-5.875,0.53814697265625,0.301513671875,-0.78631591796875,0.03460693359375,-36.0625,37.1875,-2.6875,8.5,2.64,-4.1,stop,3
8.63,1848172.814753454,23,3,3,0,3,8.7,2.57,-4.5,0.21,-0.06,-0.37,17.5,-11.5625,1.5625,0.53692626953125,0.30224609375,-0.786865234375,0.03558349609375,-36.0625,37.1875,-2.6875,8.49,2.63,-4.12,stop,3
8.64,1848172.827264237,23,3,3,0,3,9.31,2.46,-4.48,0.82,-0.15,-0.33,12.4375,-6.875,5.75,0.5361328125,0.30242919921875,-0.78729248046875,0.03656005859375,-36.0625,37.1875,-2.6875,8.49,2.61,-4.14,stop,3
8.65,1848172.827264237,23,3,3,0,3,9.51,2.45,-4.47,1.02,-0.14,-0.3,19.0,-7.4375,4.4375,0.53509521484375,0.30303955078125,-0.78765869140625,0.03790283203125,-36.0625,37.1875,-2.6875,8.49,2.59,-4.16,stop,3
8.66,1848172.862704789,23,3,3,0,3,9.55,2.64,-4.5,1.07,0.07,-0.31,31.8125,-11.9375,1.375,0.533447265625,0.304443359375,-0.78814697265625,0.03985595703125,-35.6875,36.75,-3.5,8.48,2.56,-4.19,stop,3
8.67,1848172.862704789,23,3,3,0,3,9.75,3.05,-4.34,1.28,0.52,-0.09,43.1875,-19.9375,0.4375,0.53094482421875,0.3065185546875,-0.7889404296875,0.04229736328125,-35.6875,36.75,-3.5,8.46,2.53,-4.24,stop,3
8.68,1848172.879496496,23,3,3,0,3,10.64,4.92,-2.99,2.19,2.41,1.29,38.875,-21.0,0.3125,0.5284423828125,0.308349609375,-0.78973388671875,0.04443359375,-35.6875,36.75,-3.5,8.45,2.5,-4.29,stop,3
8.69,1848172.879496496,23,3,3,0,3,9.78,4.6,-3.75,1.33,2.1,0.53,1.625,-1.125,4.25,0.5283203125,0.30816650390625,-0.78985595703125,0.044677734375,-35.6875,36.75,-3.5,8.45,2.5,-4.29,stop,3
8.7,1848172.905421545,23,3,3,0,3,8.96,3.37,-4.33,0.49,0.86,-0.07,-29.1875,13.1875,7.8125,0.530029296875,0.30621337890625,-0.78961181640625,0.04339599609375,-35.6875,36.75,-3.5,8.46,2.51,-4.26,stop,3
8.71,1848172.905421545,23,3,3,0,3,8.62,2.58,-4.28,0.14,0.06,-0.04,-26.25,5.0,7.625,0.53106689453125,0.304443359375,-0.7896728515625,0.0421142578125,-35.6875,36.5,-3.875,8.47,2.51,-4.24,stop,3
8.72,1848172.919628495,23,3,3,0,3,8.86,2.85,-3.76,0.38,0.33,0.47,-15.5625,-9.1875,6.4375,0.53082275390625,0.30328369140625,-0.790283203125,0.04107666015625,-35.6875,36.5,-3.875,8.47,2.52,-4.24,stop,3
8.73,1848172.919628495,23,3,3,0,3,8.77,2.93,-3.68,0.3,0.41,0.56,-15.1875,-6.125,4.6875,0.53076171875,0.30230712890625,-0.790771484375,0.04010009765625,-35.6875,36.5,-3.875,8.46,2.52,-4.24,stop,3
8.74,1848172.935714717,23,3,3,0,3,8.54,2.68,-3.65,0.07,0.14,0.57,-22.75,9.3125,2.5625,0.53204345703125,0.301025390625,-0.79046630859375,0.0389404296875,-35.6875,36.5,-3.875,8.47,2.53,-4.22,stop,3
8.75,1848172.935714717,23,3,3,0,3,8.27,2.38,-3.61,-0.21,-0.17,0.56,-29.75,19.625,2.6875,0.5341796875,0.29937744140625,-0.7896728515625,0.03753662109375,-35.6875,36.5,-3.875,8.49,2.55,-4.18,stop,3
8.76,1848172.964903072,23,3,3,0,3,8.29,2.33,-3.25,-0.21,-0.24,0.88,-30.3125,20.0625,2.9375,0.536376953125,0.29766845703125,-0.7889404296875,0.03607177734375,-36.0625,37.875,-3.5,8.51,2.57,-4.13,stop,3
8.77,1848172.964903072,23,3,3,0,3,8.41,2.47,-3.05,-0.11,-0.11,1.03,-25.9375,20.125,1.75,0.5384521484375,0.2962646484375,-0.7880859375,0.034912109375,-36.0625,37.875,-3.5,8.52,2.58,-4.09,stop,3
8.78,1848172.979474646,23,3,3,0,3,8.5,2.49,-3.01,-0.03,-0.11,1.03,-23.0625,24.375,-0.0625,0.54071044921875,0.29510498046875,-0.7869873046875,0.03399658203125,-36.0625,37.875,-3.5,8.54,2.6,-4.04,stop,3
8.79,1848172.979474646,23,3,3,0,3,8.67,2.25,-3.2,0.11,-0.36,0.79,-23.8125,26.0625,-0.5625,0.54315185546875,0.2939453125,-0.78582763671875,0.032958984375,-36.0625,37.875,-3.5,8.56,2.62,-3.99,stop,3
8.8,1848172.995039261,23,3,3,0,3,8.8,2.24,-3.21,0.22,-0.39,0.74,-23.5,23.8125,-1.0,0.54541015625,0.29278564453125,-0.78472900390625,0.03192138671875,-36.0625,37.875,-3.5,8.57,2.64,-3.95,stop,3
8.81,1848172.995039261,23,3,3,0,3,8.86,2.34,-3.22,0.27,-0.31,0.68,-19.375,24.0625,-2.375,0.54754638671875,0.2919921875,-0.7835693359375,0.0311279296875,-35.75,36.75,-3.0625,8.59,2.65,-3.9,stop,3
8.82,1848173.025327307,23,3,3,0,3,8.79,2.48,-3.22,0.18,-0.19,0.63,-15.875,26.5625,-3.75,0.5498046875,0.2913818359375,-0.7822265625,0.030517578125,-35.75,36.75,-3.0625,8.6,2.67,-3.85,stop,3
8.83,1848173.025327307,23,3,3,0,3,8.78,2.64,-3.29,0.16,-0.04,0.51,-15.0625,28.0625,-4.25,0.5521240234375,0.2908935546875,-0.78076171875,0.030029296875,-35.75,36.75,-3.0625,8.62,2.69,-3.8,stop,3
8.84,1848173.037676997,23,3,3,0,3,8.96,2.66,-3.24,0.31,-0.04,0.52,-16.0,26.375,-3.5625,0.55438232421875,0.290283203125,-0.77947998046875,0.0294189453125,-35.75,36.75,-3.0625,8.64,2.7,-3.76,stop,3
8.85,1848173.037676997,23,3,3,0,3,9.17,2.72,-3.19,0.51,0.0,0.51,-17.6875,24.8125,-2.3125,0.5565185546875,0.28948974609375,-0.7781982421875,0.02874755859375,-35.75,36.75,-3.0625,8.65,2.72,-3.71,stop,3
8.86,1848173.05511466,23,3,3,0,3,9.31,2.74,-3.04,0.64,0.01,0.62,-18.125,24.0,-1.8125,0.55865478515625,0.28863525390625,-0.77703857421875,0.028076171875,-35.0625,36.75,-3.5,8.67,2.73,-3.66,stop,3
8.87,1848173.05511466,23,3,3,0,3,9.46,2.76,-2.81,0.77,0.01,0.8,-17.9375,25.875,-2.625,0.5609130859375,0.28790283203125,-0.7757568359375,0.02734375,-35.0625,36.75,-3.5,8.68,2.75,-3.62,stop,3
8.88,1848173.06596077,23,3,3,0,3,9.52,2.77,-2.82,0.82,0.0,0.74,-16.0,28.25,-4.5625,0.563232421875,0.287353515625,-0.7742919921875,0.02679443359375,-35.0625,36.75,-3.5,8.7,2.76,-3.57,stop,3
8.89,1848173.06596077,23,3,3,0,3,9.4,2.75,-2.55,0.68,-0.02,0.97,-11.8125,28.3125,-6.1875,0.56549072265625,0.287109375,-0.772705078125,0.0263671875,-35.0625,36.75,-3.5,8.71,2.78,-3.52,stop,3
8.9,1848173.098960445,23,3,3,0,3,9.19,2.66,-2.64,0.45,-0.13,0.82,-8.0625,28.1875,-8.5625,0.567626953125,0.28717041015625,-0.7711181640625,0.026123046875,-35.0625,36.75,-3.5,8.73,2.8,-3.47,stop,3
8.91,1848173.098960445,23,3,3,0,3,9.09,2.68,-2.57,0.35,-0.13,0.86,-2.5625,25.6875,-10.625,0.5694580078125,0.2877197265625,-0.76959228515625,0.02606201171875,-35.75,36.5,-3.5,8.74,2.81,-3.43,stop,3
8.92,1848173.114713863,23,3,3,0,3,9.08,2.78,-2.51,0.33,-0.05,0.87,0.125,24.1875,-11.125,0.57110595703125,0.28839111328125,-0.76806640625,0.026123046875,-35.75,36.5,-3.5,8.75,2.83,-3.39,stop,3
8.93,1848173.114713863,23,3,3,0,3,9.03,2.79,-2.46,0.27,-0.05,0.88,-3.3125,24.1875,-10.5625,0.5728759765625,0.28887939453125,-0.7666015625,0.0260009765625,-35.75,36.5,-3.5,8.76,2.85,-3.35,stop,3
8.94,1848173.140854651,23,3,3,0,3,8.76,2.45,-2.7,0.0,-0.42,0.6,-9.5,25.0,-9.125,0.5748291015625,0.2889404296875,-0.76513671875,0.02557373046875,-35.75,36.5,-3.5,8.77,2.87,-3.31,stop,3
8.95,1848173.140854651,23,3,3,0,3,8.81,2.33,-2.66,0.03,-0.55,0.6,-10.25,22.75,-8.0625,0.57666015625,0.2889404296875,-0.7637939453125,0.0250244140625,-35.75,36.5,-3.5,8.78,2.89,-3.27,stop,3
8.96,1848173.175208451,23,3,3,0,3,8.95,2.5,-2.54,0.16,-0.4,0.69,-3.875,20.3125,-8.125,0.578125,0.2891845703125,-0.7625732421875,0.02490234375,-36.5625,36.75,-4.5625,8.78,2.9,-3.23,stop,3
8.97,1848173.175208451,23,3,3,0,3,9.0,2.74,-2.4,0.2,-0.17,0.79,0.5625,23.125,-9.375,0.5797119140625,0.289794921875,-0.7611083984375,0.0250244140625,-36.5625,36.75,-4.5625,8.79,2.92,-3.2,stop,3
8.98,1848173.185750158,23,3,3,0,3,8.81,2.8,-2.53,-0.24,0.05,0.03,0.0,27.0,-10.1875,0.60638427734375,0.27642822265625,-0.74462890625,0.03717041015625,-36.5625,36.75,-4.5625,9.05,2.74,-2.56,stop,3
8.99,1848173.185750158,23,3,3,0,3,8.83,2.77,-2.5,-0.23,0.01,0.02,-1.375,26.625,-10.0625,0.60821533203125,0.27691650390625,-0.74298095703125,0.03717041015625,-36.5625,36.75,-4.5625,9.06,2.76,-2.52,stop,3
9.0,1848173.193125809,23,3,3,0,3,8.93,2.78,-2.49,-0.13,0.0,-0.01,-2.625,24.375,-9.0625,0.60992431640625,0.27728271484375,-0.741455078125,0.037109375,-36.5625,36.75,-4.5625,9.07,2.77,-2.48,stop,3
9.01,1848173.193125809,23,3,3,0,3,9.0,2.84,-2.5,-0.06,0.05,-0.05,-3.875,22.75,-8.0625,0.61151123046875,0.27752685546875,-0.74005126953125,0.0369873046875,-36.875,36.5,-4.5625,9.07,2.79,-2.44,stop,3
9.02,1848173.221837601,23,3,3,0,3,9.09,3.1,-2.47,0.01,0.3,-0.07,-5.25,23.8125,-7.8125,0.61322021484375,0.27764892578125,-0.73858642578125,0.03680419921875,-36.875,36.5,-4.5625,9.08,2.8,-2.4,stop,3
9.03,1848173.221837601,23,3,3,0,3,9.07,3.09,-2.4,-0.01,0.27,-0.04,-6.875,25.9375,-8.0,0.6151123046875,0.2777099609375,-0.73699951171875,0.03656005859375,-36.875,36.5,-4.5625,9.09,2.82,-2.35,stop,3
9.04,1848173.234822627,23,3,3,0,3,9.06,3.05,-2.43,-0.03,0.22,-0.12,-8.875,29.0,-9.125,0.61724853515625,0.2777099609375,-0.7352294921875,0.03619384765625,-36.875,36.5,-4.5625,9.09,2.83,-2.3,stop,3
9.05,1848173.234822627,23,3,3,0,3,9.06,3.04,-2.46,-0.04,0.18,-0.21,-9.8125,31.6875,-9.75,0.61956787109375,0.2777099609375,-0.73333740234375,0.03582763671875,-36.875,36.5,-4.5625,9.1,2.85,-2.25,stop,3
9.06,1848173.267035477,23,3,3,0,3,8.96,3.08,-2.32,-0.14,0.2,-0.13,-9.0,33.0625,-10.875,0.6219482421875,0.27777099609375,-0.73126220703125,0.03546142578125,-36.5625,36.5,-5.375,9.11,2.87,-2.19,stop,3
9.07,1848173.267035477,23,3,3,0,3,8.91,3.13,-2.35,-0.2,0.22,-0.21,-8.625,35.1875,-12.625,0.62432861328125,0.278076171875,-0.7291259765625,0.03497314453125,-36.5625,36.5,-5.375,9.11,2.9,-2.13,stop,3
9.08,1848173.279718664,23,3,3,0,3,8.88,3.12,-2.31,-0.23,0.18,-0.24,-9.5625,36.9375,-13.75,0.62689208984375,0.2784423828125,-0.72686767578125,0.034423828125,-36.5625,36.5,-5.375,9.12,2.93,-2.07,stop,3
9.09,1848173.279718664,23,3,3,0,3,8.95,3.09,-2.2,-0.17,0.13,-0.18,-11.625,36.375,-13.8125,0.62939453125,0.2786865234375,-0.724609375,0.03375244140625,-36.5625,36.5,-5.375,9.12,2.96,-2.01,stop,3
9.1,1848173.295071285,23,3,3,0,3,8.96,3.12,-2.19,-0.17,0.13,-0.23,-15.6875,35.125,-12.875,0.63189697265625,0.27862548828125,-0.72247314453125,0.0328369140625,-36.5625,36.5,-5.375,9.13,2.98,-1.95,stop,3
9.11,1848173.295071285,23,3,3,0,3,9.0,3.23,-2.17,-0.13,0.22,-0.28,-20.5,34.875,-12.1875,0.634521484375,0.27825927734375,-0.72039794921875,0.0316162109375,-36.875,36.75,-6.6875,9.13,3.01,-1.89,stop,3
9.12,1848173.320276607,23,3,3,0,3,8.98,3.34,-2.14,-0.15,0.29,-0.32,-24.125,34.9375,-11.5625,0.63714599609375,0.2777099609375,-0.71832275390625,0.0301513671875,-36.875,36.75,-6.6875,9.14,3.04,-1.82,stop,3
9.13,1848173.320276607,23,3,3,0,3,8.93,3.45,-2.05,-0.21,0.38,-0.29,-26.5625,36.0625,-11.9375,0.639892578125,0.27703857421875,-0.7161865234375,0.02850341796875,-36.875,36.75,-6.6875,9.14,3.07,-1.75,stop,3
9.14,1848173.337860429,23,3,3,0,3,8.97,3.37,-1.93,-0.16,0.26,-0.24,-27.5625,35.5,-12.0625,0.64263916015625,0.2763671875,-0.714111328125,0.02685546875,-36.875,36.75,-6.6875,9.14,3.1,-1.69,stop,3
9.15,1848173.337860429,23,3,3,0,3,9.06,3.21,-1.75,-0.08,0.07,-0.13,-27.5,32.0625,-11.3125,0.64532470703125,0.275390625,-0.7120361328125,0.0252685546875,-36.875,36.75,-6.6875,9.14,3.13,-1.62,stop,3
9.16,1848173.370896195,23,3,3,0,3,9.06,3.21,-1.75,-0.08,0.07,-0.13,-27.5,32.0625,-11.3125,0.64532470703125,0.275390625,-0.7120361328125,0.0252685546875,-36.875,36.75,-6.6875,9.14,3.13,-1.62,stop,3
9.16,1848173.370896195,23,3,3,0,3,9.1,3.1,-1.67,-0.04,-0.04,-0.1,-26.6875,29.8125,-10.4375,0.64788818359375,0.27447509765625,-0.710205078125,0.02374267578125,-37.25,35.375,-7.0,9.15,3.15,-1.56,stop,3
9.17,1848173.379304032,23,3,3,0,3,9.21,2.98,-1.46,0.06,-0.19,0.03,-26.4375,29.875,-10.125,0.650390625,0.2735595703125,-0.70831298828125,0.022216796875,-37.25,35.375,-7.0,9.15,3.18,-1.5,stop,3
9.18,1848173.379304032,23,3,3,0,3,9.14,2.97,-1.52,0.0,-0.22,-0.08,-29.25,31.6875,-9.5625,0.653076171875,0.27239990234375,-0.706298828125,0.0206298828125,-37.25,35.375,-7.0,9.15,3.2,-1.43,stop,3
9.19,1848173.385151159,23,3,3,0,3,9.07,2.9,-1.52,-0.08,-0.32,-0.16,-32.0,33.5,-7.5625,0.65594482421875,0.27099609375,-0.7042236328125,0.01904296875,-37.25,35.375,-7.0,9.16,3.22,-1.36,stop,3
9.2,1848173.385151159,23,3,3,0,3,8.96,2.86,-1.5,-0.2,-0.37,-0.21,-33.625,33.25,-5.75,0.65875244140625,0.26934814453125,-0.7022705078125,0.0174560546875,-37.25,35.375,-7.0,9.16,3.24,-1.28,stop,3
9.21,1848173.416433223,23,3,3,0,3,8.94,2.87,-1.35,-0.22,-0.38,-0.13,-34.5,31.25,-3.875,0.6614990234375,0.267578125,-0.70037841796875,0.01580810546875,-36.875,35.375,-7.375,9.17,3.25,-1.21,stop,3
9.22,1848173.416433223,23,3,3,0,3,8.98,2.91,-1.34,-0.18,-0.35,-0.19,-35.5,28.875,-1.6875,0.66412353515625,0.26556396484375,-0.69873046875,0.01422119140625,-36.875,35.375,-7.375,9.17,3.26,-1.15,stop,3
9.23,1848173.424241736,23,3,3,0,3,9.01,2.92,-1.26,-0.16,-0.34,-0.17,-35.4375,27.3125,-0.3125,0.66650390625,0.263427734375,-0.69732666015625,0.0128173828125,-36.875,35.375,-7.375,9.18,3.26,-1.09,stop,3
9.24,1848173.424241736,23,3,3,0,3,9.01,2.8,-1.19,-0.16,-0.47,-0.16,-34.1875,25.6875,-0.0625,0.6688232421875,0.2613525390625,-0.69586181640625,0.0113525390625,-36.875,35.375,-7.375,9.18,3.27,-1.03,stop,3
9.25,1848173.440246985,23,3,3,0,3,9.08,2.77,-1.23,-0.1,-0.5,-0.26,-32.0625,23.1875,-0.375,0.67095947265625,0.25946044921875,-0.69451904296875,0.00994873046875,-36.875,35.375,-7.375,9.19,3.27,-0.97,stop,3
9.26,1848173.440246985,23,3,3,0,3,9.09,2.86,-1.24,-0.09,-0.42,-0.32,-28.3125,22.75,0.0,0.67303466796875,0.2578125,-0.69317626953125,0.00872802734375,-37.25,35.0,-7.75,9.19,3.28,-0.92,stop,3
9.27,1848173.473318843,23,3,3,0,3,9.09,2.82,-1.25,-0.1,-0.45,-0.38,-22.5625,23.1875,0.375,0.67462158203125,0.25628662109375,-0.692138671875,0.0081787109375,-37.25,35.0,-7.75,9.19,3.28,-0.87,stop,3
9.28,1848173.473318843,23,3,3,0,3,9.12,2.85,-1.27,-0.08,-0.42,-0.43,-16.0,21.375,0.1875,0.67596435546875,0.25518798828125,-0.6912841796875,0.0079345703125,-37.25,35.0,-7.75,9.2,3.27,-0.84,stop,3
9.29,1848173.485419755,23,3,3,0,3,9.23,2.86,-1.29,0.02,-0.4,-0.46,-11.5,14.4375,-0.3125,0.6767578125,0.25439453125,-0.6907958984375,0.0078125,-37.25,35.0,-7.75,9.2,3.27,-0.82,stop,3
9.3,1848173.485419755,23,3,3,0,3,9.27,2.93,-1.26,0.06,-0.33,-0.45,-6.625,7.375,0.0,0.677001953125,0.25384521484375,-0.69073486328125,0.00787353515625,-37.25,35.0,-7.75,9.21,3.26,-0.81,stop,3
9.31,1848173.503443803,23,3,3,0,3,9.19,2.98,-1.26,-0.01,-0.27,-0.45,-0.1875,4.375,0.125,0.677001953125,0.2537841796875,-0.6907958984375,0.0081787109375,-37.5625,35.0,-7.375,9.21,3.25,-0.81,stop,3
9.32,1848173.503443803,23,3,3,0,3,9.13,3.27,-1.17,-0.08,0.01,-0.35,5.0625,3.5625,-0.625,0.67694091796875,0.25408935546875,-0.69073486328125,0.008544921875,-37.5625,35.0,-7.375,9.21,3.25,-0.81,stop,3
9.33,1848173.555263098,23,3,3,0,3,9.1,3.41,-1.18,-0.1,0.16,-0.37,6.75,3.25,-0.6875,0.67694091796875,0.25457763671875,-0.6905517578125,0.009033203125,-37.5625,35.0,-7.375,9.21,3.25,-0.81,stop,3
9.34,1848173.555263098,23,3,3,0,3,9.04,3.48,-1.14,-0.16,0.22,-0.33,3.0,1.375,-0.0625,0.677001953125,0.25469970703125,-0.6904296875,0.00921630859375,-37.5625,35.0,-7.375,9.21,3.25,-0.81,stop,3
9.35,1848173.561234493,23,3,3,0,3,9.02,3.44,-1.09,-0.19,0.18,-0.28,-1.625,2.125,0.25,0.67718505859375,0.254638671875,-0.6903076171875,0.0091552734375,-37.5625,35.0,-7.375,9.21,3.25,-0.81,stop,3
9.36,1848173.561234493,23,3,3,0,3,8.98,3.35,-1.14,-0.22,0.09,-0.34,-5.0625,6.0,-0.1875,0.6776123046875,0.25433349609375,-0.68994140625,0.009033203125,-36.1875,35.75,-7.75,9.21,3.25,-0.79,stop,3
9.37,1848173.566870032,23,3,3,0,3,8.95,3.29,-1.15,-0.26,0.03,-0.37,-6.0,10.0,-0.875,0.67840576171875,0.25396728515625,-0.6893310546875,0.00885009765625,-36.1875,35.75,-7.75,9.21,3.26,-0.77,stop,3
9.38,1848173.566870032,23,3,3,0,3,8.87,3.24,-1.19,-0.33,-0.01,-0.43,-5.6875,12.0,-1.4375,0.67926025390625,0.25372314453125,-0.6885986328125,0.0086669921875,-36.1875,35.75,-7.75,9.21,3.26,-0.75,stop,3
9.39,1848173.59518363,23,3,3,0,3,8.81,3.25,-1.2,-0.39,-0.01,-0.46,-4.875,10.4375,-1.5,0.6796875,0.253662109375,-0.688232421875,0.0084228515625,-36.1875,35.75,-7.75,9.21,3.26,-0.74,stop,3
9.4,1848173.59518363,23,3,3,0,3,8.8,3.28,-1.2,-0.4,0.01,-0.46,-3.0,6.4375,-1.1875,0.67974853515625,0.2537841796875,-0.68804931640625,0.00823974609375,-36.1875,35.75,-7.75,9.21,3.27,-0.74,stop,3
9.41,1848173.609385982,23,3,3,0,3,8.86,3.31,-1.21,-0.34,0.03,-0.46,-0.9375,0.5,-0.0625,0.679443359375,0.25390625,-0.6883544921875,0.008056640625,-36.875,35.375,-8.5,9.21,3.27,-0.75,stop,3
9.42,1848173.609385982,23,3,3,0,3,8.97,3.35,-1.16,-0.24,0.07,-0.39,0.0625,-5.875,1.0625,0.6788330078125,0.2540283203125,-0.68896484375,0.00787353515625,-36.875,35.375,-8.5,9.21,3.27,-0.76,stop,3
9.43,1848173.625433874,23,3,3,0,3,9.18,3.4,-1.14,-0.02,0.13,-0.35,-0.1875,-9.25,1.75,0.67803955078125,0.25408935546875,-0.689697265625,0.0076904296875,-36.875,35.375,-8.5,9.21,3.27,-0.78,stop,3
9.44,1848173.625433874,23,3,3,0,3,9.25,3.4,-1.14,0.04,0.13,-0.34,-1.5625,-7.9375,1.1875,0.67755126953125,0.25390625,-0.690185546875,0.00750732421875,-36.875,35.375,-8.5,9.2,3.27,-0.8,stop,3
9.45,1848173.650642493,23,3,3,0,3,9.29,3.44,-1.2,0.08,0.17,-0.39,-3.0,-3.8125,-0.1875,0.67742919921875,0.25372314453125,-0.6904296875,0.00726318359375,-36.875,35.375,-8.5,9.2,3.27,-0.8,stop,3
9.46,1848173.650642493,23,3,3,0,3,9.3,3.45,-1.23,0.09,0.17,-0.43,-3.375,0.75,-1.875,0.67755126953125,0.25360107421875,-0.6903076171875,0.0069580078125,-38.0,35.0,-7.375,9.2,3.27,-0.8,stop,3
9.47,1848173.671300085,23,3,3,0,3,9.26,3.46,-1.4,0.05,0.18,-0.61,-3.3125,3.0,-2.875,0.67779541015625,0.25360107421875,-0.6900634765625,0.00665283203125,-38.0,35.0,-7.375,9.2,3.28,-0.79,stop,3
9.48,1848173.671300085,23,3,3,0,3,9.27,3.48,-1.26,0.06,0.19,-0.47,-1.6875,1.5625,-3.6875,0.67791748046875,0.25372314453125,-0.68994140625,0.00634765625,-38.0,35.0,-7.375,9.2,3.28,-0.79,stop,3
9.49,1848173.685462927,23,3,3,0,3,9.33,3.58,-1.1,0.13,0.28,-0.3,-0.8125,0.375,-4.0625,0.677734375,0.25408935546875,-0.69000244140625,0.0059814453125,-38.0,35.0,-7.375,9.2,3.29,-0.79,stop,3
9.5,1848173.685462927,23,3,3,0,3,9.33,3.59,-0.97,0.13,0.28,-0.17,-5.5,0.875,-3.8125,0.67779541015625,0.25408935546875,-0.68994140625,0.00531005859375,-38.0,35.0,-7.375,9.19,3.3,-0.79,stop,3
9.51,1848173.715636186,23,3,3,0,3,9.16,3.15,-1.02,-0.03,-0.15,-0.24,-13.25,2.0625,-2.6875,0.6781005859375,0.2535400390625,-0.6898193359375,0.00439453125,-36.875,35.375,-7.25,9.19,3.31,-0.78,stop,3
9.52,1848173.715636186,23,3,3,0,3,9.1,3.07,-1.12,-0.08,-0.24,-0.34,-15.375,3.875,-2.8125,0.6785888671875,0.2528076171875,-0.68963623046875,0.00341796875,-36.875,35.375,-7.25,9.19,3.31,-0.77,stop,3
9.53,1848173.729669674,23,3,3,0,3,9.07,3.14,-1.06,-0.12,-0.18,-0.29,-9.625,4.0625,-3.75,0.67901611328125,0.25244140625,-0.6893310546875,0.002685546875,-36.875,35.375,-7.25,9.19,3.32,-0.76,stop,3
9.54,1848173.729669674,23,3,3,0,3,9.07,3.39,-0.82,-0.11,0.05,-0.06,-2.3125,0.5625,-4.0,0.67913818359375,0.2525634765625,-0.689208984375,0.00238037109375,-36.875,35.375,-7.25,9.19,3.33,-0.76,stop,3
9.55,1848173.739935217,23,3,3,0,3,9.07,3.5,-0.71,-0.11,0.16,0.04,-0.875,-2.5,-3.4375,0.678955078125,0.252685546875,-0.68927001953125,0.00201416015625,-36.875,35.375,-7.25,9.18,3.33,-0.76,stop,3
9.56,1848173.739935217,23,3,3,0,3,9.02,3.38,-0.76,-0.15,0.03,0.0,-2.1875,-2.875,-3.1875,0.6788330078125,0.25274658203125,-0.68939208984375,0.00164794921875,-37.5625,35.375,-7.6875,9.18,3.34,-0.76,stop,3
9.57,1848173.774714595,23,3,3,0,3,9.01,3.35,-0.77,-0.16,0.0,0.0,0.0,-2.9375,-3.625,0.67864990234375,0.25299072265625,-0.68951416015625,0.0013427734375,-37.5625,35.375,-7.6875,9.18,3.34,-0.77,stop,3
9.58,1848173.774714595,23,3,3,0,3,9.01,3.57,-0.7,-0.16,0.22,0.07,3.625,-2.8125,-4.5625,0.67840576171875,0.25347900390625,-0.6895751953125,0.00128173828125,-37.5625,35.375,-7.6875,9.18,3.35,-0.77,stop,3
9.59,1848173.785583655,23,3,3,0,3,9.02,3.62,-0.7,-0.15,0.26,0.08,5.25,-3.25,-4.75,0.6781005859375,0.25408935546875,-0.68963623046875,0.001220703125,-37.5625,35.375,-7.6875,9.17,3.36,-0.78,stop,3
9.6,1848173.785583655,23,3,3,0,3,9.05,3.61,-0.77,-0.11,0.24,0.02,4.1875,-4.8125,-4.3125,0.677734375,0.254638671875,-0.6898193359375,0.00103759765625,-37.5625,35.375,-7.6875,9.17,3.37,-0.79,stop,3
9.61,1848173.804493323,23,3,3,0,3,9.11,3.57,-0.86,-0.05,0.19,-0.05,3.375,-6.5625,-3.5625,0.67724609375,0.255126953125,-0.69012451171875,0.00079345703125,-37.25,35.375,-7.25,9.17,3.37,-0.81,stop,3
9.62,1848173.804493323,23,3,3,0,3,9.16,3.53,-0.84,0.0,0.15,-0.02,4.6875,-8.125,-3.3125,0.6766357421875,0.255615234375,-0.69049072265625,0.00067138671875,-37.25,35.375,-7.25,9.16,3.38,-0.82,stop,3
9.63,1848173.837418941,23,3,3,0,3,9.2,3.53,-0.85,0.04,0.14,-0.01,6.375,-7.8125,-3.5625,0.676025390625,0.2562255859375,-0.69085693359375,0.00067138671875,-37.25,35.375,-7.25,9.16,3.38,-0.84,stop,3
9.64,1848173.837418941,23,3,3,0,3,9.19,3.53,-0.86,0.03,0.14,0.0,8.0,-6.4375,-4.0,0.67547607421875,0.2569580078125,-0.691162109375,0.000732421875,-37.25,35.375,-7.25,9.16,3.39,-0.85,stop,3
9.65,1848173.849984493,23,3,3,0,3,9.23,3.58,-0.86,0.07,0.18,0.0,9.0,-4.8125,-4.375,0.67498779296875,0.2578125,-0.69134521484375,0.0008544921875,-37.25,35.375,-7.25,9.15,3.4,-0.87,stop,3
9.66,1848173.849984493,23,3,3,0,3,9.35,3.57,-0.95,0.2,0.16,-0.07,9.0,-5.9375,-3.75,0.6744384765625,0.25860595703125,-0.69158935546875,0.00103759765625,-36.875,34.0,-6.875,9.15,3.4,-0.88,stop,3
9.67,1848173.866125932,23,3,3,0,3,9.43,3.52,-0.95,0.28,0.11,-0.05,7.875,-8.5,-2.9375,0.6737060546875,0.25921630859375,-0.6920166015625,0.00115966796875,-36.875,34.0,-6.875,9.15,3.4,-0.9,stop,3
9.68,1848173.866125932,23,3,3,0,3,9.46,3.5,-0.96,0.32,0.09,-0.03,6.875,-10.1875,-2.1875,0.6729736328125,0.259765625,-0.69256591796875,0.001220703125,-36.875,34.0,-6.875,9.14,3.41,-0.92,stop,3
9.69,1848173.890565059,23,3,3,0,3,9.42,3.52,-0.96,0.27,0.11,-0.02,6.1875,-7.8125,-2.625,0.67236328125,0.26031494140625,-0.6929931640625,0.00128173828125,-36.875,34.0,-6.875,9.14,3.41,-0.94,stop,3
9.7,1848173.890565059,23,3,3,0,3,9.2,3.52,-0.99,0.06,0.1,-0.04,5.6875,-2.0,-3.875,0.672119140625,0.2608642578125,-0.6929931640625,0.0013427734375,-36.875,34.0,-6.875,9.14,3.42,-0.94,stop,3
9.71,1848173.917716386,23,3,3,0,3,9.15,3.53,-1.02,0.01,0.1,-0.07,4.75,1.125,-4.25,0.67205810546875,0.26141357421875,-0.69281005859375,0.00140380859375,-38.0,34.25,-7.25,9.13,3.42,-0.94,stop,3
9.72,1848173.917716386,23,3,3,0,3,9.1,3.49,-1.1,-0.03,0.06,-0.15,3.1875,0.875,-3.375,0.6719970703125,0.2618408203125,-0.69268798828125,0.00140380859375,-38.0,34.25,-7.25,9.13,3.43,-0.94,stop,3
9.73,1848173.937472408,23,3,3,0,3,9.04,3.56,-1.06,-0.09,0.12,-0.11,2.8125,0.0625,-2.5,0.67193603515625,0.26214599609375,-0.692626953125,0.00140380859375,-38.0,34.25,-7.25,9.13,3.43,-0.95,stop,3
9.74,1848173.937472408,23,3,3,0,3,8.96,3.55,-1.02,-0.16,0.11,-0.07,2.6875,1.3125,-2.5625,0.6719970703125,0.262451171875,-0.6925048828125,0.00146484375,-38.0,34.25,-7.25,9.13,3.43,-0.95,stop,3
9.75,1848173.954242957,23,3,3,0,3,8.93,3.51,-1.04,-0.2,0.07,-0.09,0.6875,1.6875,-1.875,0.67205810546875,0.26263427734375,-0.6923828125,0.00146484375,-38.0,34.25,-7.25,9.13,3.44,-0.94,stop,3
9.76,1848173.954242957,23,3,3,0,3,8.99,3.49,-1.0,-0.13,0.05,-0.05,-0.5,0.3125,-0.875,0.67205810546875,0.2626953125,-0.69232177734375,0.00140380859375,-38.375,34.0,-6.875,9.13,3.44,-0.94,stop,3
9.77,1848173.968998572,23,3,3,0,3,9.13,3.52,-0.88,0.0,0.08,0.06,-0.1875,-1.375,-0.0625,0.67193603515625,0.2626953125,-0.69244384765625,0.0013427734375,-38.375,34.0,-6.875,9.13,3.44,-0.95,stop,3
9.78,1848173.968998572,23,3,3,0,3,9.1,3.44,-0.91,-0.02,0.0,0.03,0.0,-0.25,-0.375,0.67193603515625,0.2626953125,-0.69244384765625,0.0013427734375,-38.375,34.0,-6.875,9.13,3.44,-0.95,stop,3
9.79,1848174.000671261,23,3,3,0,3,9.12,3.38,-1.01,0.0,-0.06,-0.07,1.0,2.0,-0.875,0.67205810546875,0.2628173828125,-0.69232177734375,0.00140380859375,-38.375,34.0,-6.875,9.13,3.44,-0.94,stop,3
9.8,1848174.000671261,23,3,3,0,3,9.13,3.4,-1.02,0.0,-0.03,-0.07,3.0,2.375,-1.25,0.672119140625,0.2630615234375,-0.692138671875,0.00152587890625,-38.375,34.0,-6.875,9.13,3.44,-0.94,stop,3
9.81,1848174.032255855,23,3,3,0,3,9.16,3.47,-0.99,0.03,0.02,-0.04,3.9375,1.875,-1.375,0.672119140625,0.26336669921875,-0.6920166015625,0.00177001953125,-37.5625,35.0,-6.875,9.13,3.44,-0.94,stop,3
9.82,1848174.032255855,23,3,3,0,3,9.17,3.45,-1.01,0.04,0.0,-0.06,3.125,1.625,-1.125,0.67218017578125,0.26361083984375,-0.69189453125,0.00189208984375,-37.5625,35.0,-6.875,9.13,3.44,-0.94,stop,3
9.83,1848174.042903642,23,3,3,0,3,9.19,3.43,-1.02,0.05,-0.01,-0.08,1.6875,1.9375,-0.875,0.6722412109375,0.2637939453125,-0.69171142578125,0.00201416015625,-37.5625,35.0,-6.875,9.13,3.45,-0.94,stop,3
9.84,1848174.042903642,23,3,3,0,3,9.18,3.41,-1.0,0.05,-0.03,-0.06,0.8125,2.625,-1.0,0.67236328125,0.263916015625,-0.69158935546875,0.0020751953125,-37.5625,35.0,-6.875,9.13,3.45,-0.93,stop,3
9.85,1848174.051446855,23,3,3,0,3,9.19,3.4,-0.93,0.06,-0.04,0.0,0.25,3.4375,-0.9375,0.672607421875,0.26397705078125,-0.69134521484375,0.0020751953125,-37.5625,35.0,-6.875,9.13,3.45,-0.93,stop,3
9.86,1848174.051446855,23,3,3,0,3,9.19,3.41,-0.85,0.05,-0.03,0.07,0.375,4.125,-0.75,0.6728515625,0.26397705078125,-0.69110107421875,0.00213623046875,-38.0,34.5625,-7.6875,9.13,3.45,-0.92,stop,3
9.87,1848174.074032548,23,3,3,0,3,9.15,3.4,-0.82,0.02,-0.04,0.09,1.0,4.75,-0.8125,0.673095703125,0.26409912109375,-0.6907958984375,0.00225830078125,-38.0,34.5625,-7.6875,9.13,3.45,-0.92,stop,3
9.88,1848174.074032548,23,3,3,0,3,9.06,3.45,-0.77,-0.06,0.0,0.13,3.0,5.0625,-1.3125,0.67333984375,0.26434326171875,-0.6904296875,0.00250244140625,-38.0,34.5625,-7.6875,9.13,3.45,-0.91,stop,3
9.89,1848174.084364498,23,3,3,0,3,9.04,3.49,-0.78,-0.08,0.03,0.11,6.0625,5.375,-1.9375,0.67352294921875,0.26483154296875,-0.6900634765625,0.00286865234375,-38.0,34.5625,-7.6875,9.13,3.45,-0.9,stop,3
9.9,1848174.084364498,23,3,3,0,3,9.02,3.5,-0.83,-0.1,0.04,0.06,8.125,5.9375,-2.625,0.6737060546875,0.2655029296875,-0.68963623046875,0.00335693359375,-38.0,34.5625,-7.6875,9.13,3.46,-0.9,stop,3
9.91,1848174.101856604,23,3,3,0,3,8.98,3.53,-0.82,-0.14,0.07,0.07,8.5625,5.6875,-2.625,0.67388916015625,0.26617431640625,-0.68927001953125,0.00384521484375,-36.875,35.0,-8.375,9.12,3.46,-0.9,stop,3
9.92,1848174.101856604,23,3,3,0,3,9.01,3.58,-0.85,-0.11,0.11,0.04,8.6875,4.6875,-2.5,0.6739501953125,0.266845703125,-0.68890380859375,0.0042724609375,-36.875,35.0,-8.375,9.12,3.46,-0.89,stop,3
9.93,1848174.137425655,23,3,3,0,3,9.02,3.54,-0.84,-0.09,0.07,0.05,8.5625,3.75,-2.125,0.67401123046875,0.2674560546875,-0.6885986328125,0.0047607421875,-36.875,35.0,-8.375,9.12,3.47,-0.89,stop,3
9.94,1848174.137425655,23,3,3,0,3,9.05,3.55,-0.88,-0.07,0.08,0.01,9.0625,2.875,-2.0,0.6739501953125,0.26812744140625,-0.6883544921875,0.0052490234375,-36.875,35.0,-8.375,9.12,3.47,-0.89,stop,3
9.95,1848174.147580603,23,3,3,0,3,9.07,3.56,-0.88,-0.05,0.09,0.01,10.25,2.125,-2.0,0.673828125,0.26885986328125,-0.68817138671875,0.00579833984375,-36.875,35.0,-8.375,9.12,3.47,-0.9,stop,3
9.96,1848174.147580603,23,3,3,0,3,9.13,3.6,-1.0,0.01,0.12,-0.1,11.4375,1.875,-2.25,0.6737060546875,0.26971435546875,-0.68798828125,0.00634765625,-37.5625,34.0,-8.375,9.12,3.47,-0.9,stop,3
9.97,1848174.166399695,23,3,3,0,3,9.19,3.57,-1.06,0.06,0.09,-0.15,12.0,1.5,-2.1875,0.6734619140625,0.27056884765625,-0.6878662109375,0.0069580078125,-37.5625,34.0,-8.375,9.12,3.47,-0.9,stop,3
9.98,1848174.166399695,23,3,3,0,3,9.25,3.58,-1.06,0.13,0.1,-0.14,12.5625,1.6875,-1.75,0.67327880859375,0.27142333984375,-0.687744140625,0.00762939453125,-37.5625,34.0,-8.375,9.12,3.48,-0.91,stop,3
9.99,1848174.197045488,23,3,3,0,3,9.31,3.6,-0.98,0.18,0.11,-0.06,13.3125,2.6875,-1.9375,0.673095703125,0.2723388671875,-0.6875,0.0084228515625,-37.5625,34.0,-8.375,9.12,3.48,-0.91,stop,3
10.0,1848174.197045488,23,3,3,0,3,9.29,3.72,-0.83,0.17,0.24,0.08,13.625,5.0,-2.0625,0.673095703125,0.27325439453125,-0.6871337890625,0.00921630859375,-37.5625,34.0,-8.375,9.12,3.48,-0.91,stop,3
10.01,1848174.213574215,23,3,3,0,3,9.27,3.76,-0.81,0.15,0.28,0.09,14.0,6.875,-2.125,0.67315673828125,0.27423095703125,-0.6866455078125,0.01007080078125,-38.0,34.5625,-8.375,9.12,3.48,-0.91,stop,3
10.02,1848174.213574215,23,3,3,0,3,9.21,3.8,-0.87,0.09,0.31,0.04,16.3125,6.375,-1.875,0.6732177734375,0.27532958984375,-0.68621826171875,0.010986328125,-38.0,34.5625,-8.375,9.11,3.48,-0.91,stop,3
10.03,1848174.224550818,23,3,3,0,3,9.0,3.91,-1.1,-0.1,0.42,-0.17,21.625,4.0,-1.75,0.67291259765625,0.27679443359375,-0.68585205078125,0.01220703125,-38.0,34.5625,-8.375,9.11,3.48,-0.92,stop,3
10.04,1848174.224550818,23,3,3,0,3,8.79,3.97,-1.29,-0.32,0.48,-0.35,30.0,1.1875,-2.25,0.6722412109375,0.2786865234375,-0.68572998046875,0.013916015625,-38.0,34.5625,-8.375,9.11,3.48,-0.93,stop,3
10.05,1848174.238043982,23,3,3,0,3,8.79,3.97,-1.29,-0.32,0.48,-0.35,30.0,1.1875,-2.25,0.6722412109375,0.2786865234375,-0.68572998046875,0.013916015625,-38.0,34.5625,-8.375,9.11,3.48,-0.93,stop,3
10.05,1848174.238043982,23,3,3,0,3,8.55,3.92,-1.44,-0.56,0.44,-0.47,40.4375,-1.4375,-3.0,0.67120361328125,0.28125,-0.6856689453125,0.01611328125,-38.0,34.5625,-8.375,9.11,3.48,-0.96,stop,3
10.06,1848174.253377682,23,3,3,0,3,8.41,4.03,-1.44,-0.69,0.54,-0.44,52.1875,-4.1875,-4.125,0.66961669921875,0.2845458984375,-0.68572998046875,0.01885986328125,-38.375,34.0,-9.1875,9.11,3.48,-1.0,stop,3
10.07,1848174.253377682,23,3,3,0,3,8.19,4.15,-1.51,-0.91,0.67,-0.46,58.9375,-6.25,-4.5,0.66778564453125,0.28826904296875,-0.6859130859375,0.02197265625,-38.375,34.0,-9.1875,9.1,3.48,-1.05,stop,3
10.08,1848174.281851192,23,3,3,0,3,8.08,3.94,-1.5,-1.01,0.46,-0.4,59.625,-5.375,-4.5625,0.66595458984375,0.29205322265625,-0.68597412109375,0.025146484375,-38.375,34.0,-9.1875,9.1,3.47,-1.09,stop,3
10.09,1848174.281851192,23,3,3,0,3,8.01,3.78,-1.38,-1.08,0.3,-0.25,61.875,0.375,-5.75,0.66436767578125,0.2960205078125,-0.6856689453125,0.02850341796875,-38.375,34.0,-9.1875,9.1,3.47,-1.13,stop,3
10.1,1848174.312976233,23,3,3,0,3,7.8,3.65,-1.35,-1.29,0.18,-0.2,68.1875,10.5,-9.0,0.66326904296875,0.30047607421875,-0.68463134765625,0.0323486328125,-38.375,34.0,-9.1875,9.09,3.47,-1.15,stop,3
10.11,1848174.312976233,23,3,3,0,3,6.75,3.55,-1.31,-2.33,0.07,-0.13,75.625,14.9375,-10.1875,0.66217041015625,0.305419921875,-0.68328857421875,0.03662109375,-38.375,33.5625,-10.375,9.09,3.47,-1.18,stop,3
10.12,1848174.323641231,23,3,3,0,3,6.04,3.32,-1.23,-3.04,-0.14,-0.01,76.9375,6.625,-5.75,0.6605224609375,0.3101806640625,-0.6824951171875,0.04107666015625,-38.375,33.5625,-10.375,9.09,3.46,-1.21,stop,3
10.13,1848174.323641231,23,3,3,0,3,5.55,3.05,-0.95,-3.53,-0.39,0.32,69.25,-10.3125,3.5625,0.65802001953125,0.31396484375,-0.68292236328125,0.04510498046875,-38.375,33.5625,-10.375,9.09,3.44,-1.27,stop,3
10.14,1848174.343067745,23,3,3,0,3,5.2,2.81,-0.44,-3.88,-0.6,0.88,61.9375,-14.125,10.5625,0.6553955078125,0.31695556640625,-0.68377685546875,0.04901123046875,-38.375,33.5625,-10.375,9.09,3.41,-1.33,stop,3
10.15,1848174.343067745,23,3,3,0,3,4.4,2.29,0.42,-4.69,-1.09,1.78,58.8125,6.4375,8.5,0.65411376953125,0.31982421875,-0.68341064453125,0.05316162109375,-38.375,33.5625,-10.375,9.1,3.39,-1.35,stop,3
10.16,1848174.355146847,23,3,3,0,3,3.85,1.92,0.55,-5.25,-1.45,1.87,54.5,47.0,-1.3125,0.6553955078125,0.32275390625,-0.680419921875,0.05767822265625,-37.5625,32.75,-12.1875,9.11,3.37,-1.31,stop,3
10.17,1848174.355146847,23,3,3,0,3,3.63,1.54,0.41,-5.48,-1.84,1.62,45.5,87.1875,-11.3125,0.6593017578125,0.32562255859375,-0.6748046875,0.0621337890625,-37.5625,32.75,-12.1875,9.12,3.38,-1.2,stop,3
10.18,1848174.37300374,23,3,3,0,3,4.5,1.16,-0.15,-4.63,-2.22,0.89,33.125,107.25,-10.0,0.66473388671875,0.3275146484375,-0.66815185546875,0.06658935546875,-37.5625,32.75,-12.1875,9.13,3.39,-1.05,stop,3
10.19,1848174.37300374,23,3,3,0,3,7.9,1.17,-1.89,-1.25,-2.19,-0.94,24.3125,78.5625,15.0,0.66851806640625,0.32757568359375,-0.66387939453125,0.07110595703125,-37.5625,32.75,-12.1875,9.16,3.36,-0.94,stop,3
10.2,1848174.399311886,23,3,3,0,3,10.96,1.37,-2.38,1.78,-1.9,-1.4,28.6875,-18.0625,49.5,0.66632080078125,0.3265380859375,-0.6661376953125,0.07513427734375,-37.5625,32.75,-12.1875,9.18,3.28,-0.98,stop,3
10.21,1848174.399311886,23,3,3,0,3,15.36,1.71,-3.04,6.15,-1.41,-1.8,51.5625,-142.75,91.0,0.6558837890625,0.32513427734375,-0.6766357421875,0.079345703125,-36.5625,32.0625,-15.25,9.21,3.12,-1.24,stop,3
10.22,1848174.420291093,23,3,3,0,3,28.52,6.44,-3.61,19.31,3.56,-1.87,75.625,-283.1875,145.25,0.6357421875,0.32269287109375,-0.6961669921875,0.08404541015625,-36.5625,32.0625,-15.25,9.21,2.87,-1.74,stop,3
10.23,1848174.420291093,23,3,3,0,3,32.04,7.89,-7.5,22.88,5.36,-5.05,63.4375,-424.5,203.875,0.606201171875,0.31671142578125,-0.724365234375,0.087158203125,-36.5625,32.0625,-15.25,9.15,2.52,-2.45,stop,3
10.24,1848174.433306922,23,3,3,0,3,31.49,4.44,-11.08,22.49,2.25,-7.88,-3.6875,-473.625,212.8125,0.57415771484375,0.30633544921875,-0.7545166015625,0.08502197265625,-36.5625,32.0625,-15.25,9.0,2.19,-3.19,stop,3
10.25,1848174.433306922,23,3,3,0,3,25.22,3.42,-10.24,16.38,1.36,-6.52,-3.6875,-333.625,85.0,0.5513916015625,0.3028564453125,-0.773193359375,0.080078125,-36.5625,32.0625,-15.25,8.83,2.06,-3.71,stop,3
10.26,1848174.466166459,23,3,3,0,3,12.55,3.77,-12.16,3.73,1.62,-8.45,58.25,18.3125,-79.5625,0.5516357421875,0.3109130859375,-0.769775390625,0.0806884765625,-35.5,34.25,-10.6875,8.82,2.14,-3.71,stop,3
10.27,1848174.466166459,23,3,3,0,3,9.25,5.11,-10.45,0.36,2.8,-7.02,68.75,195.75,-135.0,0.563720703125,0.32183837890625,-0.75604248046875,0.0841064453125,-35.5,34.25,-10.6875,8.88,2.31,-3.43,stop,3
10.28,1848174.47926611,23,3,3,0,3,7.53,5.88,-8.67,-1.38,3.38,-5.46,-18.25,136.875,-114.625,0.57403564453125,0.32745361328125,-0.74615478515625,0.08111572265625,-35.5,34.25,-10.6875,8.92,2.49,-3.21,stop,3
10.29,1848174.47926611,23,3,3,0,3,7.04,5.77,-6.99,-1.88,3.09,-3.95,-122.1875,82.6875,-72.75,0.58331298828125,0.325439453125,-0.74072265625,0.07183837890625,-35.5,34.25,-10.6875,8.93,2.67,-3.03,stop,3
10.3,1848174.489788896,23,3,3,0,3,5.93,3.52,-3.97,-3.01,0.69,-1.15,-186.375,78.0,-37.1875,0.59381103515625,0.31781005859375,-0.73675537109375,0.06011962890625,-35.5,34.25,-10.6875,8.95,2.83,-2.82,stop,3
10.31,1848174.489788896,23,3,3,0,3,5.93,3.52,-3.97,-3.01,0.69,-1.15,-186.375,78.0,-37.1875,0.59381103515625,0.31781005859375,-0.73675537109375,0.06011962890625,-35.5,34.25,-10.6875,8.95,2.83,-2.82,stop,3
10.31,1848174.504105546,23,3,3,0,3,5.75,2.5,-2.55,-3.22,-0.46,0.06,-216.9375,62.5,-21.625,0.60382080078125,0.3076171875,-0.73388671875,0.0467529296875,-35.75,34.5,-9.25,8.97,2.96,-2.61,stop,3
10.32,1848174.504105546,23,3,3,0,3,5.92,1.75,-1.65,-3.06,-1.35,0.75,-228.125,51.375,-27.0,0.6131591796875,0.29705810546875,-0.73126220703125,0.0321044921875,-35.75,34.5,-9.25,8.98,3.11,-2.41,stop,3
10.33,1848174.519973019,23,3,3,0,3,5.98,1.43,-1.21,-3.0,-1.82,0.98,-228.0,56.0625,-33.9375,0.62261962890625,0.28680419921875,-0.7279052734375,0.0172119140625,-35.75,34.5,-9.25,8.98,3.25,-2.19,stop,3
10.34,1848174.519973019,23,3,3,0,3,5.31,1.16,-1.15,-3.67,-2.23,0.81,-219.75,61.0625,-39.3125,0.63189697265625,0.2772216796875,-0.7237548828125,0.00262451171875,-35.75,34.5,-9.25,8.98,3.39,-1.97,stop,3
10.35,1848174.555042314,23,3,3,0,3,5.09,0.93,-1.05,-3.87,-2.6,0.71,-205.3125,51.1875,-47.3125,0.63995361328125,0.26885986328125,-0.7197265625,-0.01171875,-35.75,34.5,-9.25,8.97,3.54,-1.77,moving,3
10.36,1848174.555042314,23,3,3,0,3,4.71,0.51,-0.55,-4.23,-3.17,1.04,-184.375,30.625,-56.9375,0.64605712890625,0.26214599609375,-0.7164306640625,-0.0257568359375,-38.75,34.5,-4.25,8.94,3.68,-1.6,moving,3
10.37,1848174.567776933,23,3,3,0,3,2.63,0.03,0.28,-6.27,-3.79,1.75,-160.3125,20.3125,-62.375,0.6507568359375,0.257080078125,-0.71337890625,-0.038818359375,-38.75,34.5,-4.25,8.9,3.82,-1.47,moving,3
10.38,1848174.567776933,23,3,3,0,3,1.5,0.1,0.6,-7.37,-3.84,1.91,-143.4375,42.25,-64.3125,0.65631103515625,0.2530517578125,-0.70904541015625,-0.05047607421875,-38.75,34.5,-4.25,8.87,3.95,-1.3,moving,3
10.39,1848174.584929969,23,3,3,0,3,0.81,0.18,0.81,-8.02,-3.91,1.89,-140.875,81.4375,-71.6875,0.66400146484375,0.249755859375,-0.70208740234375,-0.06146240234375,-38.75,34.5,-4.25,8.84,4.09,-1.08,moving,3
10.4,1848174.584929969,23,3,3,0,3,0.36,0.47,0.88,-8.43,-3.77,1.67,-154.3125,119.6875,-84.8125,0.67413330078125,0.24658203125,-0.6923828125,-0.07318115234375,-38.75,34.5,-4.25,8.8,4.25,-0.78,moving,3
10.41,1848174.616485389,23,3,3,0,3,-0.57,0.37,1.68,-9.31,-4.05,2.11,-176.5,147.4375,-99.0,0.68603515625,0.24310302734375,-0.6802978515625,-0.08648681640625,-38.75,33.0625,-2.375,8.74,4.42,-0.42,moving,3
10.42,1848174.616485389,23,3,3,0,3,-0.73,-0.02,1.77,-9.38,-4.62,1.77,-205.25,179.4375,-113.9375,0.699951171875,0.2388916015625,-0.66534423828125,-0.1016845703125,-38.75,33.0625,-2.375,8.65,4.6,0.0,moving,3
10.43,1848174.629595496,23,3,3,0,3,-0.65,-0.45,1.7,-9.2,-5.23,1.14,-246.8125,230.8125,-123.125,0.717041015625,0.23291015625,-0.64617919921875,-0.11865234375,-38.75,33.0625,-2.375,8.54,4.77,0.55,moving,3
10.44,1848174.629595496,23,3,3,0,3,-0.43,-0.71,1.5,-8.82,-5.63,0.27,-297.875,287.5,-125.9375,0.7374267578125,0.22418212890625,-0.62213134765625,-0.13739013671875,-38.75,33.0625,-2.375,8.39,4.91,1.22,moving,3
10.45,1848174.641454545,23,3,3,0,3,-0.15,-0.84,-0.2,-8.35,-5.84,-2.21,-351.625,329.25,-123.0625,0.760009765625,0.21197509765625,-0.59381103515625,-0.15777587890625,-38.75,33.0625,-2.375,8.19,4.99,2.0,moving,3
10.46,1848174.641454545,23,3,3,0,3,0.01,-0.84,-1.17,-7.94,-5.83,-3.99,-393.0,333.9375,-110.4375,0.78216552734375,0.196044921875,-0.5635986328125,-0.1790771484375,-40.875,30.875,-2.375,7.95,4.98,2.82,moving,3
10.47,1848174.674727088,23,3,3,0,3,0.73,-0.75,-1.79,-6.99,-5.62,-5.34,-413.0,275.75,-83.8125,0.80072021484375,0.1761474609375,-0.536376953125,-0.2001953125,-40.875,30.875,-2.375,7.73,4.87,3.55,moving,3
10.48,1848174.674727088,23,3,3,0,3,2.48,-0.47,-2.09,-5.1,-5.14,-6.17,-401.6875,145.8125,-48.0625,0.81231689453125,0.15277099609375,-0.51812744140625,-0.219970703125,-40.875,30.875,-2.375,7.59,4.66,4.08,moving,3
10.49,1848174.687724931,23,3,3,0,3,10.6,1.0,-2.48,2.98,-3.42,-6.76,-341.625,-54.125,-9.25,0.8138427734375,0.1279296875,-0.51507568359375,-0.2366943359375,-40.875,30.875,-2.375,7.62,4.43,4.28,moving,3
10.5,1848174.687724931,23,3,3,0,3,16.8,1.92,-3.83,8.9,-2.29,-7.84,-214.5625,-326.625,40.5,0.80194091796875,0.10406494140625,-0.533935546875,-0.2469482421875,-40.875,30.875,-2.375,7.89,4.22,4.0,moving,3
10.51,1848174.704533932,23,3,3,0,3,23.77,3.25,-5.95,15.38,-0.8,-9.01,-9.6875,-671.5625,110.0625,0.771728515625,0.0836181640625,-0.58074951171875,-0.245361328125,-43.1875,28.0,-3.1875,8.38,4.06,3.05,moving,3
10.52,1848174.704533932,23,3,3,0,3,34.64,11.69,2.34,25.73,7.78,1.1,286.8125,-1067.6875,174.0625,0.71588134765625,0.0709228515625,-0.65692138671875,-0.225830078125,-43.1875,28.0,-3.1875,8.9,3.9,1.24,moving,3
10.53,1848174.739342159,23,3,3,0,3,39.08,16.53,2.92,30.07,12.84,4.08,620.75,-1271.875,137.9375,0.636962890625,0.076171875,-0.74371337890625,-0.18804931640625,-43.1875,28.0,-3.1875,9.01,3.69,-1.15,moving,3
10.54,1848174.739342159,23,3,3,0,3,38.49,31.34,13.35,29.82,27.82,16.27,752.5625,-834.8125,-65.25,0.573974609375,0.10797119140625,-0.7982177734375,-0.14764404296875,-43.1875,28.0,-3.1875,8.67,3.52,-2.91,moving,3
10.55,1848174.749476071,23,3,3,0,3,21.75,19.11,-18.64,13.19,15.55,-15.44,424.375,-16.25,-169.5,0.566162109375,0.14068603515625,-0.80224609375,-0.12664794921875,-43.1875,28.0,-3.1875,8.55,3.55,-3.2,moving,3
10.56,1848174.749476071,23,3,3,0,3,10.17,1.81,-9.29,1.61,-1.93,-6.32,154.5625,222.25,-184.4375,0.5775146484375,0.16363525390625,-0.7904052734375,-0.1221923828125,-34.5,32.375,17.75,8.56,3.74,-2.97,moving,3
10.57,1848174.764455074,23,3,3,0,3,10.17,1.81,-9.29,1.61,-1.93,-6.32,154.5625,222.25,-184.4375,0.5775146484375,0.16363525390625,-0.7904052734375,-0.1221923828125,-34.5,32.375,17.75,8.56,3.74,-2.97,moving,3
10.57,1848174.764455074,23,3,3,0,3,9.86,3.28,-9.72,1.31,-0.6,-6.9,124.375,157.4375,-138.8125,0.5849609375,0.18109130859375,-0.78167724609375,-0.1182861328125,-34.5,32.375,17.75,8.54,3.89,-2.82,moving,3
10.58,1848174.777780799,23,3,3,0,3,10.27,5.71,-8.92,1.7,1.81,-6.19,85.875,98.125,-28.6875,0.5899658203125,0.1884765625,-0.77703857421875,-0.11236572265625,-34.5,32.375,17.75,8.57,3.89,-2.73,moving,3
10.59,1848174.777780799,23,3,3,0,3,11.83,7.62,-6.62,3.25,3.78,-3.81,62.0,-21.375,12.9375,0.58758544921875,0.1905517578125,-0.77899169921875,-0.10784912109375,-34.5,32.375,17.75,8.57,3.84,-2.8,moving,3
10.6,1848174.809705115,23,3,3,0,3,13.55,8.98,-2.47,5.0,5.17,0.43,76.4375,-38.5,-3.8125,0.5836181640625,0.19439697265625,-0.7816162109375,-0.10345458984375,-34.5,32.375,17.75,8.55,3.81,-2.91,moving,3
10.61,1848174.809705115,23,3,3,0,3,10.76,7.65,-2.81,2.18,3.84,0.05,87.25,70.25,-23.9375,0.586669921875,0.20111083984375,-0.77838134765625,-0.0975341796875,-36.1875,34.5625,11.1875,8.57,3.8,-2.86,moving,3
10.62,1848174.824816036,23,3,3,0,3,8.01,5.43,-2.51,-0.59,1.61,0.19,71.0,140.9375,-40.6875,0.59454345703125,0.20867919921875,-0.77099609375,-0.09234619140625,-36.1875,34.5625,11.1875,8.61,3.82,-2.7,moving,3
10.63,1848174.824816036,23,3,3,0,3,5.91,4.07,-1.6,-2.72,0.19,0.95,70.375,131.6875,-57.9375,0.6015625,0.21728515625,-0.76361083984375,-0.08819580078125,-36.1875,34.5625,11.1875,8.63,3.88,-2.55,moving,3
10.64,1848174.841209673,23,3,3,0,3,2.77,3.23,0.68,-5.86,-0.69,3.11,87.5625,125.4375,-59.625,0.60772705078125,0.226806640625,-0.75653076171875,-0.08306884765625,-36.1875,34.5625,11.1875,8.64,3.93,-2.42,moving,3
10.65,1848174.841209673,23,3,3,0,3,1.53,2.73,1.66,-7.12,-1.25,3.94,95.5625,141.6875,-63.375,0.6146240234375,0.237060546875,-0.74835205078125,-0.07733154296875,-36.1875,34.5625,11.1875,8.66,3.99,-2.28,moving,3
10.66,1848174.870658851,23,3,3,0,3,0.63,1.94,1.93,-8.03,-2.14,3.99,79.9375,181.1875,-84.0,0.62408447265625,0.24798583984375,-0.73736572265625,-0.0728759765625,-36.875,34.25,6.5625,8.67,4.08,-2.06,moving,3
10.67,1848174.870658851,23,3,3,0,3,-0.67,0.57,2.65,-9.34,-3.66,4.39,51.1875,241.75,-109.5625,0.63763427734375,0.25933837890625,-0.721923828125,-0.0703125,-36.875,34.25,6.5625,8.67,4.23,-1.73,moving,3
10.68,1848174.886002682,23,3,3,0,3,-1.24,0.15,2.78,-9.9,-4.27,4.04,23.9375,328.375,-128.0625,0.65667724609375,0.2706298828125,-0.70062255859375,-0.0684814453125,-36.875,34.25,6.5625,8.66,4.42,-1.25,moving,3
10.69,1848174.886002682,23,3,3,0,3,-1.65,-0.11,2.6,-10.27,-4.74,3.21,-5.4375,426.75,-139.4375,0.6815185546875,0.28118896484375,-0.67236328125,-0.066650390625,-36.875,34.25,6.5625,8.61,4.63,-0.6,moving,3
10.7,1848174.899810665,23,3,3,0,3,-1.73,-0.27,1.92,-10.25,-5.11,1.73,-35.625,511.375,-138.6875,0.7108154296875,0.28985595703125,-0.63763427734375,-0.06439208984375,-36.875,34.25,6.5625,8.52,4.84,0.18,moving,3
10.71,1848174.899810665,23,3,3,0,3,-2.21,-1.18,1.12,-10.57,-6.19,0.04,-64.25,566.375,-114.625,0.7423095703125,0.2950439453125,-0.5985107421875,-0.0606689453125,-40.75,31.75,-2.5,8.36,5.0,1.07,moving,3
10.72,1848174.931867713,23,3,3,0,3,-1.9,-2.02,0.41,-10.05,-7.1,-1.58,-95.9375,584.3125,-67.3125,0.77386474609375,0.2950439453125,-0.55767822265625,-0.054931640625,-40.75,31.75,-2.5,8.14,5.07,1.99,moving,3
10.73,1848174.931867713,23,3,3,0,3,-2.19,-1.94,-0.44,-10.09,-6.96,-3.35,-152.4375,552.75,-4.875,0.80364990234375,0.28729248046875,-0.51885986328125,-0.04840087890625,-40.75,31.75,-2.5,7.9,5.02,2.9,moving,3
10.74,1848174.94133158,23,3,3,0,3,-1.85,-1.05,-2.76,-9.53,-5.87,-6.49,-215.5,473.875,55.625,0.82989501953125,0.27142333984375,-0.48565673828125,-0.0423583984375,-40.75,31.75,-2.5,7.67,4.82,3.73,moving,3
10.75,1848174.94133158,23,3,3,0,3,-2.29,-1.04,-8.33,-9.79,-5.58,-12.74,-233.5625,362.8125,89.875,0.8504638671875,0.25189208984375,-0.4603271484375,-0.037109375,-40.75,31.75,-2.5,7.49,4.53,4.4,moving,3
10.76,1848174.955027137,23,3,3,0,3,0.69,-1.37,-8.62,-6.72,-5.65,-13.41,-169.25,194.0625,99.8125,0.862060546875,0.23590087890625,-0.44744873046875,-0.03228759765625,-38.6875,29.5625,-20.5,7.41,4.27,4.78,moving,3
10.77,1848174.955027137,23,3,3,0,3,6.62,-1.31,-6.38,-0.9,-5.42,-11.14,-20.9375,-36.625,107.25,0.86126708984375,0.22998046875,-0.45233154296875,-0.0257568359375,-38.6875,29.5625,-20.5,7.52,4.11,4.75,moving,3
10.78,1848174.988015133,23,3,3,0,3,12.48,-0.35,-6.15,4.6,-4.36,-10.38,147.875,-311.5,163.625,0.84588623046875,0.23382568359375,-0.4791259765625,-0.01385498046875,-38.6875,29.5625,-20.5,7.88,4.01,4.23,moving,3
10.79,1848174.988015133,23,3,3,0,3,23.57,2.01,-8.05,15.08,-1.8,-11.14,311.1875,-651.25,275.6875,0.810791015625,0.24395751953125,-0.531982421875,0.00616455078125,-38.6875,29.5625,-20.5,8.48,3.81,3.08,moving,3
10.8,1848175.003319821,23,3,3,0,3,28.97,0.73,-9.17,19.85,-2.69,-10.29,519.8125,-1065.375,379.0625,0.74566650390625,0.26214599609375,-0.611572265625,0.03424072265625,-38.6875,29.5625,-20.5,9.12,3.42,1.12,moving,3
10.81,1848175.003319821,23,3,3,0,3,34.2,-0.47,-6.98,24.92,-3.2,-5.37,761.625,-1442.5,409.1875,0.6431884765625,0.29107666015625,-0.70501708984375,0.06781005859375,-32.75,34.0,-21.25,9.28,2.73,-1.6,moving,3
10.82,1848175.021302365,23,3,3,0,3,39.08,6.54,-23.2,30.44,4.78,-18.91,772.1875,-1524.3125,367.0625,0.5216064453125,0.317138671875,-0.78619384765625,0.0960693359375,-32.75,34.0,-21.25,8.64,1.76,-4.28,moving,3
10.83,1848175.021302365,23,3,3,0,3,39.08,6.54,-23.2,30.44,4.78,-18.91,772.1875,-1524.3125,367.0625,0.5216064453125,0.317138671875,-0.78619384765625,0.0960693359375,-32.75,34.0,-21.25,8.64,1.76,-4.28,moving,3
10.83,1848175.035556963,23,3,3,0,3,36.55,17.83,-15.21,28.74,16.71,-9.39,349.5,-1001.4375,232.125,0.43927001953125,0.3240966796875,-0.83160400390625,0.10247802734375,-32.75,34.0,-21.25,7.81,1.12,-5.81,moving,3
10.84,1848175.035556963,23,3,3,0,3,25.39,12.1,-15.36,17.7,11.1,-9.35,-72.0,-149.4375,150.0625,0.42901611328125,0.31170654296875,-0.842041015625,0.0987548828125,-32.75,34.0,-21.25,7.68,0.99,-6.0,moving,3
10.85,1848175.047757239,23,3,3,0,3,18.45,2.62,-9.3,10.19,1.44,-4.14,-229.75,577.875,21.125,0.47674560546875,0.296142578125,-0.82177734375,0.0982666015625,-32.75,34.0,-21.25,8.25,1.18,-5.15,moving,3
10.86,1848175.047757239,23,3,3,0,3,12.73,0.09,-3.32,3.95,-1.48,0.74,-246.25,697.625,-129.6875,0.53302001953125,0.28857421875,-0.7899169921875,0.093017578125,-33.5,37.875,-3.25,8.78,1.57,-4.06,moving,3
10.87,1848175.064152055,23,3,3,0,3,11.95,0.14,-2.44,2.89,-1.92,0.67,-268.625,552.3125,-214.6875,0.57861328125,0.28594970703125,-0.759765625,0.07830810546875,-33.5,37.875,-3.25,9.06,2.07,-3.11,moving,3
10.88,1848175.064152055,23,3,3,0,3,9.85,0.44,-2.33,0.66,-2.1,-0.01,-248.5,443.25,-219.75,0.61492919921875,0.28460693359375,-0.7327880859375,0.061767578125,-33.5,37.875,-3.25,9.18,2.54,-2.31,moving,3
10.89,1848175.090673865,23,3,3,0,3,7.46,2.32,-0.93,-1.77,-0.51,0.75,-197.3125,331.625,-136.625,0.641357421875,0.28082275390625,-0.7122802734375,0.050048828125,-33.5,37.875,-3.25,9.23,2.83,-1.69,moving,3
10.9,1848175.090673865,23,3,3,0,3,6.26,2.9,1.91,-2.98,-0.05,3.25,-159.0625,168.125,-53.5,0.65570068359375,0.27447509765625,-0.7021484375,0.041259765625,-33.5,37.875,-3.25,9.25,2.96,-1.33,moving,3
10.91,1848175.108955766,23,3,3,0,3,6.82,2.42,2.57,-2.41,-0.62,3.82,-157.9375,5.3125,-32.875,0.65985107421875,0.26739501953125,-0.7015380859375,0.02984619140625,-35.1875,37.0,-7.5,9.23,3.04,-1.24,moving,3
10.92,1848175.108955766,23,3,3,0,3,6.6,1.96,2.32,-2.59,-1.16,3.61,-160.375,-77.4375,-28.25,0.6588134765625,0.26007080078125,-0.70574951171875,0.0166015625,-35.1875,37.0,-7.5,9.2,3.13,-1.28,moving,3
10.93,1848175.139836585,23,3,3,0,3,5.01,1.52,2.08,-4.16,-1.68,3.38,-127.125,-51.0,-31.375,0.6585693359375,0.25469970703125,-0.7081298828125,0.005859375,-35.1875,37.0,-7.5,9.17,3.2,-1.3,moving,3
10.94,1848175.139836585,23,3,3,0,3,0.99,0.27,1.94,-8.14,-3.02,3.22,-83.75,-10.6875,-47.1875,0.65972900390625,0.2528076171875,-0.70770263671875,-0.00225830078125,-35.1875,37.0,-7.5,9.14,3.3,-1.27,moving,3
10.95,1848175.155264238,23,3,3,0,3,0.25,0.56,1.91,-8.85,-2.86,3.12,-64.4375,12.8125,-67.75,0.661865234375,0.2532958984375,-0.7054443359375,-0.0098876953125,-35.1875,37.0,-7.5,9.1,3.42,-1.21,moving,3
10.96,1848175.155264238,23,3,3,0,3,0.62,1.48,2.3,-8.43,-2.09,3.41,-60.5625,42.6875,-90.5,0.66571044921875,0.25537109375,-0.700927734375,-0.01788330078125,-35.875,35.875,-5.875,9.06,3.58,-1.1,moving,3
10.97,1848175.172241004,23,3,3,0,3,1.28,2.54,2.42,-7.72,-1.22,3.35,-59.4375,86.9375,-117.5,0.67205810546875,0.25921630859375,-0.693115234375,-0.0263671875,-35.875,35.875,-5.875,9.0,3.77,-0.93,moving,3
10.98,1848175.172241004,23,3,3,0,3,-0.82,2.95,3.85,-9.74,-1.04,4.55,-63.3125,124.8125,-140.75,0.68060302734375,0.2642822265625,-0.682373046875,-0.03564453125,-35.875,35.875,-5.875,8.92,4.0,-0.69,moving,3
10.99,1848175.1859436,23,3,3,0,3,-1.57,2.5,3.35,-10.4,-1.75,3.7,-94.0,177.75,-161.6875,0.69268798828125,0.268798828125,-0.66766357421875,-0.04669189453125,-35.875,35.875,-5.875,8.82,4.26,-0.35,moving,3
11.0,1848175.1859436,23,3,3,0,3,-1.77,1.04,3.0,-10.47,-3.49,2.87,-147.3125,247.625,-178.3125,0.70953369140625,0.27117919921875,-0.64764404296875,-0.06024169921875,-35.875,35.875,-5.875,8.69,4.53,0.13,moving,3
11.01,1848175.210937212,23,3,3,0,3,-2.04,-1.03,0.24,-10.57,-5.81,-0.53,-211.0,316.0,-172.0625,0.73095703125,0.26934814453125,-0.62249755859375,-0.07525634765625,-38.75,34.0625,-5.875,8.52,4.78,0.78,moving,3
11.02,1848175.210937212,23,3,3,0,3,-1.49,-0.63,-2.13,-9.82,-5.56,-3.69,-290.4375,360.6875,-145.9375,0.7557373046875,0.2608642578125,-0.5936279296875,-0.091796875,-38.75,34.0625,-5.875,8.32,4.93,1.55,moving,3
11.03,1848175.224650998,23,3,3,0,3,-0.92,0.15,-5.57,-9.04,-4.81,-7.95,-375.125,350.0,-109.875,0.78070068359375,0.244384765625,-0.56451416015625,-0.1103515625,-38.75,34.0625,-5.875,8.11,4.96,2.38,moving,3
11.04,1848175.224650998,23,3,3,0,3,2.14,-0.2,-11.35,-5.77,-5.07,-14.45,-433.125,249.1875,-80.3125,0.80059814453125,0.22100830078125,-0.5411376953125,-0.1317138671875,-38.75,34.0625,-5.875,7.92,4.86,3.1,moving,3
11.05,1848175.256811683,23,3,3,0,3,8.11,-0.63,-12.8,0.22,-5.34,-16.21,-387.9375,-17.8125,-47.875,0.80621337890625,0.19586181640625,-0.53668212890625,-0.15362548828125,-38.75,34.0625,-5.875,7.89,4.71,3.4,moving,3
11.06,1848175.256811683,23,3,3,0,3,9.72,-0.13,-10.6,1.58,-4.68,-13.62,-181.125,-375.25,43.0625,0.791748046875,0.176025390625,-0.56103515625,-0.1654052734375,-41.0,29.75,-11.25,8.14,4.55,3.02,moving,3
11.07,1848175.277327511,23,3,3,0,3,11.23,0.08,-10.61,2.72,-4.3,-12.72,93.75,-578.625,144.625,0.76300048828125,0.16680908203125,-0.603759765625,-0.15948486328125,-41.0,29.75,-11.25,8.51,4.38,2.11,moving,3
11.08,1848175.277327511,23,3,3,0,3,13.15,0.22,-11.34,4.3,-3.91,-12.1,347.125,-720.6875,214.375,0.7210693359375,0.16815185546875,-0.65802001953125,-0.13702392578125,-41.0,29.75,-11.25,8.85,4.14,0.75,moving,3
11.09,1848175.289650509,23,3,3,0,3,13.15,0.22,-11.34,4.3,-3.91,-12.1,347.125,-720.6875,214.375,0.7210693359375,0.16815185546875,-0.65802001953125,-0.13702392578125,-41.0,29.75,-11.25,8.85,4.14,0.75,moving,3
11.09,1848175.289650509,23,3,3,0,3,24.92,8.69,-4.18,15.93,4.92,-3.11,511.625,-951.3125,236.4375,0.65869140625,0.17462158203125,-0.72412109375,-0.106201171875,-41.0,29.75,-11.25,8.99,3.76,-1.07,moving,3
11.1,1848175.302832191,23,3,3,0,3,35.55,12.41,-12.89,26.81,9.12,-9.87,485.3125,-1063.5,198.1875,0.58282470703125,0.17913818359375,-0.78857421875,-0.0799560546875,-41.0,29.75,-11.25,8.73,3.28,-3.01,moving,3
11.11,1848175.302832191,23,3,3,0,3,38.58,18.1,-9.93,29.95,14.79,-6.66,199.8125,-90.875,-87.875,0.5726318359375,0.1947021484375,-0.7930908203125,-0.072021484375,-38.5,32.25,2.5,8.63,3.3,-3.27,moving,3
11.12,1848175.3182561,23,3,3,0,3,37.54,33.66,3.98,29.02,30.34,7.51,199.8125,-90.875,-87.875,0.56219482421875,0.21014404296875,-0.7972412109375,-0.06414794921875,-38.5,32.25,2.5,8.52,3.31,-3.52,moving,3
11.13,1848175.3182561,23,3,3,0,3,13.31,2.87,-6.98,4.54,-0.63,-4.34,-156.3125,527.3125,-70.75,0.6005859375,0.2100830078125,-0.76837158203125,-0.0687255859375,-38.5,32.25,2.5,8.76,3.51,-2.63,moving,3
11.14,1848175.350811764,23,3,3,0,3,11.82,0.65,-4.77,2.93,-3.11,-3.09,-205.125,537.25,-121.125,0.6387939453125,0.21044921875,-0.73583984375,-0.078857421875,-38.5,32.25,2.5,8.89,3.77,-1.68,moving,3
11.15,1848175.350811764,23,3,3,0,3,11.29,4.26,-4.85,2.37,0.31,-3.82,-133.9375,361.3125,-92.6875,0.663330078125,0.2113037109375,-0.71270751953125,-0.0859375,-38.5,32.25,2.5,8.91,3.94,-1.03,moving,3
11.16,1848175.363145423,23,3,3,0,3,14.42,9.86,1.58,5.51,5.92,2.61,27.75,12.9375,-0.5625,0.66357421875,0.2130126953125,-0.712158203125,-0.083984375,-31.5625,37.375,9.0,8.91,3.94,-1.03,moving,3
11.17,1848175.363145423,23,3,3,0,3,15.08,8.16,1.74,6.16,4.22,2.77,27.75,12.9375,-0.5625,0.663818359375,0.21478271484375,-0.711669921875,-0.08203125,-31.5625,37.375,9.0,8.92,3.94,-1.03,moving,3
11.18,1848175.380767819,23,3,3,0,3,13.65,5.55,-0.11,4.75,1.58,0.97,86.75,2.1875,-34.125,0.66204833984375,0.221923828125,-0.7115478515625,-0.07855224609375,-31.5625,37.375,9.0,8.89,3.97,-1.08,moving,3
11.19,1848175.380767819,23,3,3,0,3,11.65,4.13,-1.17,2.78,0.11,0.0,137.5,4.5625,-43.375,0.6593017578125,0.23260498046875,-0.7113037109375,-0.07244873046875,-31.5625,37.375,9.0,8.86,4.01,-1.17,moving,3
11.2,1848175.406539751,23,3,3,0,3,7.42,2.93,-2.08,-1.41,-1.11,-0.76,178.3125,-10.9375,-40.8125,0.65460205078125,0.24530029296875,-0.71221923828125,-0.06396484375,-31.5625,37.375,9.0,8.83,4.04,-1.32,moving,3
11.21,1848175.406539751,23,3,3,0,3,5.92,2.34,-1.88,-2.88,-1.7,-0.36,196.1875,-35.8125,-36.5,0.6478271484375,0.25848388671875,-0.7144775390625,-0.0545654296875,-35.6875,35.1875,5.1875,8.8,4.04,-1.51,moving,3
11.22,1848175.427175168,23,3,3,0,3,4.65,1.65,-1.22,-4.1,-2.39,0.49,188.8125,-44.0625,-34.5625,0.64056396484375,0.2711181640625,-0.717041015625,-0.0457763671875,-35.6875,35.1875,5.1875,8.76,4.04,-1.71,moving,3
11.23,1848175.427175168,23,3,3,0,3,3.81,1.11,-0.61,-4.91,-2.94,1.25,161.5,-21.125,-37.8125,0.63519287109375,0.2823486328125,-0.7178955078125,-0.03826904296875,-35.6875,35.1875,5.1875,8.73,4.05,-1.86,moving,3
11.24,1848175.438201616,23,3,3,0,3,2.21,0.71,0.18,-6.49,-3.37,2.1,124.375,23.625,-49.5,0.63336181640625,0.29241943359375,-0.71575927734375,-0.0325927734375,-35.6875,35.1875,5.1875,8.7,4.09,-1.91,moving,3
11.25,1848175.438201616,23,3,3,0,3,1.68,0.53,0.49,-6.99,-3.62,2.36,87.9375,78.375,-65.75,0.6357421875,0.30157470703125,-0.7099609375,-0.02874755859375,-35.6875,35.1875,5.1875,8.68,4.16,-1.86,moving,3
11.26,1848175.47202966,23,3,3,0,2,0.82,0.33,1.32,-7.83,-3.93,3.0,55.625,145.75,-80.3125,0.64300537109375,0.30999755859375,-0.6998291015625,-0.02587890625,-37.875,33.75,-1.25,8.66,4.26,-1.68,moving,3
11.27,1848175.47202966,23,3,3,0,2,0.09,-0.04,2.16,-8.57,-4.43,3.49,23.125,247.375,-91.25,0.65704345703125,0.31732177734375,-0.68341064453125,-0.02288818359375,-37.875,33.75,-1.25,8.66,4.39,-1.32,moving,3
11.28,1848175.485849281,23,3,3,0,2,0.3,-0.22,0.82,-8.35,-4.74,1.63,-14.375,342.0625,-84.25,0.67730712890625,0.32208251953125,-0.6611328125,-0.01910400390625,-37.875,33.75,-1.25,8.66,4.52,-0.8,moving,3
11.29,1848175.485849281,23,3,3,0,2,0.09,0.5,0.12,-8.55,-4.11,0.33,-53.5625,358.1875,-54.4375,0.69903564453125,0.32244873046875,-0.6380615234375,-0.01531982421875,-37.875,33.75,-1.25,8.65,4.61,-0.21,moving,3
11.3,1848175.499637407,23,3,3,0,2,-1.03,0.66,0.5,-9.65,-3.98,0.11,-86.875,360.75,-23.4375,0.72113037109375,0.31878662109375,-0.614990234375,-0.01141357421875,-37.875,33.75,-1.25,8.62,4.64,0.39,moving,3
11.31,1848175.499637407,23,3,3,0,2,-1.94,0.46,-1.43,-10.52,-4.15,-2.49,-108.75,381.9375,3.5,0.744140625,0.31195068359375,-0.59063720703125,-0.00640869140625,-39.0,31.5625,-6.6875,8.58,4.62,1.05,moving,3
11.32,1848175.530831418,23,3,3,0,2,-1.62,0.61,-2.81,-10.14,-3.94,-4.47,-121.8125,343.5,25.125,0.7647705078125,0.30279541015625,-0.5687255859375,-0.001708984375,-39.0,31.5625,-6.6875,8.52,4.56,1.66,moving,3
11.33,1848175.530831418,23,3,3,0,2,-0.52,0.71,-3.9,-8.99,-3.74,-6.0,-116.75,231.375,40.8125,0.77911376953125,0.29290771484375,-0.55419921875,0.0013427734375,-39.0,31.5625,-6.6875,8.47,4.46,2.09,moving,3
