timestamp,android_nano_timestamp,temperature,calib_mag,calib_accel,calib_gyro,calib_sys,acc_x,acc_y,acc_z,lacc_x,lacc_y,lacc_z,gyro_x,gyro_y,gyro_z,quat_w,quat_x,quat_y,quat_z,mag_x,mag_y,mag_z,gravity_x,gravity_y,gravity_z,label,person
8.57,31063.366903106,24,3,3,3,3,-0.9,8.97,4.72,0.05,0.42,0.01,-91.1875,-31.4375,68.75,0.77813720703125,0.48223876953125,-0.1649169921875,-0.3670654296875,-5.5625,-18.25,-20.375,-0.95,8.54,4.71,moving,12
8.58,31063.366903106,24,3,3,3,3,-0.77,8.9,4.62,0.04,0.42,-0.23,-94.5,-33.25,69.375,0.7838134765625,0.47369384765625,-0.16705322265625,-0.3651123046875,-5.5625,-18.25,-20.375,-0.82,8.47,4.85,moving,12
8.59,31063.382888092,24,3,3,3,3,-0.55,8.82,4.58,0.13,0.42,-0.41,-97.375,-36.0625,70.0625,0.78948974609375,0.46484375,-0.1693115234375,-0.36322021484375,-5.5625,-18.25,-20.375,-0.68,8.4,5.0,moving,12
8.6,31063.382888092,24,3,3,3,3,-0.18,8.34,4.67,0.37,0.01,-0.48,-98.3125,-38.0625,70.6875,0.79510498046875,0.455810546875,-0.17169189453125,-0.361328125,-5.5625,-18.25,-20.375,-0.55,8.32,5.15,moving,12
8.61,31063.412516347,24,3,3,3,3,-0.13,8.1,4.7,0.28,-0.13,-0.58,-98.0,-37.6875,69.9375,0.80133056640625,0.44708251953125,-0.173095703125,-0.35784912109375,-6.0,-16.5,-20.0,-0.41,8.24,5.29,moving,12
8.62,31063.412516347,24,3,3,3,3,-0.17,7.82,4.77,0.1,-0.33,-0.66,-98.5625,-36.4375,68.5,0.80670166015625,0.43798828125,-0.17523193359375,-0.35595703125,-6.0,-16.5,-20.0,-0.28,8.15,5.44,moving,12
8.63,31063.425532216,24,3,3,3,3,-0.1,7.47,5.12,0.05,-0.58,-0.45,-99.125,-37.75,67.0,0.81195068359375,0.42877197265625,-0.1773681640625,-0.35418701171875,-6.0,-16.5,-20.0,-0.15,8.06,5.58,moving,12
8.64,31063.425532216,24,3,3,3,3,-0.01,7.28,4.98,0.0,-0.68,-0.73,-97.1875,-38.9375,65.4375,0.81695556640625,0.41961669921875,-0.1795654296875,-0.35247802734375,-6.0,-16.5,-20.0,-0.02,7.96,5.72,moving,12
8.65,31063.440850413,24,3,3,3,3,0.06,7.01,4.83,-0.03,-0.85,-1.0,-91.625,-38.875,63.875,0.8216552734375,0.410888671875,-0.181884765625,-0.35076904296875,-6.0,-16.5,-20.0,0.1,7.87,5.84,moving,12
8.66,31063.440850413,24,3,3,3,3,0.14,6.83,4.9,-0.08,-0.94,-1.05,-82.5625,-39.125,62.0625,0.825927734375,0.40277099609375,-0.1842041015625,-0.3487548828125,-8.5625,-14.25,-20.75,0.22,7.78,5.95,moving,12
8.67,31063.455816436,24,3,3,3,3,0.34,6.81,4.87,0.0,-0.89,-1.18,-70.4375,-39.0,59.375,0.82958984375,0.39556884765625,-0.18701171875,-0.346923828125,-8.5625,-14.25,-20.75,0.35,7.7,6.05,moving,12
8.68,31063.455816436,24,3,3,3,3,0.34,6.77,4.61,-0.12,-0.86,-1.5,-57.9375,-36.75,57.0,0.83270263671875,0.3892822265625,-0.18988037109375,-0.34503173828125,-8.5625,-14.25,-20.75,0.46,7.64,6.12,moving,12
8.69,31063.488311635,24,3,3,3,3,0.39,6.76,4.56,-0.18,-0.82,-1.62,-48.5,-33.5625,54.3125,0.83538818359375,0.38385009765625,-0.19268798828125,-0.343017578125,-8.5625,-14.25,-20.75,0.57,7.58,6.18,moving,12
8.7,31063.488311635,24,3,3,3,3,0.47,6.79,4.63,-0.2,-0.74,-1.6,-42.4375,-31.125,51.9375,0.83782958984375,0.37896728515625,-0.1954345703125,-0.34100341796875,-8.5625,-14.25,-20.75,0.67,7.53,6.24,moving,12
8.71,31063.500796091,24,3,3,3,3,0.55,6.88,4.84,-0.21,-0.59,-1.44,-37.625,-30.0,49.6875,0.8406982421875,0.37481689453125,-0.1973876953125,-0.3372802734375,-8.875,-11.75,-21.5625,0.77,7.48,6.28,moving,12
8.72,31063.500796091,24,3,3,3,3,0.5,6.75,4.7,-0.36,-0.69,-1.62,-32.375,-27.0,46.8125,0.8426513671875,0.370849609375,-0.199951171875,-0.33526611328125,-8.875,-11.75,-21.5625,0.86,7.44,6.32,moving,12
8.73,31063.515594024,24,3,3,3,3,0.52,6.57,4.6,-0.42,-0.83,-1.75,-26.25,-24.625,44.375,0.8443603515625,0.367431640625,-0.20245361328125,-0.333251953125,-8.875,-11.75,-21.5625,0.95,7.4,6.35,moving,12
8.74,31063.515594024,24,3,3,3,3,0.6,6.53,4.65,-0.41,-0.85,-1.69,-18.4375,-23.0625,42.25,0.84515380859375,0.36590576171875,-0.20501708984375,-0.331298828125,-8.875,-11.75,-21.5625,1.02,7.39,6.35,moving,12
8.75,31063.547924591,24,3,3,3,3,0.73,6.55,4.92,-0.35,-0.82,-1.43,-7.875,-20.9375,39.4375,0.84619140625,0.364013671875,-0.20758056640625,-0.32916259765625,-8.875,-11.75,-21.5625,1.09,7.38,6.36,moving,12
8.76,31063.547924591,24,3,3,3,3,0.83,6.51,4.97,-0.32,-0.86,-1.37,2.625,-17.5,35.75,0.8472900390625,0.36334228515625,-0.2095947265625,-0.32586669921875,-9.5625,-10.6875,-20.75,1.16,7.37,6.35,moving,12
8.77,31063.56101419,24,3,3,3,3,0.88,6.38,5.02,-0.33,-0.99,-1.31,8.8125,-12.8125,31.0625,0.84765625,0.363037109375,-0.2117919921875,-0.32379150390625,-9.5625,-10.6875,-20.75,1.21,7.38,6.34,moving,12
8.78,31063.56101419,24,3,3,3,3,1.14,6.63,4.96,-0.1,-0.75,-1.36,10.4375,-9.0625,26.0,0.84783935546875,0.36309814453125,-0.213623046875,-0.32196044921875,-9.5625,-10.6875,-20.75,1.25,7.38,6.32,moving,12
8.79,31063.593039215,24,3,3,3,3,1.09,6.85,4.79,-0.19,-0.54,-1.52,9.3125,-7.75,22.25,0.8480224609375,0.3631591796875,-0.21514892578125,-0.32037353515625,-9.5625,-10.6875,-20.75,1.29,7.39,6.31,moving,12
8.8,31063.593039215,24,3,3,3,3,0.99,7.2,4.72,-0.33,-0.19,-1.57,8.125,-4.8125,20.375,0.8482666015625,0.36322021484375,-0.21636962890625,-0.31890869140625,-9.5625,-10.6875,-20.75,1.32,7.39,6.3,moving,12
8.81,31063.607240793,24,3,3,3,3,0.84,7.68,5.06,-0.5,0.28,-1.22,8.0625,-2.6875,18.0,0.84893798828125,0.36376953125,-0.216796875,-0.31610107421875,-10.0,-10.25,-20.75,1.35,7.4,6.28,moving,12
8.82,31063.607240793,24,3,3,3,3,0.6,8.07,5.59,-0.77,0.66,-0.68,10.9375,-2.125,17.1875,0.84906005859375,0.36419677734375,-0.2177734375,-0.314697265625,-10.0,-10.25,-20.75,1.37,7.4,6.27,moving,12
8.83,31063.620720001,24,3,3,3,3,0.65,8.03,5.69,-0.75,0.61,-0.56,11.4375,-2.1875,16.9375,0.84912109375,0.36468505859375,-0.21881103515625,-0.31329345703125,-10.0,-10.25,-20.75,1.4,7.41,6.25,moving,12
8.84,31063.620720001,24,3,3,3,3,0.76,8.04,5.87,-0.66,0.62,-0.37,7.0,-4.375,16.125,0.8492431640625,0.36480712890625,-0.2198486328125,-0.31207275390625,-10.0,-10.25,-20.75,1.42,7.42,6.24,moving,12
8.85,31063.636801951,24,3,3,3,3,0.8,7.93,5.69,-0.65,0.51,-0.54,5.5625,-5.625,15.875,0.849365234375,0.36474609375,-0.220947265625,-0.31097412109375,-10.0,-10.25,-20.75,1.45,7.42,6.23,moving,12
8.86,31063.636801951,24,3,3,3,3,0.99,7.95,5.07,-0.48,0.51,-1.14,12.4375,-6.0625,15.625,0.85003662109375,0.36578369140625,-0.2213134765625,-0.3076171875,-10.0,-10.0,-21.1875,1.48,7.43,6.22,moving,12
8.87,31063.666295237,24,3,3,3,3,1.17,8.18,4.79,-0.32,0.72,-1.39,24.9375,-6.0,14.3125,0.8494873046875,0.3671875,-0.222900390625,-0.3062744140625,-10.0,-10.0,-21.1875,1.5,7.45,6.18,moving,12
8.88,31063.666295237,24,3,3,3,3,1.39,8.47,4.7,-0.14,0.97,-1.42,40.8125,-6.0,16.4375,0.8485107421875,0.3697509765625,-0.2249755859375,-0.304443359375,-10.0,-10.0,-21.1875,1.53,7.49,6.13,moving,12
8.89,31063.680800038,24,3,3,3,3,1.5,8.64,4.85,-0.06,1.09,-1.2,54.875,-5.5,22.875,0.84722900390625,0.37322998046875,-0.22760009765625,-0.3018798828125,-10.0,-10.0,-21.1875,1.57,7.54,6.05,moving,12
8.9,31063.680800038,24,3,3,3,3,1.82,8.58,4.69,0.2,0.98,-1.27,61.4375,-6.5,28.0,0.8458251953125,0.37701416015625,-0.2305908203125,-0.29876708984375,-10.0,-10.0,-21.1875,1.61,7.6,5.97,moving,12
8.91,31063.711995188,24,3,3,3,3,2.15,8.56,4.25,0.48,0.91,-1.63,59.5625,-9.0625,31.1875,0.844970703125,0.3809814453125,-0.23321533203125,-0.29412841796875,-10.375,-10.0,-20.375,1.66,7.65,5.89,moving,12
8.92,31063.711995188,24,3,3,3,3,2.51,8.5,3.92,0.8,0.79,-1.88,57.4375,-8.5,32.1875,0.84368896484375,0.38433837890625,-0.23638916015625,-0.2908935546875,-10.375,-10.0,-20.375,1.71,7.7,5.81,moving,12
8.93,31063.738918324,24,3,3,3,3,2.96,8.38,3.66,1.19,0.62,-2.06,59.9375,-4.25,32.375,0.8424072265625,0.38800048828125,-0.23931884765625,-0.287353515625,-10.375,-10.0,-20.375,1.76,7.75,5.73,moving,12
8.94,31063.738918324,24,3,3,3,3,3.79,8.61,3.8,1.97,0.8,-1.84,59.0,-1.625,37.625,0.84130859375,0.3914794921875,-0.2421875,-0.283447265625,-10.375,-10.0,-20.375,1.81,7.8,5.65,moving,12
8.95,31063.745636179,24,3,3,3,3,3.88,8.9,3.88,2.01,1.05,-1.69,50.8125,7.9375,44.375,0.84075927734375,0.39447021484375,-0.244384765625,-0.27880859375,-10.375,-10.0,-20.375,1.87,7.84,5.58,moving,12
8.96,31063.745636179,24,3,3,3,3,3.66,8.9,3.97,1.75,1.03,-1.56,41.9375,27.3125,46.0625,0.84149169921875,0.397705078125,-0.24432373046875,-0.27215576171875,-10.375,-10.6875,-19.5625,1.9,7.86,5.53,moving,12
8.97,31063.773728831,24,3,3,3,3,2.97,8.19,4.39,1.04,0.3,-1.1,33.0625,42.375,44.875,0.84228515625,0.400146484375,-0.2435302734375,-0.2667236328125,-10.375,-10.6875,-19.5625,1.93,7.88,5.5,moving,12
8.98,31063.773728831,24,3,3,3,3,2.73,7.83,4.59,0.79,-0.05,-0.9,17.1875,51.25,41.75,0.84368896484375,0.4017333984375,-0.24163818359375,-0.261474609375,-10.375,-10.6875,-19.5625,1.93,7.88,5.49,moving,12
8.99,31063.787479197,24,3,3,3,3,2.85,7.62,4.43,0.91,-0.24,-1.09,-6.4375,57.125,38.125,0.84600830078125,0.40179443359375,-0.2386474609375,-0.25677490234375,-10.375,-10.6875,-19.5625,1.93,7.86,5.52,moving,12
9.0,31063.787479197,24,3,3,3,3,3.21,7.39,4.19,1.28,-0.43,-1.39,-28.75,59.5,34.125,0.84893798828125,0.4002685546875,-0.23480224609375,-0.25274658203125,-10.375,-10.6875,-19.5625,1.92,7.82,5.58,moving,12
9.01,31063.800880198,24,3,3,3,3,4.19,8.24,3.14,2.28,0.46,-2.5,-40.3125,60.25,30.5625,0.852783203125,0.39849853515625,-0.229736328125,-0.2474365234375,-10.6875,-12.0625,-20.0,1.9,7.77,5.65,moving,12
9.02,31063.800880198,24,3,3,3,3,4.19,8.24,3.14,2.28,0.46,-2.5,-40.3125,60.25,30.5625,0.852783203125,0.39849853515625,-0.229736328125,-0.2474365234375,-10.6875,-12.0625,-20.0,1.9,7.77,5.65,moving,12
9.02,31063.817128855,24,3,3,3,3,4.41,9.4,2.91,2.52,1.67,-2.82,-45.6875,63.5625,31.25,0.85626220703125,0.39581298828125,-0.22509765625,-0.2437744140625,-10.6875,-12.0625,-20.0,1.88,7.72,5.73,moving,12
9.03,31063.817128855,24,3,3,3,3,4.4,10.22,3.08,2.54,2.56,-2.75,-55.0625,78.0625,34.8125,0.86041259765625,0.3927001953125,-0.21929931640625,-0.23956298828125,-10.6875,-12.0625,-20.0,1.85,7.65,5.83,moving,12
9.04,31063.833452911,24,3,3,3,3,4.18,10.52,3.4,2.37,2.95,-2.55,-72.125,101.4375,38.5625,0.86553955078125,0.388671875,-0.2115478515625,-0.23455810546875,-10.6875,-12.0625,-20.0,1.8,7.57,5.96,moving,12
9.05,31063.833452911,24,3,3,3,3,3.41,10.68,3.24,1.67,3.23,-2.89,-104.25,121.5,44.9375,0.87213134765625,0.3824462890625,-0.2017822265625,-0.2288818359375,-10.6875,-12.0625,-20.0,1.73,7.44,6.13,moving,12
9.07,31063.863396637,24,3,3,3,3,2.83,10.15,3.57,1.17,2.88,-2.79,-148.25,135.0,55.375,0.88043212890625,0.37286376953125,-0.19036865234375,-0.2227783203125,-9.5625,-11.0625,-19.5625,1.65,7.26,6.36,moving,12
9.07,31063.863396637,24,3,3,3,3,2.25,9.16,4.1,0.67,2.12,-2.54,-185.625,144.4375,66.1875,0.889892578125,0.3602294921875,-0.1778564453125,-0.21600341796875,-9.5625,-11.0625,-19.5625,1.57,7.04,6.64,moving,12
9.08,31063.892739369,24,3,3,3,3,1.92,8.09,4.43,0.43,1.31,-2.49,-206.1875,150.875,76.1875,0.89990234375,0.3458251953125,-0.16461181640625,-0.20843505859375,-9.5625,-11.0625,-19.5625,1.49,6.77,6.92,moving,12
9.09,31063.892739369,24,3,3,3,3,1.86,7.17,4.63,0.46,0.68,-2.57,-215.625,153.0625,86.875,0.909912109375,0.33038330078125,-0.15130615234375,-0.2000732421875,-9.5625,-11.0625,-19.5625,1.4,6.48,7.21,moving,12
9.1,31063.899499908,24,3,3,3,3,1.94,7.25,4.99,0.63,1.07,-2.5,-222.0,155.1875,96.3125,0.91973876953125,0.31414794921875,-0.13787841796875,-0.1907958984375,-9.5625,-11.0625,-19.5625,1.31,6.18,7.49,moving,12
9.11,31063.899499908,24,3,3,3,3,1.58,6.68,5.49,0.37,0.82,-2.26,-223.25,161.875,105.875,0.92926025390625,0.29754638671875,-0.12408447265625,-0.18048095703125,-9.0625,-8.0,-21.6875,1.2,5.86,7.76,moving,12
9.12,31063.923731231,24,3,3,3,3,0.11,4.54,6.05,-0.97,-0.98,-1.96,-224.3125,167.375,113.875,0.9383544921875,0.28070068359375,-0.10992431640625,-0.16925048828125,-9.0625,-8.0,-21.6875,1.09,5.53,8.02,moving,12
9.13,31063.923731231,24,3,3,3,3,-0.62,3.51,6.52,-1.58,-1.66,-1.74,-232.8125,165.75,116.5,0.94696044921875,0.262939453125,-0.09576416015625,-0.1578369140625,-9.0625,-8.0,-21.6875,0.96,5.18,8.27,moving,12
9.14,31063.936219798,24,3,3,3,3,-1.33,2.77,7.56,-2.16,-2.04,-0.93,-234.25,159.5,114.75,0.95489501953125,0.2447509765625,-0.08203125,-0.1466064453125,-9.0625,-8.0,-21.6875,0.83,4.82,8.49,moving,12
9.15,31063.936219798,24,3,3,3,3,-2.05,2.29,8.92,-2.75,-2.17,0.22,-222.9375,148.4375,113.375,0.96185302734375,0.22723388671875,-0.06927490234375,-0.135498046875,-9.0625,-8.0,-21.6875,0.7,4.47,8.69,moving,12
9.16,31063.951017283,24,3,3,3,3,-3.74,0.1,10.51,-4.31,-4.03,1.64,-208.125,140.6875,105.5625,0.96783447265625,0.21075439453125,-0.05706787109375,-0.12506103515625,-5.5,-2.1875,-23.6875,0.56,4.14,8.87,moving,12
9.17,31063.951017283,24,3,3,3,3,-4.48,-1.06,12.62,-4.9,-4.89,3.6,-198.0,131.75,90.875,0.97283935546875,0.19500732421875,-0.04547119140625,-0.115966796875,-5.5,-2.1875,-23.6875,0.42,3.82,9.02,moving,12
9.18,31063.981957021,24,3,3,3,3,-5.4,-2.39,14.09,-5.69,-5.9,4.94,-192.875,111.125,77.9375,0.9771728515625,0.179443359375,-0.03546142578125,-0.108154296875,-5.5,-2.1875,-23.6875,0.29,3.51,9.15,moving,12
9.19,31063.981957021,24,3,3,3,3,-5.95,-3.78,14.51,-6.16,-7.0,5.25,-181.375,80.4375,62.25,0.98065185546875,0.16455078125,-0.02789306640625,-0.10211181640625,-5.5,-2.1875,-23.6875,0.2,3.22,9.26,moving,12
9.2,31063.996120758,24,3,3,3,3,-5.23,-5.3,15.14,-5.38,-8.27,5.8,-153.25,46.0625,37.6875,0.98321533203125,0.1517333984375,-0.02313232421875,-0.0986328125,-5.5,-2.1875,-23.6875,0.15,2.97,9.34,moving,12
9.21,31063.996120758,24,3,3,3,3,-4.41,-4.89,15.09,-4.55,-7.68,5.69,-107.8125,12.9375,11.9375,0.98492431640625,0.14263916015625,-0.02093505859375,-0.095458984375,-2.6875,2.0,-23.1875,0.13,2.79,9.39,moving,12
9.22,31064.012653717,24,3,3,3,3,-3.91,-4.26,15.1,-4.06,-6.97,5.67,-54.5625,-11.5,-9.4375,0.98553466796875,0.1378173828125,-0.0213623046875,-0.09649658203125,-2.6875,2.0,-23.1875,0.15,2.7,9.42,moving,12
9.24,31064.012653717,24,3,3,3,3,-3.92,-3.65,15.37,-4.09,-6.33,5.94,-10.9375,-23.0625,-28.8125,0.9853515625,0.13671875,-0.02288818359375,-0.0992431640625,-2.6875,2.0,-23.1875,0.17,2.68,9.42,moving,12
9.24,31064.057720001,24,3,3,3,3,-3.81,-2.47,15.16,-4.03,-5.17,5.74,5.8125,-39.8125,-47.8125,0.98480224609375,0.136962890625,-0.0257568359375,-0.10382080078125,-2.6875,2.0,-23.1875,0.21,2.69,9.42,moving,12
9.25,31064.057720001,24,3,3,3,3,-3.49,-2.37,14.67,-3.77,-5.07,5.24,-3.1875,-60.0,-69.6875,0.9840087890625,0.13623046875,-0.030029296875,-0.11053466796875,-2.6875,2.0,-23.1875,0.28,2.69,9.42,moving,12
9.26,31064.063178904,24,3,3,3,3,-3.17,-2.57,14.42,-3.54,-5.24,5.0,-16.0,-74.875,-91.4375,0.98309326171875,0.13433837890625,-0.03521728515625,-0.1195068359375,-2.6875,4.1875,-22.375,0.36,2.67,9.42,moving,12
9.27,31064.063178904,24,3,3,3,3,-3.02,-2.66,14.19,-3.48,-5.32,4.76,-14.25,-90.75,-110.4375,0.98175048828125,0.1324462890625,-0.04156494140625,-0.13006591796875,-2.6875,4.1875,-22.375,0.46,2.65,9.42,moving,12
9.28,31064.071327545,24,3,3,3,3,-2.8,-1.68,13.35,-3.38,-4.35,3.93,2.25,-107.75,-130.5,0.979736328125,0.1318359375,-0.04925537109375,-0.1424560546875,-2.6875,4.1875,-22.375,0.57,2.67,9.41,moving,12
9.29,31064.071327545,24,3,3,3,3,-2.89,-0.83,12.67,-3.6,-3.56,3.27,26.125,-122.375,-149.3125,0.9769287109375,0.13311767578125,-0.05828857421875,-0.156494140625,-2.6875,4.1875,-22.375,0.7,2.72,9.39,moving,12
9.3,31064.087304352,24,3,3,3,3,-2.89,-0.83,12.67,-3.6,-3.56,3.27,26.125,-122.375,-149.3125,0.9769287109375,0.13311767578125,-0.05828857421875,-0.156494140625,-2.6875,4.1875,-22.375,0.7,2.72,9.39,moving,12
9.31,31064.087304352,24,3,3,3,3,-2.91,-0.02,12.08,-3.76,-2.85,2.73,46.6875,-136.875,-162.8125,0.97332763671875,0.135986328125,-0.06866455078125,-0.17169189453125,-2.6875,4.1875,-22.375,0.85,2.82,9.35,moving,12
9.32,31064.100563832,24,3,3,3,3,-2.53,1.28,11.2,-3.54,-1.66,1.9,58.25,-151.125,-173.9375,0.96893310546875,0.13958740234375,-0.08026123046875,-0.1878662109375,-4.5,5.25,-22.375,1.01,2.94,9.29,moving,12
9.32,31064.100563832,24,3,3,3,3,-2.75,1.68,10.43,-3.92,-1.39,1.19,64.4375,-158.75,-181.75,0.96380615234375,0.14361572265625,-0.0924072265625,-0.20465087890625,-4.5,5.25,-22.375,1.17,3.08,9.23,moving,12
9.33,31064.132545644,24,3,3,3,3,-2.89,2.03,9.66,-4.22,-1.2,0.5,71.375,-164.3125,-186.3125,0.95806884765625,0.14813232421875,-0.1051025390625,-0.22174072265625,-4.5,5.25,-22.375,1.33,3.24,9.15,moving,12
9.34,31064.132545644,24,3,3,3,3,-2.62,2.33,9.02,-4.12,-1.07,-0.04,78.1875,-179.3125,-192.0625,0.951416015625,0.15283203125,-0.11907958984375,-0.23931884765625,-4.5,5.25,-22.375,1.5,3.41,9.07,moving,12
9.35,31064.146403798,24,3,3,3,3,-2.15,3.0,7.89,-3.83,-0.59,-1.06,86.375,-191.5,-195.5,0.94390869140625,0.157958984375,-0.13409423828125,-0.25714111328125,-4.5,5.25,-22.375,1.68,3.6,8.96,moving,12
9.37,31064.146403798,24,3,3,3,3,-1.98,3.37,7.3,-3.85,-0.42,-1.53,95.0,-199.25,-196.3125,0.935546875,0.1634521484375,-0.1497802734375,-0.27484130859375,-7.0,3.75,-21.25,1.86,3.8,8.84,moving,12
9.38,31064.162337067,24,3,3,3,3,-1.99,4.18,6.78,-4.03,0.14,-1.91,110.1875,-202.125,-196.3125,0.92633056640625,0.17010498046875,-0.166015625,-0.292236328125,-7.0,3.75,-21.25,2.04,4.04,8.69,moving,12
9.39,31064.162337067,24,3,3,3,3,-1.93,5.27,6.62,-4.15,0.96,-1.9,129.0625,-210.125,-192.4375,0.9161376953125,0.17779541015625,-0.183349609375,-0.30889892578125,-7.0,3.75,-21.25,2.21,4.3,8.52,moving,12
9.4,31064.191067779,24,3,3,3,3,-1.19,6.7,5.38,-3.58,2.12,-2.94,136.9375,-216.3125,-184.9375,0.9052734375,0.185791015625,-0.2012939453125,-0.32470703125,-7.0,3.75,-21.25,2.39,4.58,8.33,moving,12
9.4,31064.191067779,24,3,3,3,3,-0.53,7.0,4.66,-3.09,2.15,-3.47,133.5625,-216.4375,-178.1875,0.8939208984375,0.19317626953125,-0.21917724609375,-0.33984375,-7.0,3.75,-21.25,2.55,4.84,8.13,moving,12
9.41,31064.205897573,24,3,3,3,3,-0.19,7.36,4.13,-2.89,2.24,-3.78,133.625,-210.6875,-171.375,0.88232421875,0.2005615234375,-0.23651123046875,-0.35406494140625,-10.25,1.375,-18.875,2.7,5.11,7.92,moving,12
9.42,31064.205897573,24,3,3,3,3,-0.15,7.79,3.81,-2.99,2.41,-3.87,142.0,-205.75,-159.75,0.870361328125,0.20831298828125,-0.25384521484375,-0.366943359375,-10.25,1.375,-18.875,2.83,5.38,7.69,moving,12
9.43,31064.220655141,24,3,3,3,3,-0.11,8.55,2.71,-3.07,2.89,-4.73,147.5625,-203.375,-148.125,0.858154296875,0.2161865234375,-0.27117919921875,-0.37847900390625,-10.25,1.375,-18.875,2.95,5.65,7.44,moving,12
9.44,31064.220655141,24,3,3,3,3,0.1,9.26,1.81,-2.97,3.35,-5.37,147.0625,-201.375,-139.3125,0.8458251953125,0.2237548828125,-0.288330078125,-0.38916015625,-10.25,1.375,-18.875,3.07,5.91,7.19,moving,12
9.46,31064.252608144,24,3,3,3,3,0.44,9.77,1.16,-2.73,3.61,-5.77,145.625,-195.0,-129.25,0.83343505859375,0.23101806640625,-0.30499267578125,-0.398681640625,-10.25,1.375,-18.875,3.17,6.16,6.93,moving,12
9.47,31064.252608144,24,3,3,3,3,1.19,10.54,0.17,-2.07,4.14,-6.49,148.1875,-184.625,-115.5,0.8212890625,0.2384033203125,-0.3211669921875,-0.40679931640625,-12.75,-2.25,-18.0625,3.27,6.4,6.66,moving,12
9.48,31064.266228953,24,3,3,3,3,1.66,10.61,-0.32,-1.69,3.99,-6.73,147.125,-172.8125,-101.0,0.80963134765625,0.24554443359375,-0.3365478515625,-0.41339111328125,-12.75,-2.25,-18.0625,3.35,6.62,6.4,moving,12
9.49,31064.266228953,24,3,3,3,3,2.04,10.12,-0.5,-1.36,3.29,-6.65,138.3125,-148.625,-88.0,0.79901123046875,0.25250244140625,-0.35003662109375,-0.418701171875,-12.75,-2.25,-18.0625,3.41,6.83,6.15,moving,12
9.49,31064.289211578,24,3,3,3,3,2.65,9.59,-0.98,-0.8,2.59,-6.91,123.625,-128.875,-75.375,0.78948974609375,0.2586669921875,-0.36181640625,-0.4229736328125,-12.75,-2.25,-18.0625,3.45,7.0,5.92,moving,12
9.5,31064.289211578,24,3,3,3,3,4.12,9.68,-2.32,0.62,2.52,-8.03,111.875,-115.6875,-62.3125,0.78094482421875,0.2640380859375,-0.3724365234375,-0.42626953125,-12.75,-2.25,-18.0625,3.49,7.15,5.71,moving,12
9.51,31064.312377431,24,3,3,3,3,4.55,9.96,-2.39,1.02,2.67,-7.91,112.0,-94.3125,-44.9375,0.77374267578125,0.269775390625,-0.3818359375,-0.42755126953125,-15.5625,-6.5,-15.6875,3.53,7.29,5.51,moving,12
9.52,31064.312377431,24,3,3,3,3,4.62,10.17,-2.18,1.06,2.74,-7.5,124.6875,-63.1875,-26.8125,0.76763916015625,0.2767333984375,-0.39007568359375,-0.4266357421875,-15.5625,-6.5,-15.6875,3.55,7.43,5.32,moving,12
9.54,31064.32662853,24,3,3,3,3,4.45,10.46,-1.71,0.88,2.9,-6.83,134.375,-31.6875,-12.3125,0.76275634765625,0.28497314453125,-0.3968505859375,-0.42364501953125,-15.5625,-6.5,-15.6875,3.56,7.56,5.12,moving,12
9.55,31064.32662853,24,3,3,3,3,3.5,10.68,-0.76,-0.07,3.0,-5.72,124.5625,-5.6875,-1.5,0.75933837890625,0.2930908203125,-0.40179443359375,-0.4195556640625,-15.5625,-6.5,-15.6875,3.57,7.67,4.95,moving,12
9.56,31064.341106028,24,3,3,3,3,2.85,10.26,-0.69,-0.7,2.51,-5.53,91.8125,18.0,3.4375,0.75775146484375,0.29974365234375,-0.404052734375,-0.4156494140625,-15.5625,-6.5,-15.6875,3.56,7.74,4.84,moving,12
9.57,31064.341106028,24,3,3,3,3,2.41,9.77,-0.66,-1.11,1.98,-5.45,52.625,35.3125,3.1875,0.75860595703125,0.3052978515625,-0.40301513671875,-0.41094970703125,-16.25,-7.5625,-13.0,3.53,7.79,4.79,moving,12
9.57,31064.356330312,24,3,3,3,3,2.41,9.77,-0.66,-1.11,1.98,-5.45,52.625,35.3125,3.1875,0.75860595703125,0.3052978515625,-0.40301513671875,-0.41094970703125,-16.25,-7.5625,-13.0,3.53,7.79,4.79,moving,12
9.58,31064.356330312,24,3,3,3,3,2.33,9.24,-0.56,-1.16,1.43,-5.34,25.6875,43.9375,3.0625,0.759521484375,0.30853271484375,-0.401123046875,-0.40869140625,-16.25,-7.5625,-13.0,3.5,7.81,4.78,moving,12
9.58,31064.370787791,24,3,3,3,3,2.81,8.51,-0.26,-0.64,0.68,-5.05,18.25,54.5625,3.0625,0.76104736328125,0.31158447265625,-0.39825439453125,-0.4063720703125,-16.25,-7.5625,-13.0,3.46,7.82,4.79,moving,12
9.59,31064.370787791,24,3,3,3,3,3.13,8.66,-0.07,-0.27,0.81,-4.88,21.8125,67.0,5.25,0.762939453125,0.31524658203125,-0.39471435546875,-0.4034423828125,-16.25,-7.5625,-13.0,3.41,7.84,4.8,moving,12
9.61,31064.401699982,24,3,3,3,3,3.35,9.0,0.12,0.0,1.15,-4.69,24.0625,77.5,11.875,0.76531982421875,0.3192138671875,-0.3907470703125,-0.399658203125,-16.25,-7.5625,-13.0,3.36,7.85,4.81,moving,12
9.62,31064.401699982,24,3,3,3,3,3.38,9.33,0.33,0.07,1.46,-4.49,21.75,91.5625,17.6875,0.76953125,0.32440185546875,-0.38494873046875,-0.3929443359375,-15.875,-9.0,-12.5625,3.3,7.86,4.83,moving,12
9.63,31064.416227773,24,3,3,3,3,3.0,9.57,1.0,-0.24,1.71,-3.87,16.75,106.9375,21.1875,0.7733154296875,0.32855224609375,-0.37896728515625,-0.387939453125,-15.875,-9.0,-12.5625,3.24,7.86,4.87,moving,12
9.64,31064.416227773,24,3,3,3,3,2.86,9.75,1.12,-0.31,1.89,-3.8,8.0,118.3125,24.5,0.7777099609375,0.332275390625,-0.3719482421875,-0.382568359375,-15.875,-9.0,-12.5625,3.18,7.85,4.92,moving,12
9.65,31064.431232574,24,3,3,3,3,2.79,9.99,1.29,-0.31,2.15,-3.71,-7.0,127.3125,27.375,0.78289794921875,0.335205078125,-0.3638916015625,-0.377197265625,-15.875,-9.0,-12.5625,3.1,7.83,5.0,moving,12
9.65,31064.431232574,24,3,3,3,3,2.84,10.15,1.51,-0.18,2.35,-3.6,-24.125,139.3125,29.625,0.78887939453125,0.33721923828125,-0.35443115234375,-0.371826171875,-15.875,-9.0,-12.5625,3.02,7.8,5.11,moving,12
9.66,31064.462548004,24,3,3,3,3,2.85,9.94,1.6,-0.06,2.19,-3.64,-41.0625,154.5,31.3125,0.79681396484375,0.33935546875,-0.34246826171875,-0.36419677734375,-15.875,-7.875,-13.375,2.92,7.75,5.24,moving,12
9.67,31064.462548004,24,3,3,3,3,2.88,9.6,1.67,0.07,1.92,-3.73,-57.3125,169.6875,34.6875,0.80450439453125,0.33978271484375,-0.32989501953125,-0.35845947265625,-15.875,-7.875,-13.375,2.81,7.68,5.4,moving,12
9.68,31064.476901723,24,3,3,3,3,2.96,9.44,1.87,0.26,1.84,-3.71,-71.5,181.5,41.875,0.81298828125,0.3392333984375,-0.316162109375,-0.35211181640625,-15.875,-7.875,-13.375,2.69,7.59,5.58,moving,12
9.7,31064.476901723,24,3,3,3,3,2.09,8.9,4.04,-0.47,1.42,-1.74,-82.375,195.625,49.75,0.82220458984375,0.3380126953125,-0.30120849609375,-0.34503173828125,-15.875,-7.875,-13.375,2.56,7.48,5.78,moving,12
9.71,31064.490817373,24,3,3,3,3,1.34,8.55,5.25,-1.08,1.17,-0.73,-89.4375,209.3125,56.875,0.83184814453125,0.33636474609375,-0.28515625,-0.3370361328125,-15.875,-7.875,-13.375,2.42,7.37,5.99,moving,12
9.72,31064.490817373,24,3,3,3,3,0.68,8.43,5.93,-1.6,1.19,-0.26,-96.9375,210.8125,64.875,0.84161376953125,0.33392333984375,-0.2689208984375,-0.32843017578125,-14.5,-7.5625,-16.0625,2.28,7.24,6.2,moving,12
9.73,31064.521078888,24,3,3,3,3,0.27,8.44,6.36,-1.87,1.34,-0.05,-106.9375,205.625,71.75,0.85137939453125,0.33026123046875,-0.2528076171875,-0.31964111328125,-14.5,-7.5625,-16.0625,2.15,7.09,6.41,moving,12
9.74,31064.521078888,24,3,3,3,3,0.21,8.12,6.88,-1.8,1.18,0.26,-110.4375,201.375,77.75,0.8609619140625,0.325927734375,-0.23699951171875,-0.3104248046875,-14.5,-7.5625,-16.0625,2.01,6.94,6.62,moving,12
9.74,31064.536287669,24,3,3,3,3,0.46,7.93,7.17,-1.41,1.13,0.36,-101.8125,198.625,84.5,0.8699951171875,0.3218994140625,-0.22174072265625,-0.3004150390625,-14.5,-7.5625,-16.0625,1.88,6.79,6.8,moving,12
9.75,31064.536287669,24,3,3,3,3,0.64,7.68,8.09,-1.1,1.02,1.11,-88.6875,198.5625,92.0625,0.8785400390625,0.318603515625,-0.2069091796875,-0.28955078125,-14.5,-7.5625,-16.0625,1.75,6.66,6.97,moving,12
9.77,31064.550600861,24,3,3,3,3,0.65,7.44,8.87,-0.96,0.91,1.74,-82.8125,203.875,98.6875,0.88677978515625,0.31561279296875,-0.19195556640625,-0.2777099609375,-12.25,-6.5,-18.75,1.61,6.53,7.13,moving,12
9.78,31064.550600861,24,3,3,3,3,0.36,8.76,8.41,-1.1,2.37,1.12,-91.375,209.75,100.8125,0.89501953125,0.3118896484375,-0.17626953125,-0.265625,-12.25,-6.5,-18.75,1.46,6.39,7.28,moving,12
9.79,31064.581565664,24,3,3,3,3,-0.08,9.35,8.19,-1.4,3.12,0.73,-106.4375,205.0,106.4375,0.9033203125,0.30670166015625,-0.16070556640625,-0.2532958984375,-12.25,-6.5,-18.75,1.32,6.23,7.45,moving,12
9.8,31064.581565664,24,3,3,3,3,-0.67,8.92,7.81,-1.86,2.87,0.19,-114.1875,200.4375,116.9375,0.9114990234375,0.30047607421875,-0.1455078125,-0.240234375,-12.25,-6.5,-18.75,1.18,6.05,7.62,moving,12
9.81,31064.596460032,24,3,3,3,3,-1.26,6.18,9.32,-2.31,0.32,1.53,-128.5625,195.9375,124.875,0.919677734375,0.29278564453125,-0.1304931640625,-0.22674560546875,-12.25,-6.5,-18.75,1.05,5.86,7.79,moving,12
9.82,31064.596460032,24,3,3,3,3,-1.59,4.3,10.61,-2.52,-1.31,2.63,-159.4375,186.125,129.75,0.92816162109375,0.28216552734375,-0.11572265625,-0.21331787109375,-10.0625,-3.5625,-20.5625,0.92,5.62,7.98,moving,12
9.82,31064.610806142,24,3,3,3,3,-2.08,2.5,10.68,-2.89,-2.82,2.48,-191.125,173.0,130.4375,0.93670654296875,0.2685546875,-0.10137939453125,-0.20037841796875,-10.0625,-3.5625,-20.5625,0.8,5.33,8.19,moving,12
9.83,31064.610806142,24,3,3,3,3,-2.31,1.2,10.53,-3.01,-3.8,2.14,-205.5,149.5625,123.375,0.9447021484375,0.25323486328125,-0.08843994140625,-0.18853759765625,-10.0625,-3.5625,-20.5625,0.7,5.01,8.39,moving,12
9.85,31064.626182363,24,3,3,3,3,-2.37,0.28,12.94,-3.0,-4.43,4.36,-192.125,121.875,116.125,0.9515380859375,0.238525390625,-0.07781982421875,-0.17767333984375,-10.0625,-3.5625,-20.5625,0.62,4.72,8.57,moving,12
9.85,31064.626182363,24,3,3,3,3,-2.37,0.28,12.94,-3.0,-4.43,4.36,-192.125,121.875,116.125,0.9515380859375,0.238525390625,-0.07781982421875,-0.17767333984375,-10.0625,-3.5625,-20.5625,0.62,4.72,8.57,moving,12
9.86,31064.640528839,24,3,3,3,3,-2.47,0.1,13.51,-3.02,-4.37,4.8,-157.9375,103.25,110.1875,0.95709228515625,0.22625732421875,-0.069091796875,-0.16741943359375,-10.0625,-3.5625,-20.5625,0.55,4.47,8.7,moving,12
9.87,31064.640528839,24,3,3,3,3,-2.43,-0.18,13.83,-2.93,-4.46,5.02,-122.6875,87.125,101.9375,0.96148681640625,0.21673583984375,-0.06195068359375,-0.15740966796875,-6.875,-0.6875,-23.25,0.49,4.27,8.81,moving,12
9.88,31064.671891063,24,3,3,3,3,-2.29,-0.28,13.98,-2.75,-4.4,5.09,-98.0,68.125,92.25,0.96484375,0.20892333984375,-0.056640625,-0.14892578125,-6.875,-0.6875,-23.25,0.46,4.11,8.88,moving,12
9.89,31064.671891063,24,3,3,3,3,-1.46,0.48,12.66,-1.89,-3.5,3.71,-80.1875,53.4375,80.125,0.96759033203125,0.2025146484375,-0.05255126953125,-0.1416015625,-6.875,-0.6875,-23.25,0.43,3.98,8.94,moving,12
9.9,31064.686447174,24,3,3,3,3,-1.21,0.63,12.25,-1.62,-3.25,3.26,-60.875,44.75,69.3125,0.96966552734375,0.1976318359375,-0.04925537109375,-0.13525390625,-6.875,-0.6875,-23.25,0.41,3.88,8.99,moving,12
9.9,31064.686447174,24,3,3,3,3,-1.36,0.32,12.59,-1.75,-3.49,3.57,-43.125,39.125,63.8125,0.9713134765625,0.19415283203125,-0.0465087890625,-0.12933349609375,-6.875,-0.6875,-23.25,0.39,3.81,9.02,moving,12
9.91,31064.702625967,24,3,3,3,3,-1.6,-0.27,13.02,-1.98,-4.01,3.97,-43.625,30.125,57.25,0.97271728515625,0.1905517578125,-0.04449462890625,-0.12451171875,-5.75,2.5625,-22.5,0.38,3.74,9.05,moving,12
9.93,31064.702625967,24,3,3,3,3,-1.68,-1.53,12.86,-2.07,-5.17,3.76,-67.0,15.3125,43.0625,0.974365234375,0.18487548828125,-0.043212890625,-0.120849609375,-5.75,2.5625,-22.5,0.38,3.63,9.09,moving,12
9.94,31064.732815257,24,3,3,3,3,-1.54,-2.07,12.42,-1.94,-5.56,3.27,-90.625,-1.8125,24.375,0.97601318359375,0.17706298828125,-0.04278564453125,-0.119140625,-5.75,2.5625,-22.5,0.4,3.48,9.15,moving,12
9.95,31064.732815257,24,3,3,3,3,-1.36,-2.45,12.13,-1.8,-5.8,2.92,-87.9375,-16.3125,4.875,0.97735595703125,0.16937255859375,-0.0433349609375,-0.11932373046875,-5.75,2.5625,-22.5,0.43,3.34,9.2,moving,12
9.96,31064.748902456,24,3,3,3,3,-1.12,-2.62,12.22,-1.59,-5.87,2.98,-60.4375,-27.9375,-11.6875,0.97796630859375,0.1639404296875,-0.044921875,-0.1209716796875,-5.75,2.5625,-22.5,0.47,3.25,9.23,moving,12
9.97,31064.748902456,24,3,3,3,3,-0.91,-1.92,12.77,-1.43,-5.12,3.51,-28.5625,-36.625,-25.5625,0.97802734375,0.16119384765625,-0.04730224609375,-0.12359619140625,-3.5625,3.6875,-22.0625,0.51,3.2,9.25,moving,12
9.98,31064.762124909,24,3,3,3,3,-1.01,-1.3,12.74,-1.57,-4.5,3.48,-9.4375,-43.1875,-40.375,0.9775390625,0.16009521484375,-0.05029296875,-0.127685546875,-3.5625,3.6875,-22.0625,0.56,3.19,9.25,moving,12
9.99,31064.762124909,24,3,3,3,3,-1.14,-0.92,12.91,-1.76,-4.1,3.65,-9.1875,-51.5625,-55.1875,0.976806640625,0.158935546875,-0.0538330078125,-0.1331787109375,-3.5625,3.6875,-22.0625,0.61,3.18,9.25,moving,12
10.0,31064.808390534,24,3,3,3,3,-1.44,-0.85,13.06,-2.11,-4.01,3.8,-20.75,-60.8125,-67.6875,0.9759521484375,0.15673828125,-0.05780029296875,-0.139892578125,-3.5625,3.6875,-22.0625,0.67,3.15,9.25,moving,12
10.01,31064.808390534,24,3,3,3,3,-1.46,-1.06,12.83,-2.21,-4.17,3.57,-33.0,-71.625,-82.1875,0.97503662109375,0.1534423828125,-0.0623779296875,-0.14801025390625,-3.5625,3.6875,-22.0625,0.74,3.11,9.26,moving,12
10.02,31064.814754181,24,3,3,3,3,-1.44,-1.28,12.55,-2.27,-4.34,3.27,-39.1875,-85.125,-99.1875,0.97357177734375,0.1494140625,-0.06787109375,-0.15887451171875,-5.0625,4.0,-22.0625,0.83,3.06,9.27,moving,12
10.03,31064.814754181,24,3,3,3,3,-1.42,-1.5,12.27,-2.35,-4.52,2.98,-39.9375,-98.9375,-116.6875,0.9718017578125,0.145263671875,-0.07421875,-0.1702880859375,-5.0625,4.0,-22.0625,0.92,3.01,9.28,moving,12
10.04,31064.82141389,24,3,3,3,3,-1.02,-1.76,11.3,-2.06,-4.74,2.01,-37.375,-110.875,-133.375,0.969482421875,0.1412353515625,-0.081298828125,-0.1832275390625,-5.0625,4.0,-22.0625,1.03,2.97,9.28,moving,12
10.05,31064.82141389,24,3,3,3,3,-0.86,-1.84,10.85,-2.01,-4.79,1.57,-32.375,-119.75,-151.0625,0.96649169921875,0.1375732421875,-0.0889892578125,-0.19769287109375,-5.0625,4.0,-22.0625,1.15,2.95,9.27,moving,12
10.06,31064.852935293,24,3,3,3,3,-0.71,-1.79,10.44,-1.99,-4.74,1.17,-24.1875,-128.1875,-168.1875,0.96270751953125,0.13458251953125,-0.09735107421875,-0.21356201171875,-5.0625,4.0,-22.0625,1.27,2.94,9.26,moving,12
10.07,31064.852935293,24,3,3,3,3,-0.43,-1.7,10.01,-1.83,-4.67,0.77,-11.1875,-139.125,-185.25,0.9580078125,0.13250732421875,-0.1065673828125,-0.23077392578125,-5.375,5.5,-21.25,1.4,2.97,9.23,moving,12
10.08,31064.865879507,24,3,3,3,3,-0.48,-0.75,9.16,-2.01,-3.79,-0.03,14.25,-144.0625,-200.875,0.9522705078125,0.132568359375,-0.11651611328125,-0.2490234375,-5.375,5.5,-21.25,1.52,3.04,9.19,moving,12
10.09,31064.865879507,24,3,3,3,3,-0.51,0.07,8.85,-2.16,-3.11,-0.27,50.6875,-149.25,-214.375,0.94525146484375,0.1356201171875,-0.12744140625,-0.26800537109375,-5.375,5.5,-21.25,1.65,3.18,9.12,moving,12
10.1,31064.882958242,24,3,3,3,3,-0.9,1.14,8.41,-2.66,-2.25,-0.61,96.1875,-151.25,-226.3125,0.9368896484375,0.14239501953125,-0.139404296875,-0.28729248046875,-5.375,5.5,-21.25,1.75,3.4,9.02,moving,12
10.1,31064.882958242,24,3,3,3,3,-0.9,1.14,8.41,-2.66,-2.25,-0.61,96.1875,-151.25,-226.3125,0.9368896484375,0.14239501953125,-0.139404296875,-0.28729248046875,-5.375,5.5,-21.25,1.75,3.4,9.02,moving,12
10.11,31064.896173818,24,3,3,3,3,-1.06,2.2,8.45,-2.92,-1.49,-0.43,140.125,-157.0625,-230.125,0.9271240234375,0.152587890625,-0.15283203125,-0.30621337890625,-5.375,5.5,-21.25,1.86,3.69,8.89,moving,12
10.12,31064.896173818,24,3,3,3,3,-1.12,3.73,7.34,-3.07,-0.3,-1.37,173.0,-161.375,-231.375,0.9161376953125,0.16522216796875,-0.16729736328125,-0.32464599609375,-9.1875,4.0625,-19.75,1.95,4.03,8.72,moving,12
10.13,31064.926985993,24,3,3,3,3,-1.28,4.64,7.07,-3.32,0.23,-1.43,202.875,-163.75,-227.1875,0.90399169921875,0.17999267578125,-0.1827392578125,-0.342041015625,-9.1875,4.0625,-19.75,2.03,4.41,8.51,moving,12
10.14,31064.926985993,24,3,3,3,3,-1.63,5.7,7.18,-3.74,0.87,-1.08,227.9375,-172.1875,-219.625,0.89068603515625,0.1961669921875,-0.19952392578125,-0.3582763671875,-9.1875,4.0625,-19.75,2.1,4.82,8.27,moving,12
10.15,31064.941204254,24,3,3,3,3,-2.48,8.07,6.21,-4.66,2.83,-1.78,238.4375,-181.625,-210.5625,0.87646484375,0.2125244140625,-0.21734619140625,-0.3734130859375,-9.1875,4.0625,-19.75,2.18,5.24,7.99,moving,12
10.16,31064.941204254,24,3,3,3,3,-2.56,9.38,5.47,-4.82,3.74,-2.22,232.9375,-192.9375,-199.875,0.861572265625,0.2276611328125,-0.23583984375,-0.38763427734375,-9.1875,4.0625,-19.75,2.25,5.64,7.69,moving,12
10.17,31064.956467519,24,3,3,3,3,-2.54,10.38,4.59,-4.87,4.38,-2.8,219.0,-199.75,-186.125,0.846435546875,0.24102783203125,-0.25439453125,-0.40087890625,-12.0,0.5,-18.6875,2.32,6.0,7.39,moving,12
10.18,31064.956467519,24,3,3,3,3,-2.27,11.05,4.04,-4.67,4.71,-3.05,205.0625,-204.5,-170.6875,0.831298828125,0.252685546875,-0.27294921875,-0.4130859375,-12.0,0.5,-18.6875,2.4,6.33,7.09,moving,12
10.19,31064.971087189,24,3,3,3,3,-1.52,11.26,2.8,-4.0,4.64,-3.98,187.25,-210.125,-156.0,0.81622314453125,0.26226806640625,-0.29132080078125,-0.4244384765625,-12.0,0.5,-18.6875,2.48,6.62,6.79,moving,12
10.2,31064.971087189,24,3,3,3,3,-1.08,10.95,1.79,-3.64,4.08,-4.71,157.125,-211.9375,-142.9375,0.80169677734375,0.26910400390625,-0.308837890625,-0.435302734375,-12.0,0.5,-18.6875,2.55,6.86,6.51,moving,12
10.21,31065.002181956,24,3,3,3,3,-0.57,10.95,0.7,-3.2,3.89,-5.56,122.6875,-213.75,-135.9375,0.78765869140625,0.27313232421875,-0.3250732421875,-0.4464111328125,-12.0,0.5,-18.6875,2.63,7.06,6.27,moving,12
10.22,31065.002181956,24,3,3,3,3,-0.25,10.89,-0.1,-2.95,3.65,-6.14,105.875,-211.1875,-129.25,0.77392578125,0.2757568359375,-0.34051513671875,-0.45721435546875,-12.75,-4.1875,-15.5625,2.69,7.23,6.04,moving,12
10.23,31065.015961986,24,3,3,3,3,0.34,11.08,-1.67,-2.4,3.67,-7.47,110.875,-201.25,-117.375,0.76043701171875,0.27862548828125,-0.3555908203125,-0.466552734375,-12.75,-4.1875,-15.5625,2.75,7.4,5.8,moving,12
10.24,31065.015961986,24,3,3,3,3,0.76,11.58,-2.31,-2.04,4.0,-7.86,121.6875,-189.875,-104.6875,0.74713134765625,0.2821044921875,-0.3704833984375,-0.4742431640625,-12.75,-4.1875,-15.5625,2.8,7.58,5.55,moving,12
10.25,31065.031487987,24,3,3,3,3,1.17,12.0,-2.75,-1.67,4.25,-8.04,128.75,-173.375,-91.125,0.73443603515625,0.2862548828125,-0.384765625,-0.480224609375,-12.75,-4.1875,-15.5625,2.84,7.74,5.29,moving,12
10.26,31065.031487987,24,3,3,3,3,1.58,12.4,-3.2,-1.29,4.49,-8.23,134.625,-150.8125,-73.0625,0.72283935546875,0.29095458984375,-0.398193359375,-0.48406982421875,-12.75,-4.1875,-15.5625,2.88,7.9,5.03,moving,12
10.27,31065.064381216,24,3,3,3,3,2.4,13.08,-3.96,-0.5,5.03,-8.74,142.3125,-121.9375,-49.875,0.7127685546875,0.2965087890625,-0.4105224609375,-0.48529052734375,-16.0,-7.5,-12.5,2.91,8.05,4.77,moving,12
10.28,31065.064381216,24,3,3,3,3,2.71,13.36,-4.03,-0.24,5.18,-8.56,145.75,-88.5,-23.4375,0.7047119140625,0.30267333984375,-0.42156982421875,-0.4837646484375,-16.0,-7.5,-12.5,2.95,8.18,4.52,moving,12
10.29,31065.076132843,24,3,3,3,3,2.86,13.44,-3.63,-0.13,5.15,-7.93,135.0625,-55.5625,1.125,0.6990966796875,0.30859375,-0.4306640625,-0.48016357421875,-16.0,-7.5,-12.5,2.99,8.28,4.3,moving,12
10.3,31065.076132843,24,3,3,3,3,2.92,12.73,-3.3,-0.12,4.38,-7.44,101.6875,-24.0625,19.0625,0.69622802734375,0.31304931640625,-0.4368896484375,-0.475830078125,-16.0,-7.5,-12.5,3.04,8.35,4.14,moving,12
10.31,31065.0912305,24,3,3,3,3,3.12,12.63,-3.46,0.03,4.26,-7.53,50.5625,3.1875,29.375,0.6961669921875,0.315185546875,-0.43963623046875,-0.47198486328125,-16.0,-7.5,-12.5,3.08,8.37,4.06,moving,12
10.32,31065.0912305,24,3,3,3,3,3.2,12.58,-3.42,0.08,4.22,-7.49,6.4375,27.375,39.9375,0.69964599609375,0.316162109375,-0.43865966796875,-0.467041015625,-17.5,-9.5625,-10.5625,3.12,8.35,4.07,moving,12
10.33,31065.138106964,24,3,3,3,3,3.18,12.44,-3.05,0.02,4.12,-7.17,-14.5,53.9375,52.5,0.7042236328125,0.31549072265625,-0.43621826171875,-0.462890625,-17.5,-9.5625,-10.5625,3.16,8.31,4.12,moving,12
10.34,31065.138106964,24,3,3,3,3,2.81,12.01,-1.84,-0.38,3.75,-6.04,-29.1875,78.125,63.375,0.71044921875,0.31451416015625,-0.4320068359375,-0.45794677734375,-17.5,-9.5625,-10.5625,3.19,8.26,4.2,moving,12
10.35,31065.144238068,24,3,3,3,3,2.64,11.77,-1.62,-0.57,3.59,-5.96,-55.4375,98.125,72.875,0.718505859375,0.312255859375,-0.42572021484375,-0.45281982421875,-17.5,-9.5625,-10.5625,3.22,8.18,4.33,moving,12
10.36,31065.144238068,24,3,3,3,3,2.57,11.19,-1.3,-0.67,3.12,-5.83,-89.0,117.375,81.625,0.7283935546875,0.30828857421875,-0.41705322265625,-0.44775390625,-17.5,-9.5625,-10.5625,3.25,8.06,4.53,moving,12
10.37,31065.151816112,24,3,3,3,3,2.57,11.19,-1.3,-0.67,3.12,-5.83,-89.0,117.375,81.625,0.7283935546875,0.30828857421875,-0.41705322265625,-0.44775390625,-17.5,-9.5625,-10.5625,3.25,8.06,4.53,moving,12
10.37,31065.151816112,24,3,3,3,3,2.58,10.5,-0.76,-0.68,2.58,-5.52,-112.5625,135.9375,90.5625,0.73974609375,0.30322265625,-0.40643310546875,-0.44232177734375,-16.6875,-9.5625,-11.0,3.26,7.92,4.76,moving,12
10.38,31065.166183625,24,3,3,3,3,2.26,9.69,0.47,-1.01,1.93,-4.54,-120.8125,150.875,102.0625,0.7520751953125,0.297607421875,-0.39471435546875,-0.43597412109375,-16.6875,-9.5625,-11.0,3.27,7.76,5.01,moving,12
10.39,31065.166183625,24,3,3,3,3,2.03,9.26,1.22,-1.24,1.67,-4.04,-120.0,164.125,115.6875,0.7650146484375,0.2919921875,-0.38232421875,-0.42816162109375,-16.6875,-9.5625,-11.0,3.28,7.59,5.26,moving,12
10.4,31065.180352773,24,3,3,3,3,1.86,8.97,1.63,-1.41,1.56,-3.88,-120.4375,177.1875,126.8125,0.77850341796875,0.286376953125,-0.36920166015625,-0.4190673828125,-16.6875,-9.5625,-11.0,3.28,7.4,5.52,moving,12
10.41,31065.180352773,24,3,3,3,3,1.81,8.99,2.08,-1.45,1.78,-3.7,-125.375,187.125,133.75,0.79229736328125,0.2803955078125,-0.355224609375,-0.40924072265625,-16.6875,-9.5625,-11.0,3.26,7.2,5.79,moving,12
10.42,31065.212118561,24,3,3,3,3,1.36,8.45,3.15,-1.88,1.46,-2.9,-127.3125,196.9375,141.5625,0.8062744140625,0.27423095703125,-0.3404541015625,-0.3984375,-16.375,-6.6875,-13.1875,3.24,6.99,6.05,moving,12
10.43,31065.212118561,24,3,3,3,3,0.94,8.23,3.49,-2.24,1.46,-2.82,-126.8125,209.4375,151.1875,0.82049560546875,0.26806640625,-0.32489013671875,-0.386474609375,-16.375,-6.6875,-13.1875,3.19,6.77,6.32,moving,12
10.44,31065.225833039,24,3,3,3,3,0.59,8.12,4.13,-2.53,1.57,-2.45,-128.25,217.25,159.625,0.834716796875,0.26165771484375,-0.3087158203125,-0.37347412109375,-16.375,-6.6875,-13.1875,3.13,6.54,6.59,moving,12
10.45,31065.225833039,24,3,3,3,3,0.12,7.81,5.02,-2.94,1.5,-1.82,-129.5,221.9375,167.875,0.8487548828125,0.25494384765625,-0.2921142578125,-0.3594970703125,-16.375,-6.6875,-13.1875,3.06,6.3,6.85,moving,12
10.46,31065.241280386,24,3,3,3,3,-0.68,7.53,6.07,-3.66,1.47,-1.03,-132.6875,224.3125,174.9375,0.862548828125,0.2476806640625,-0.27520751953125,-0.34478759765625,-16.375,-6.6875,-13.1875,2.98,6.05,7.11,moving,12
10.47,31065.241280386,24,3,3,3,3,-0.95,7.2,6.83,-3.84,1.42,-0.53,-138.5,222.0625,180.4375,0.8759765625,0.2396240234375,-0.2581787109375,-0.32965087890625,-14.5625,-4.875,-16.1875,2.88,5.78,7.37,moving,12
10.48,31065.273120881,24,3,3,3,3,-1.24,6.55,7.26,-4.02,1.05,-0.36,-143.75,220.1875,187.0625,0.888916015625,0.230712890625,-0.2410888671875,-0.3138427734375,-14.5625,-4.875,-16.1875,2.78,5.5,7.62,moving,12
10.49,31065.273120881,24,3,3,3,3,-1.06,5.08,7.58,-3.73,-0.12,-0.27,-152.875,214.25,190.9375,0.90130615234375,0.220703125,-0.22406005859375,-0.2978515625,-14.5625,-4.875,-16.1875,2.67,5.21,7.86,moving,12
10.5,31065.286256053,24,3,3,3,3,-1.04,4.18,8.64,-3.59,-0.71,0.54,-161.0625,206.5,192.25,0.9130859375,0.20965576171875,-0.20733642578125,-0.28173828125,-14.5625,-4.875,-16.1875,2.55,4.9,8.1,moving,12
10.51,31065.286256053,24,3,3,3,3,-1.41,3.41,8.84,-3.84,-1.16,0.51,-164.6875,200.375,194.875,0.924072265625,0.19793701171875,-0.19085693359375,-0.26544189453125,-14.5625,-4.875,-16.1875,2.42,4.58,8.32,moving,12
10.52,31065.316735952,24,3,3,3,3,-1.79,2.77,8.76,-4.08,-1.48,0.23,-167.5,192.8125,194.875,0.934326171875,0.1856689453125,-0.17474365234375,-0.24908447265625,-11.375,-0.5625,-16.0625,2.29,4.25,8.53,moving,12
10.53,31065.316735952,24,3,3,3,3,-2.25,1.07,10.02,-4.42,-2.86,1.3,-165.1875,181.375,192.4375,0.94354248046875,0.1732177734375,-0.15948486328125,-0.23291015625,-11.375,-0.5625,-16.0625,2.16,3.93,8.71,moving,12
10.54,31065.332305288,24,3,3,3,3,-2.2,0.35,9.95,-4.23,-3.26,1.07,-156.375,167.3125,191.1875,0.9517822265625,0.16107177734375,-0.14544677734375,-0.21673583984375,-11.375,-0.5625,-16.0625,2.02,3.62,8.88,moving,12
10.55,31065.332305288,24,3,3,3,3,-1.78,-0.31,10.54,-3.68,-3.64,1.51,-146.0,153.3125,186.3125,0.958984375,0.1495361328125,-0.132568359375,-0.200927734375,-11.375,-0.5625,-16.0625,1.9,3.33,9.02,moving,12
10.56,31065.346595002,24,3,3,3,3,-1.58,-1.02,12.03,-3.36,-4.09,2.89,-131.125,142.875,179.8125,0.96527099609375,0.1390380859375,-0.12066650390625,-0.18548583984375,-11.375,-0.5625,-16.0625,1.77,3.07,9.14,moving,12
10.57,31065.346595002,24,3,3,3,3,-2.82,-2.33,12.93,-4.47,-5.17,3.69,-116.5,134.1875,175.1875,0.970703125,0.12957763671875,-0.10955810546875,-0.1702880859375,-8.875,3.0,-18.5,1.65,2.83,9.24,moving,12
10.58,31065.360920767,24,3,3,3,3,-3.04,-3.13,13.17,-4.57,-5.75,3.84,-108.125,121.0625,163.125,0.97528076171875,0.12066650390625,-0.09954833984375,-0.1561279296875,-8.875,3.0,-18.5,1.53,2.61,9.32,moving,12
10.59,31065.360920767,24,3,3,3,3,-2.84,-3.93,13.37,-4.27,-6.34,3.97,-100.875,103.1875,146.625,0.97906494140625,0.11224365234375,-0.0909423828125,-0.1434326171875,-8.875,3.0,-18.5,1.43,2.41,9.39,moving,12
10.6,31065.391579133,24,3,3,3,3,-2.38,-4.62,13.4,-3.72,-6.85,3.95,-90.4375,84.4375,130.1875,0.98211669921875,0.10455322265625,-0.0838623046875,-0.13214111328125,-8.875,3.0,-18.5,1.34,2.23,9.45,moving,12
10.61,31065.391579133,24,3,3,3,3,-1.97,-5.46,14.41,-3.24,-7.54,4.91,-77.4375,69.4375,113.875,0.98455810546875,0.09796142578125,-0.07806396484375,-0.122314453125,-8.875,3.0,-18.5,1.27,2.07,9.49,moving,12
10.62,31065.406469635,24,3,3,3,3,-2.48,-5.63,14.62,-3.68,-7.58,5.08,-66.0625,58.8125,97.125,0.98651123046875,0.09222412109375,-0.0731201171875,-0.11395263671875,-6.0,6.5625,-19.5625,1.2,1.94,9.53,moving,12
10.63,31065.406469635,24,3,3,3,3,-2.93,-5.8,14.81,-4.09,-7.63,5.24,-57.875,45.0625,76.375,0.98797607421875,0.08721923828125,-0.06927490234375,-0.10736083984375,-6.0,6.5625,-19.5625,1.15,1.83,9.56,moving,12
10.63,31065.421713573,24,3,3,3,3,-2.93,-5.8,14.81,-4.09,-7.63,5.24,-57.875,45.0625,76.375,0.98797607421875,0.08721923828125,-0.06927490234375,-0.10736083984375,-6.0,6.5625,-19.5625,1.15,1.83,9.56,moving,12
10.64,31065.421713573,24,3,3,3,3,-3.01,-6.37,14.88,-4.14,-8.12,5.3,-49.625,26.5625,52.8125,0.98895263671875,0.0828857421875,-0.06689453125,-0.1029052734375,-6.0,6.5625,-19.5625,1.13,1.74,9.58,moving,12
10.65,31065.436778107,24,3,3,3,3,-2.68,-6.77,14.58,-3.8,-8.44,4.98,-44.1875,6.9375,30.3125,0.98956298828125,0.0789794921875,-0.06610107421875,-0.10052490234375,-6.0,6.5625,-19.5625,1.12,1.66,9.59,moving,12
10.66,31065.436778107,24,3,3,3,3,-2.25,-7.01,14.2,-3.4,-8.6,4.6,-42.25,-11.1875,7.8125,0.9898681640625,0.07513427734375,-0.0667724609375,-0.10015869140625,-6.0,6.5625,-19.5625,1.14,1.59,9.6,moving,12
10.67,31065.467996165,24,3,3,3,3,-1.93,-6.86,13.88,-3.12,-8.4,4.27,-33.25,-25.25,-16.875,0.98980712890625,0.0721435546875,-0.0684814453125,-0.10198974609375,-4.875,6.25,-20.375,1.18,1.53,9.61,moving,12
10.68,31065.467996165,24,3,3,3,3,-1.74,-5.49,13.43,-2.98,-7.02,3.82,-11.125,-36.25,-43.0,0.9892578125,0.07110595703125,-0.07122802734375,-0.10595703125,-4.875,6.25,-20.375,1.23,1.52,9.6,moving,12
10.69,31065.484477122,24,3,3,3,3,-1.77,-4.68,13.6,-3.07,-6.25,4.0,16.0625,-48.0,-66.125,0.98822021484375,0.0723876953125,-0.0750732421875,-0.11187744140625,-4.875,6.25,-20.375,1.29,1.56,9.59,moving,12
10.7,31065.484477122,24,3,3,3,3,-1.79,-4.07,13.5,-3.15,-5.71,3.93,32.4375,-58.0,-86.75,0.98675537109375,0.0751953125,-0.079833984375,-0.1195068359375,-4.875,6.25,-20.375,1.36,1.64,9.57,moving,12
10.71,31065.496473745,24,3,3,3,3,-1.7,-3.57,13.49,-3.16,-5.29,3.94,31.8125,-69.6875,-107.3125,0.98486328125,0.077880859375,-0.08538818359375,-0.12896728515625,-4.875,6.25,-20.375,1.45,1.72,9.54,moving,12
10.72,31065.496473745,24,3,3,3,3,-1.56,-2.74,13.03,-3.11,-4.53,3.52,24.75,-83.3125,-128.0,0.98260498046875,0.0799560546875,-0.0919189453125,-0.14031982421875,-6.1875,8.5,-20.0,1.55,1.79,9.51,moving,12
10.73,31065.511769806,24,3,3,3,3,-1.57,-2.28,12.74,-3.23,-4.15,3.26,24.0625,-96.125,-146.125,0.979736328125,0.08197021484375,-0.099365234375,-0.1533203125,-6.1875,8.5,-20.0,1.66,1.87,9.48,moving,12
10.74,31065.511769806,24,3,3,3,3,-1.63,-1.68,12.4,-3.41,-3.66,2.97,34.6875,-107.5625,-161.3125,0.97625732421875,0.0848388671875,-0.1077880859375,-0.16754150390625,-6.1875,8.5,-20.0,1.78,1.97,9.43,moving,12
10.75,31065.541757559,24,3,3,3,3,-1.68,-0.99,12.12,-3.6,-3.11,2.74,52.25,-121.1875,-173.8125,0.9720458984375,0.08905029296875,-0.1175537109375,-0.1827392578125,-6.1875,8.5,-20.0,1.92,2.11,9.38,moving,12
10.76,31065.541757559,24,3,3,3,3,-1.77,0.56,11.14,-3.84,-1.72,1.84,69.5,-135.1875,-182.6875,0.96697998046875,0.0946044921875,-0.12860107421875,-0.198486328125,-6.1875,8.5,-20.0,2.07,2.29,9.3,moving,12
10.77,31065.556287059,24,3,3,3,3,-1.81,1.21,10.5,-4.04,-1.28,1.28,82.875,-146.875,-188.4375,0.961181640625,0.10107421875,-0.14080810546875,-0.21466064453125,-7.0,6.6875,-19.5625,2.22,2.49,9.21,moving,12
10.78,31065.556287059,24,3,3,3,3,-1.7,1.92,9.99,-4.09,-0.79,0.88,96.125,-157.875,-191.6875,0.95458984375,0.1083984375,-0.154052734375,-0.2308349609375,-7.0,6.6875,-19.5625,2.39,2.72,9.11,moving,12
10.79,31065.570928416,24,3,3,3,3,-1.56,2.58,9.43,-4.12,-0.39,0.45,110.9375,-167.0625,-192.375,0.9471435546875,0.11676025390625,-0.16827392578125,-0.24688720703125,-7.0,6.6875,-19.5625,2.56,2.98,8.98,moving,12
10.8,31065.570928416,24,3,3,3,3,-1.41,3.52,8.26,-4.13,0.26,-0.57,124.1875,-172.75,-191.8125,0.93896484375,0.12603759765625,-0.18316650390625,-0.2625732421875,-7.0,6.6875,-19.5625,2.72,3.26,8.83,moving,12
10.81,31065.603187409,24,3,3,3,3,-1.24,4.02,7.84,-4.13,0.46,-0.82,131.375,-182.25,-190.75,0.929931640625,0.13555908203125,-0.1988525390625,-0.27801513671875,-7.0,6.6875,-19.5625,2.88,3.55,8.67,moving,12
10.82,31065.603187409,24,3,3,3,3,-1.04,4.6,7.25,-4.1,0.75,-1.23,129.4375,-194.125,-190.75,0.92010498046875,0.14459228515625,-0.21533203125,-0.29345703125,-9.75,3.875,-16.875,3.05,3.84,8.48,moving,12
10.83,31065.617243154,24,3,3,3,3,-0.59,5.6,5.58,-3.81,1.46,-2.7,126.125,-203.625,-192.0625,0.90948486328125,0.1529541015625,-0.23236083984375,-0.3089599609375,-9.75,3.875,-16.875,3.21,4.13,8.28,moving,12
10.84,31065.617243154,24,3,3,3,3,-0.19,6.3,5.13,-3.57,1.87,-2.94,129.5625,-212.0625,-191.1875,0.89801025390625,0.16131591796875,-0.24993896484375,-0.32421875,-9.75,3.875,-16.875,3.37,4.43,8.07,moving,12
10.85,31065.647659251,24,3,3,3,3,0.13,7.12,4.89,-3.39,2.39,-2.93,139.5625,-219.4375,-187.5,0.8856201171875,0.16998291015625,-0.268310546875,-0.33880615234375,-9.75,3.875,-16.875,3.53,4.73,7.82,moving,12
10.86,31065.647659251,24,3,3,3,3,0.45,7.8,4.46,-3.21,2.75,-3.1,148.3125,-225.25,-179.0,0.87255859375,0.17889404296875,-0.2872314453125,-0.3524169921875,-9.75,3.875,-16.875,3.67,5.04,7.56,moving,12
10.87,31065.661522614,24,3,3,3,3,1.0,8.58,3.54,-2.81,3.24,-3.73,147.4375,-229.0,-168.875,0.8590087890625,0.18719482421875,-0.306396484375,-0.364990234375,-12.0,1.6875,-16.5,3.82,5.34,7.27,moving,12
10.88,31065.661522614,24,3,3,3,3,1.28,8.55,3.05,-2.66,2.92,-3.93,139.3125,-230.8125,-160.875,0.84515380859375,0.1944580078125,-0.3253173828125,-0.376953125,-12.0,1.6875,-16.5,3.95,5.62,6.98,moving,12
10.89,31065.692128815,24,3,3,3,3,1.52,8.55,1.99,-2.54,2.66,-4.7,127.875,-231.6875,-152.8125,0.83111572265625,0.20050048828125,-0.3438720703125,-0.388427734375,-12.0,1.6875,-16.5,4.07,5.88,6.69,moving,12
10.9,31065.692128815,24,3,3,3,3,1.52,8.55,1.99,-2.54,2.66,-4.7,127.875,-231.6875,-152.8125,0.83111572265625,0.20050048828125,-0.3438720703125,-0.388427734375,-12.0,1.6875,-16.5,4.07,5.88,6.69,moving,12
10.9,31065.698216299,24,3,3,3,3,1.89,8.92,0.77,-2.29,2.79,-5.63,119.8125,-231.625,-146.125,0.81683349609375,0.20562744140625,-0.36199951171875,-0.39935302734375,-12.0,1.6875,-16.5,4.18,6.12,6.4,moving,12
10.91,31065.698216299,24,3,3,3,3,2.49,9.84,-0.88,-1.78,3.48,-6.99,124.0,-226.0625,-138.1875,0.80242919921875,0.21087646484375,-0.3797607421875,-0.4091796875,-12.0,1.6875,-16.5,4.28,6.36,6.1,moving,12
10.92,31065.705922272,24,3,3,3,3,2.67,9.99,-1.44,-1.68,3.39,-7.23,137.125,-212.4375,-127.5,0.7880859375,0.217041015625,-0.39703369140625,-0.4173583984375,-15.375,-2.25,-15.0,4.36,6.6,5.79,moving,12
10.93,31065.705922272,24,3,3,3,3,2.77,10.09,-2.24,-1.64,3.25,-7.71,142.5,-198.5625,-117.5625,0.7740478515625,0.22357177734375,-0.4134521484375,-0.4241943359375,-15.375,-2.25,-15.0,4.41,6.83,5.47,moving,12
10.94,31065.720850088,24,3,3,3,3,2.92,10.37,-3.14,-1.53,3.33,-8.31,133.625,-187.25,-108.5,0.760498046875,0.22955322265625,-0.4288330078125,-0.43023681640625,-15.375,-2.25,-15.0,4.45,7.04,5.16,moving,12
10.95,31065.720850088,24,3,3,3,3,3.33,11.03,-4.48,-1.15,3.81,-9.37,120.1875,-173.3125,-96.875,0.747802734375,0.23455810546875,-0.4427490234375,-0.435546875,-15.375,-2.25,-15.0,4.49,7.22,4.88,moving,12
10.96,31065.768599681,24,3,3,3,3,3.47,11.28,-5.2,-1.03,3.9,-9.81,114.6875,-152.875,-81.9375,0.736328125,0.2393798828125,-0.455322265625,-0.4395751953125,-15.375,-2.25,-15.0,4.51,7.38,4.61,moving,12
10.97,31065.768599681,24,3,3,3,3,3.66,11.7,-5.81,-0.85,4.17,-10.18,116.625,-126.1875,-66.3125,0.72625732421875,0.24462890625,-0.4664306640625,-0.4417724609375,-18.25,-5.5625,-11.5,4.52,7.52,4.36,moving,12
10.98,31065.77498697,24,3,3,3,3,3.94,11.87,-5.69,-0.58,4.22,-9.82,115.125,-97.75,-52.0,0.71771240234375,0.25030517578125,-0.47589111328125,-0.44244384765625,-18.25,-5.5625,-11.5,4.52,7.65,4.13,moving,12
10.99,31065.77498697,24,3,3,3,3,4.07,11.62,-5.89,-0.45,3.86,-9.84,103.375,-66.5,-38.875,0.71112060546875,0.25579833984375,-0.48321533203125,-0.4420166015625,-18.25,-5.5625,-11.5,4.52,7.75,3.94,moving,12
11.0,31065.79735961,24,3,3,3,3,4.28,11.5,-6.05,-0.22,3.66,-9.85,81.0625,-36.0625,-25.6875,0.706787109375,0.26055908203125,-0.48797607421875,-0.44097900390625,-18.25,-5.5625,-11.5,4.51,7.83,3.8,moving,12
11.01,31065.79735961,24,3,3,3,3,4.58,11.49,-6.07,0.08,3.61,-9.79,55.4375,-7.5,-12.1875,0.7047119140625,0.26422119140625,-0.49029541015625,-0.43951416015625,-18.25,-5.5625,-11.5,4.49,7.87,3.72,moving,12
11.02,31065.825740428,24,3,3,3,3,4.7,11.28,-5.19,0.22,3.38,-8.88,35.125,24.8125,0.9375,0.70635986328125,0.26898193359375,-0.4892578125,-0.43505859375,-17.875,-7.375,-9.5625,4.48,7.9,3.69,moving,12
11.03,31065.825740428,24,3,3,3,3,4.42,11.16,-4.48,-0.03,3.25,-8.19,20.0625,57.4375,13.125,0.70880126953125,0.2718505859375,-0.48681640625,-0.43206787109375,-17.875,-7.375,-9.5625,4.46,7.9,3.7,moving,12
11.04,31065.840994538,24,3,3,3,3,4.18,11.08,-4.0,-0.25,3.2,-7.78,-1.8125,86.5,22.5625,0.71331787109375,0.27410888671875,-0.48199462890625,-0.42864990234375,-17.875,-7.375,-9.5625,4.43,7.88,3.77,moving,12
11.05,31065.840994538,24,3,3,3,3,4.12,11.1,-3.62,-0.27,3.26,-7.53,-30.1875,112.125,31.0,0.7198486328125,0.275146484375,-0.474609375,-0.42529296875,-17.875,-7.375,-9.5625,4.4,7.84,3.9,moving,12
11.06,31065.846956086,24,3,3,3,3,4.2,10.74,-2.6,-0.15,2.97,-6.68,-53.625,134.625,41.0,0.7281494140625,0.27508544921875,-0.46514892578125,-0.421630859375,-17.875,-7.375,-9.5625,4.36,7.77,4.07,moving,12
11.07,31065.846956086,24,3,3,3,3,4.3,10.52,-1.89,-0.01,2.83,-6.18,-69.125,158.3125,51.375,0.73797607421875,0.27447509765625,-0.45379638671875,-0.4173583984375,-17.875,-7.6875,-9.25,4.32,7.68,4.29,moving,12
11.08,31065.871156078,24,3,3,3,3,4.3,10.44,-1.17,0.04,2.86,-5.7,-84.5,182.4375,60.3125,0.74920654296875,0.27325439453125,-0.44036865234375,-0.412353515625,-17.875,-7.6875,-9.25,4.26,7.57,4.53,moving,12
11.09,31065.871156078,24,3,3,3,3,4.07,10.29,-0.38,-0.11,2.85,-5.2,-102.0625,204.5,71.25,0.7618408203125,0.271240234375,-0.425048828125,-0.4066162109375,-17.875,-7.6875,-9.25,4.18,7.44,4.82,moving,12
11.1,31065.887209178,24,3,3,3,3,3.07,9.81,0.97,-1.02,2.53,-4.15,-120.9375,224.9375,84.5,0.77581787109375,0.26800537109375,-0.40771484375,-0.40008544921875,-17.875,-7.6875,-9.25,4.1,7.27,5.13,moving,12
11.11,31065.887209178,24,3,3,3,3,2.56,9.79,1.91,-1.43,2.71,-3.56,-141.25,244.125,95.1875,0.790771484375,0.2635498046875,-0.388427734375,-0.39276123046875,-17.875,-7.6875,-9.25,3.99,7.08,5.48,moving,12
11.12,31065.917355948,24,3,3,3,3,1.88,9.85,3.0,-1.98,2.99,-2.84,-157.3125,259.0625,105.4375,0.80645751953125,0.25799560546875,-0.3675537109375,-0.38470458984375,-18.1875,-6.25,-11.0,3.86,6.85,5.85,moving,12
11.13,31065.917355948,24,3,3,3,3,1.04,9.89,3.84,-2.67,3.29,-2.38,-168.8125,272.0625,119.3125,0.82257080078125,0.25140380859375,-0.3453369140625,-0.37542724609375,-18.1875,-6.25,-11.0,3.71,6.59,6.22,moving,12
11.14,31065.931878083,24,3,3,3,3,-0.33,8.9,5.02,-3.89,2.59,-1.58,-182.125,281.25,133.0,0.83892822265625,0.24346923828125,-0.322021484375,-0.36505126953125,-18.1875,-6.25,-11.0,3.55,6.31,6.61,moving,12
11.15,31065.931878083,24,3,3,3,3,-0.67,7.66,5.55,-4.05,1.67,-1.43,-199.5625,285.5,145.25,0.85528564453125,0.23382568359375,-0.2977294921875,-0.353759765625,-18.1875,-6.25,-11.0,3.37,5.98,6.99,moving,12
11.15,31065.947854076,24,3,3,3,3,-0.67,7.66,5.55,-4.05,1.67,-1.43,-199.5625,285.5,145.25,0.85528564453125,0.23382568359375,-0.2977294921875,-0.353759765625,-18.1875,-6.25,-11.0,3.37,5.98,6.99,moving,12
11.16,31065.947854076,24,3,3,3,3,-0.97,6.67,5.7,-4.14,1.04,-1.67,-216.5,287.4375,156.5625,0.8714599609375,0.222412109375,-0.272705078125,-0.34161376953125,-18.1875,-6.25,-11.0,3.17,5.62,7.37,moving,12
11.17,31065.961974885,24,3,3,3,3,-1.71,5.31,7.16,-4.67,0.07,-0.58,-226.125,285.625,168.6875,0.8870849609375,0.209716796875,-0.24749755859375,-0.32843017578125,-16.0,-3.375,-15.25,2.95,5.24,7.74,moving,12
11.18,31065.961974885,24,3,3,3,3,-2.53,4.4,7.74,-5.26,-0.43,-0.32,-221.0,280.0625,183.0625,0.90185546875,0.19659423828125,-0.2227783203125,-0.313720703125,-16.0,-3.375,-15.25,2.73,4.84,8.07,moving,12
11.19,31065.977328482,24,3,3,3,3,-3.1,3.58,8.83,-5.6,-0.86,0.46,-211.25,269.625,194.125,0.91546630859375,0.18359375,-0.19903564453125,-0.2977294921875,-16.0,-3.375,-15.25,2.5,4.45,8.36,moving,12
11.2,31065.977328482,24,3,3,3,3,-3.38,2.43,10.45,-5.65,-1.64,1.82,-207.0,253.1875,195.5625,0.92767333984375,0.17022705078125,-0.176513671875,-0.281494140625,-16.0,-3.375,-15.25,2.27,4.07,8.62,moving,12
11.21,31066.007390005,24,3,3,3,3,-3.87,-0.01,12.17,-5.92,-3.69,3.31,-209.25,231.5625,193.9375,0.9385986328125,0.156005859375,-0.155517578125,-0.26544189453125,-16.0,-3.375,-15.25,2.05,3.68,8.85,moving,12
11.22,31066.007390005,24,3,3,3,3,-3.74,-1.56,12.83,-5.58,-4.85,3.78,-213.0,206.375,189.6875,0.9482421875,0.1407470703125,-0.13623046875,-0.2498779296875,-11.6875,1.6875,-17.5625,1.84,3.28,9.05,moving,12
11.23,31066.020861197,24,3,3,3,3,-3.42,-2.95,13.93,-5.08,-5.85,4.71,-205.0,178.5,181.4375,0.9564208984375,0.12554931640625,-0.11920166015625,-0.23504638671875,-11.6875,1.6875,-17.5625,1.65,2.9,9.21,moving,12
11.24,31066.020861197,24,3,3,3,3,-3.24,-4.05,15.01,-4.74,-6.61,5.67,-183.75,148.75,171.0,0.96319580078125,0.11151123046875,-0.10491943359375,-0.220947265625,-11.6875,1.6875,-17.5625,1.49,2.56,9.34,moving,12
11.25,31066.03589265,24,3,3,3,3,-3.3,-5.81,15.43,-4.66,-8.08,5.98,-156.125,121.3125,156.125,0.96856689453125,0.09930419921875,-0.09326171875,-0.20806884765625,-11.6875,1.6875,-17.5625,1.36,2.26,9.44,moving,12
11.26,31066.03589265,24,3,3,3,3,-3.09,-6.57,15.74,-4.35,-8.59,6.23,-127.5625,94.75,136.8125,0.9727783203125,0.08917236328125,-0.0841064453125,-0.1966552734375,-11.6875,1.6875,-17.5625,1.26,2.02,9.51,moving,12
11.27,31066.066875682,24,3,3,3,3,-2.7,-7.24,15.93,-3.88,-9.07,6.37,-102.3125,67.875,114.125,0.97589111328125,0.08087158203125,-0.07745361328125,-0.18719482421875,-7.6875,4.875,-18.6875,1.18,1.83,9.56,moving,12
11.28,31066.066875682,24,3,3,3,3,-2.23,-7.78,15.74,-3.37,-9.46,6.14,-84.1875,42.9375,88.25,0.9781494140625,0.07379150390625,-0.07305908203125,-0.179931640625,-7.6875,4.875,-18.6875,1.14,1.67,9.59,moving,12
11.29,31066.082720409,24,3,3,3,3,-1.38,-8.25,15.18,-2.5,-9.8,5.56,-66.625,23.0,61.4375,0.97967529296875,0.068115234375,-0.0704345703125,-0.17498779296875,-7.6875,4.875,-18.6875,1.11,1.55,9.61,moving,12
11.3,31066.082720409,24,3,3,3,3,-1.38,-8.13,15.12,-2.49,-9.61,5.49,-41.875,8.4375,36.625,0.98052978515625,0.064453125,-0.06927490234375,-0.17205810546875,-7.6875,4.875,-18.6875,1.11,1.47,9.63,moving,12
11.31,31066.097297476,24,3,3,3,3,-1.71,-7.59,15.01,-2.83,-9.04,5.38,-8.9375,-1.4375,13.5,0.98077392578125,0.0635986328125,-0.0693359375,-0.17095947265625,-7.6875,4.875,-18.6875,1.12,1.45,9.63,moving,12
11.32,31066.097297476,24,3,3,3,3,-2.0,-5.93,14.83,-3.14,-7.43,5.21,23.625,-12.5,-9.1875,0.98040771484375,0.0654296875,-0.0706787109375,-0.171630859375,-6.1875,8.5,-18.375,1.13,1.49,9.62,moving,12
11.33,31066.112743806,24,3,3,3,3,-1.92,-5.09,14.51,-3.09,-6.67,4.9,45.9375,-25.125,-30.5625,0.97955322265625,0.06915283203125,-0.0733642578125,-0.17413330078125,-6.1875,8.5,-18.375,1.17,1.57,9.6,moving,12
11.34,31066.112743806,24,3,3,3,3,-1.78,-4.49,14.1,-3.0,-6.17,4.52,56.0,-36.5,-49.0,0.97821044921875,0.07366943359375,-0.0770263671875,-0.17816162109375,-6.1875,8.5,-18.375,1.21,1.68,9.58,moving,12
11.35,31066.159288321,24,3,3,3,3,-1.7,-3.97,13.77,-2.98,-5.77,4.22,59.5,-45.8125,-65.375,0.9764404296875,0.0784912109375,-0.08135986328125,-0.18365478515625,-6.1875,8.5,-18.375,1.27,1.79,9.55,moving,12
11.36,31066.159288321,24,3,3,3,3,-1.78,-2.9,13.07,-3.12,-4.82,3.55,61.9375,-54.125,-79.375,0.974365234375,0.08343505859375,-0.08642578125,-0.1903076171875,-6.1875,8.5,-18.375,1.34,1.91,9.52,moving,12
11.37,31066.16564619,24,3,3,3,3,-1.88,-2.4,12.76,-3.29,-4.45,3.28,64.9375,-61.375,-92.0625,0.97186279296875,0.08856201171875,-0.09197998046875,-0.1978759765625,-5.875,8.5,-19.875,1.4,2.04,9.48,moving,12
11.38,31066.16564619,24,3,3,3,3,-2.03,-1.97,12.5,-3.51,-4.15,3.05,68.3125,-67.6875,-104.3125,0.96893310546875,0.093994140625,-0.0980224609375,-0.2066650390625,-5.875,8.5,-19.875,1.48,2.18,9.44,moving,12
11.39,31066.171633007,24,3,3,3,3,-2.1,-1.46,12.25,-3.66,-3.79,2.85,69.5,-76.1875,-115.5,0.965576171875,0.09942626953125,-0.104736328125,-0.2164306640625,-5.875,8.5,-19.875,1.56,2.32,9.39,moving,12
11.4,31066.171633007,24,3,3,3,3,-1.98,-0.37,11.87,-3.63,-2.84,2.52,68.6875,-87.0,-126.625,0.961669921875,0.10467529296875,-0.1121826171875,-0.22723388671875,-5.875,8.5,-19.875,1.64,2.47,9.34,moving,12
11.4,31066.186426748,24,3,3,3,3,-1.98,-0.37,11.87,-3.63,-2.84,2.52,68.6875,-87.0,-126.625,0.961669921875,0.10467529296875,-0.1121826171875,-0.22723388671875,-5.875,8.5,-19.875,1.64,2.47,9.34,moving,12
11.41,31066.186426748,24,3,3,3,3,-1.76,0.31,11.73,-3.51,-2.31,2.45,70.5625,-98.875,-136.4375,0.957275390625,0.10986328125,-0.12060546875,-0.23883056640625,-5.875,8.5,-19.875,1.74,2.62,9.28,moving,12
11.42,31066.201066112,24,3,3,3,3,-1.64,0.98,11.52,-3.5,-1.8,2.31,74.5625,-112.0,-144.25,0.95220947265625,0.115234375,-0.13006591796875,-0.25115966796875,-8.0,6.0,-18.6875,1.86,2.79,9.21,moving,12
11.43,31066.201066112,24,3,3,3,3,-1.57,1.52,11.13,-3.56,-1.44,2.0,77.4375,-123.5625,-151.625,0.94659423828125,0.12060546875,-0.140380859375,-0.26409912109375,-8.0,6.0,-18.6875,1.98,2.96,9.13,moving,12
11.44,31066.232338003,24,3,3,3,3,-1.27,2.46,10.13,-3.38,-0.67,1.09,77.8125,-136.125,-158.75,0.94024658203125,0.125732421875,-0.15167236328125,-0.277587890625,-8.0,6.0,-18.6875,2.11,3.14,9.04,moving,12
11.45,31066.232338003,24,3,3,3,3,-1.06,2.9,9.62,-3.31,-0.42,0.67,77.75,-149.5,-164.5,0.93328857421875,0.130615234375,-0.1639404296875,-0.2916259765625,-8.0,6.0,-18.6875,2.25,3.32,8.94,moving,12
11.46,31066.246293326,24,3,3,3,3,-0.92,3.32,9.09,-3.32,-0.2,0.25,81.8125,-159.1875,-167.625,0.92559814453125,0.135498046875,-0.17694091796875,-0.30584716796875,-8.0,6.0,-18.6875,2.39,3.52,8.83,moving,12
11.47,31066.246293326,24,3,3,3,3,-0.75,3.69,8.53,-3.29,-0.03,-0.17,90.125,-167.625,-169.5,0.917236328125,0.140869140625,-0.1907958984375,-0.320068359375,-10.1875,4.875,-17.5,2.54,3.73,8.7,moving,12
11.48,31066.27716621,24,3,3,3,3,-0.19,4.48,7.19,-2.89,0.52,-1.36,100.9375,-174.8125,-170.75,0.9080810546875,0.14678955078125,-0.20538330078125,-0.3341064453125,-10.1875,4.875,-17.5,2.69,3.96,8.55,moving,12
11.49,31066.27716621,24,3,3,3,3,0.07,4.87,6.83,-2.76,0.67,-1.56,111.125,-180.625,-170.25,0.89825439453125,0.1533203125,-0.22064208984375,-0.34783935546875,-10.1875,4.875,-17.5,2.84,4.2,8.39,moving,12
11.5,31066.291382518,24,3,3,3,3,0.33,5.29,6.45,-2.64,0.83,-1.75,118.125,-184.375,-168.4375,0.88775634765625,0.16009521484375,-0.23626708984375,-0.36114501953125,-10.1875,4.875,-17.5,2.97,4.46,8.2,moving,12
11.51,31066.291382518,24,3,3,3,3,0.68,6.3,4.88,-2.42,1.58,-3.12,120.5,-189.5,-165.9375,0.876708984375,0.16680908203125,-0.2523193359375,-0.3740234375,-10.1875,4.875,-17.5,3.11,4.71,8.01,moving,12
11.52,31066.306570832,24,3,3,3,3,0.96,6.97,4.2,-2.28,1.99,-3.59,131.75,-196.9375,-159.625,0.864990234375,0.17388916015625,-0.2691650390625,-0.3861083984375,-12.375,2.0,-17.1875,3.25,4.98,7.79,moving,12
11.53,31066.306570832,24,3,3,3,3,1.22,7.62,3.84,-2.14,2.37,-3.71,131.75,-196.9375,-159.625,0.852783203125,0.18084716796875,-0.28594970703125,-0.39794921875,-12.375,2.0,-17.1875,3.37,5.25,7.56,moving,12
11.54,31066.337321727,24,3,3,3,3,1.44,8.1,3.58,-2.04,2.56,-3.72,143.125,-198.5,-155.0625,0.83990478515625,0.1883544921875,-0.30303955078125,-0.40887451171875,-12.375,2.0,-17.1875,3.48,5.53,7.3,moving,12
11.55,31066.337321727,24,3,3,3,3,1.51,8.75,2.07,-2.06,2.94,-4.96,147.6875,-201.4375,-149.875,0.82659912109375,0.19586181640625,-0.32049560546875,-0.419189453125,-12.375,2.0,-17.1875,3.58,5.81,7.03,moving,12
11.56,31066.367247346,24,3,3,3,3,1.6,9.05,1.2,-2.07,2.98,-5.55,144.5625,-204.5625,-144.0,0.8128662109375,0.2027587890625,-0.337890625,-0.42889404296875,-12.375,2.0,-17.1875,3.68,6.07,6.76,moving,12
11.57,31066.367247346,24,3,3,3,3,1.77,9.41,0.38,-1.99,3.08,-6.07,151.6875,-200.375,-130.6875,0.7991943359375,0.20977783203125,-0.35528564453125,-0.43707275390625,-14.5625,-2.0,-14.875,3.77,6.33,6.46,moving,12
11.58,31066.373801627,24,3,3,3,3,2.0,9.82,-0.32,-1.83,3.24,-6.48,151.6875,-200.375,-130.6875,0.78497314453125,0.2166748046875,-0.37249755859375,-0.445068359375,-14.5625,-2.0,-14.875,3.84,6.58,6.16,moving,12
11.59,31066.373801627,24,3,3,3,3,2.6,10.38,-1.46,-1.3,3.55,-7.3,159.375,-195.8125,-119.875,0.770751953125,0.22381591796875,-0.38970947265625,-0.45166015625,-14.5625,-2.0,-14.875,3.9,6.83,5.84,moving,12
11.6,31066.399042675,24,3,3,3,3,2.86,10.69,-1.62,-1.1,3.64,-7.16,149.9375,-179.125,-95.1875,0.7578125,0.22998046875,-0.40570068359375,-0.45635986328125,-14.5625,-2.0,-14.875,3.97,7.04,5.54,moving,12
11.61,31066.399042675,24,3,3,3,3,3.02,10.45,-1.87,-0.99,3.21,-7.12,136.3125,-163.4375,-86.875,0.74566650390625,0.23553466796875,-0.4200439453125,-0.46044921875,-14.5625,-2.0,-14.875,4.01,7.23,5.25,moving,12
11.62,31066.411279003,24,3,3,3,3,3.41,10.25,-2.78,-0.63,2.85,-7.77,126.625,-149.625,-77.3125,0.734375,0.24053955078125,-0.43316650390625,-0.4638671875,-16.0,-5.1875,-11.875,4.05,7.4,4.99,moving,12
11.63,31066.411279003,24,3,3,3,3,4.41,10.82,-3.92,0.33,3.26,-8.66,127.5,-130.5,-63.125,0.72412109375,0.24578857421875,-0.4453125,-0.46575927734375,-16.0,-5.1875,-11.875,4.07,7.55,4.73,moving,12
11.64,31066.427015412,24,3,3,3,3,4.61,11.0,-4.05,0.51,3.3,-8.53,131.5625,-105.75,-49.25,0.715087890625,0.251708984375,-0.45623779296875,-0.46600341796875,-16.0,-5.1875,-11.875,4.09,7.7,4.48,moving,12
11.65,31066.427015412,24,3,3,3,3,4.75,11.23,-4.3,0.64,3.41,-8.55,126.375,-80.625,-39.625,0.7073974609375,0.25787353515625,-0.4654541015625,-0.46514892578125,-16.0,-5.1875,-11.875,4.1,7.82,4.25,moving,12
11.66,31066.457520621,24,3,3,3,3,4.87,12.49,-5.22,0.76,4.56,-9.28,110.125,-55.25,-29.0625,0.70147705078125,0.263671875,-0.47271728515625,-0.46368408203125,-16.0,-5.1875,-11.875,4.1,7.92,4.06,moving,12
11.67,31066.457520621,24,3,3,3,3,4.73,12.94,-5.25,0.63,4.94,-9.16,88.6875,-27.6875,-16.125,0.69757080078125,0.26861572265625,-0.47760009765625,-0.461669921875,-17.75,-8.0625,-9.875,4.1,7.99,3.91,moving,12
11.68,31066.470729727,24,3,3,3,3,4.53,13.01,-5.1,0.44,4.97,-8.93,64.875,1.5,-4.875,0.69586181640625,0.27288818359375,-0.48004150390625,-0.459228515625,-17.75,-8.0625,-9.875,4.09,8.04,3.82,moving,12
11.69,31066.470729727,24,3,3,3,3,4.41,12.96,-5.2,0.32,4.89,-9.0,37.4375,29.1875,5.0,0.69635009765625,0.276123046875,-0.4798583984375,-0.45660400390625,-17.75,-8.0625,-9.875,4.08,8.06,3.79,moving,12
11.7,31066.488291047,24,3,3,3,3,4.55,12.64,-4.92,0.49,4.58,-8.74,7.5625,56.875,14.5,0.6990966796875,0.2783203125,-0.47711181640625,-0.45404052734375,-17.75,-8.0625,-9.875,4.06,8.06,3.82,moving,12
11.71,31066.488291047,24,3,3,3,3,4.47,12.32,-4.45,0.43,4.29,-8.36,-19.875,85.9375,25.5625,0.7041015625,0.27947998046875,-0.47174072265625,-0.45123291015625,-17.75,-8.0625,-9.875,4.04,8.03,3.91,moving,12
11.72,31066.517717602,24,3,3,3,3,4.23,12.22,-4.06,0.21,4.24,-8.11,-44.75,111.375,39.1875,0.71185302734375,0.28009033203125,-0.4637451171875,-0.44696044921875,-16.6875,-9.1875,-7.1875,4.01,7.97,4.04,moving,12
11.73,31066.517717602,24,3,3,3,3,4.23,12.22,-4.06,0.21,4.24,-8.11,-44.75,111.375,39.1875,0.71185302734375,0.28009033203125,-0.4637451171875,-0.44696044921875,-16.6875,-9.1875,-7.1875,4.01,7.97,4.04,moving,12
11.73,31066.525938671,24,3,3,3,3,4.0,12.15,-3.52,0.0,4.26,-7.76,-68.625,135.75,52.75,0.720947265625,0.279052734375,-0.45391845703125,-0.443115234375,-16.6875,-9.1875,-7.1875,3.99,7.89,4.23,moving,12
11.74,31066.525938671,24,3,3,3,3,3.64,11.61,-2.36,-0.31,3.83,-6.83,-90.875,159.6875,64.0,0.7318115234375,0.2769775390625,-0.44189453125,-0.438720703125,-16.6875,-9.1875,-7.1875,3.95,7.77,4.47,moving,12
11.75,31066.564594392,24,3,3,3,3,3.51,11.22,-1.67,-0.4,3.58,-6.42,-110.25,180.3125,76.125,0.744140625,0.27392578125,-0.427978515625,-0.43365478515625,-16.6875,-9.1875,-7.1875,3.91,7.63,4.74,moving,12
11.76,31066.564594392,24,3,3,3,3,3.27,10.87,-1.03,-0.58,3.4,-6.08,-127.5,198.4375,89.25,0.75775146484375,0.269775390625,-0.41241455078125,-0.427734375,-16.6875,-9.1875,-7.1875,3.86,7.46,5.04,moving,12
11.77,31066.57085078,24,3,3,3,3,2.9,10.52,-0.56,-0.89,3.25,-5.92,-140.25,213.4375,101.3125,0.772216796875,0.26483154296875,-0.3953857421875,-0.42095947265625,-17.0625,-8.0625,-8.6875,3.8,7.27,5.36,moving,12
11.78,31066.57085078,24,3,3,3,3,2.09,9.92,0.59,-1.62,2.86,-5.1,-149.8125,226.125,112.125,0.78729248046875,0.2591552734375,-0.377197265625,-0.4132080078125,-17.0625,-8.0625,-8.6875,3.72,7.05,5.69,moving,12
11.79,31066.577275259,24,3,3,3,3,1.59,9.83,1.18,-2.03,3.01,-4.86,-157.8125,237.875,119.875,0.80267333984375,0.2529296875,-0.35784912109375,-0.40460205078125,-17.0625,-8.0625,-8.6875,3.62,6.82,6.04,moving,12
11.8,31066.577275259,24,3,3,3,3,1.17,9.57,1.55,-2.33,3.01,-4.82,-164.5,245.625,128.875,0.818115234375,0.24603271484375,-0.337646484375,-0.3951416015625,-17.0625,-8.0625,-8.6875,3.51,6.56,6.38,moving,12
11.81,31066.607341503,24,3,3,3,3,0.29,8.46,2.56,-3.08,2.18,-4.16,-175.3125,252.6875,138.8125,0.833740234375,0.2381591796875,-0.31646728515625,-0.384765625,-17.0625,-8.0625,-8.6875,3.37,6.28,6.72,moving,12
11.82,31066.607341503,24,3,3,3,3,0.06,7.99,2.97,-3.16,2.02,-4.1,-191.75,257.5625,146.6875,0.84930419921875,0.228759765625,-0.2943115234375,-0.37384033203125,-16.6875,-6.25,-12.875,3.22,5.96,7.08,moving,12
11.83,31066.621316723,24,3,3,3,3,-0.2,7.51,3.27,-3.25,1.88,-4.15,-203.4375,262.0625,153.875,0.8646240234375,0.21826171875,-0.271240234375,-0.36224365234375,-16.6875,-6.25,-12.875,3.04,5.62,7.42,moving,12
11.84,31066.621316723,24,3,3,3,3,-0.49,7.2,3.46,-3.34,1.92,-4.29,-204.25,267.375,162.375,0.87945556640625,0.20745849609375,-0.2476806640625,-0.34954833984375,-16.6875,-6.25,-12.875,2.85,5.27,7.75,moving,12
11.85,31066.636336254,24,3,3,3,3,-1.38,6.97,4.59,-4.01,2.05,-3.46,-195.0625,273.9375,172.0625,0.89361572265625,0.19708251953125,-0.22381591796875,-0.33544921875,-16.6875,-6.25,-12.875,2.62,4.92,8.06,moving,12
11.86,31066.636336254,24,3,3,3,3,-2.06,6.6,6.14,-4.44,2.02,-2.19,-187.0625,279.0,183.375,0.9071044921875,0.18707275390625,-0.19970703125,-0.31982421875,-16.6875,-6.25,-12.875,2.37,4.58,8.33,moving,12
11.87,31066.669964306,24,3,3,3,3,-3.04,6.1,7.39,-5.16,1.88,-1.2,-197.875,276.5625,194.0,0.91998291015625,0.17578125,-0.17547607421875,-0.30322265625,-13.0625,-2.25,-15.1875,2.12,4.21,8.59,moving,12
11.88,31066.669964306,24,3,3,3,3,-3.92,5.85,7.92,-5.78,2.04,-0.91,-222.375,263.0,199.375,0.93212890625,0.16180419921875,-0.1514892578125,-0.286376953125,-13.0625,-2.25,-15.1875,1.86,3.8,8.84,moving,12
11.89,31066.682066234,24,3,3,3,3,-5.02,4.28,9.32,-6.62,0.91,0.26,-238.625,246.125,204.25,0.9432373046875,0.1458740234375,-0.12841796875,-0.269287109375,-13.0625,-2.25,-15.1875,1.6,3.37,9.06,moving,12
11.9,31066.682066234,24,3,3,3,3,-5.36,2.87,8.96,-6.72,-0.05,-0.29,-246.9375,226.0,207.5625,0.95318603515625,0.1285400390625,-0.106689453125,-0.251953125,-13.0625,-2.25,-15.1875,1.35,2.93,9.25,moving,12
11.91,31066.698280142,24,3,3,3,3,-5.15,1.48,8.41,-6.27,-0.99,-1.0,-249.25,203.125,204.75,0.96185302734375,0.11041259765625,-0.08660888671875,-0.23486328125,-13.0625,-2.25,-15.1875,1.12,2.48,9.42,moving,12
11.92,31066.698280142,24,3,3,3,3,-4.58,-0.16,8.84,-5.48,-2.21,-0.7,-240.875,183.25,200.8125,0.96917724609375,0.09246826171875,-0.06829833984375,-0.21795654296875,-9.5,2.375,-17.1875,0.9,2.04,9.54,moving,12
11.93,31066.72664558,24,3,3,3,3,-4.38,-3.01,10.21,-5.07,-4.65,0.56,-231.25,164.875,194.9375,0.97528076171875,0.074951171875,-0.05157470703125,-0.201416015625,-9.5,2.375,-17.1875,0.68,1.63,9.64,moving,12
11.94,31066.72664558,24,3,3,3,3,-4.65,-4.14,10.78,-5.15,-5.39,1.06,-221.4375,145.0,182.9375,0.980224609375,0.05792236328125,-0.03656005859375,-0.185791015625,-9.5,2.375,-17.1875,0.49,1.24,9.71,moving,12
11.95,31066.740712515,24,3,3,3,3,-4.97,-5.2,11.55,-5.28,-6.09,1.79,-204.9375,124.8125,168.75,0.9840087890625,0.04193115234375,-0.0234375,-0.17132568359375,-9.5,2.375,-17.1875,0.31,0.88,9.76,moving,12
11.96,31066.740712515,24,3,3,3,3,-5.31,-6.18,12.76,-5.47,-6.75,2.97,-181.6875,103.25,153.8125,0.9869384765625,0.02764892578125,-0.012451171875,-0.1580810546875,-9.5,2.375,-17.1875,0.15,0.57,9.78,moving,12
11.97,31066.756830761,24,3,3,3,3,-5.7,-7.59,13.58,-5.73,-7.9,3.78,-154.4375,80.25,136.375,0.9891357421875,0.015380859375,-0.0037841796875,-0.14630126953125,-5.875,7.0625,-17.1875,0.02,0.3,9.8,moving,12
11.98,31066.756830761,24,3,3,3,3,-5.4,-8.12,13.74,-5.33,-8.23,3.93,-119.625,58.1875,117.625,0.99066162109375,0.00579833984375,0.0025634765625,-0.1361083984375,-5.875,7.0625,-17.1875,-0.06,0.1,9.8,moving,12
11.99,31066.771093171,24,3,3,3,3,-5.01,-8.71,13.98,-4.87,-8.67,4.18,-82.5625,42.75,99.5625,0.9918212890625,-0.000732421875,0.0072021484375,-0.12744140625,-5.875,7.0625,-17.1875,-0.13,-0.03,9.8,moving,12
11.99,31066.771093171,24,3,3,3,3,-5.01,-8.71,13.98,-4.87,-8.67,4.18,-82.5625,42.75,99.5625,0.9918212890625,-0.000732421875,0.0072021484375,-0.12744140625,-5.875,7.0625,-17.1875,-0.13,-0.03,9.8,moving,12
12.0,31066.786648591,24,3,3,3,3,-4.59,-9.48,14.0,-4.4,-9.36,4.2,-52.125,28.25,78.75,0.99261474609375,-0.0048828125,0.01019287109375,-0.12060546875,-5.875,7.0625,-17.1875,-0.18,-0.11,9.8,moving,12
12.01,31066.786648591,24,3,3,3,3,-4.47,-9.74,14.04,-4.26,-9.56,4.24,-32.0625,12.6875,56.375,0.9931640625,-0.0074462890625,0.01165771484375,-0.11566162109375,-5.875,7.0625,-17.1875,-0.21,-0.17,9.8,moving,12
12.02,31066.816855053,24,3,3,3,3,-4.42,-9.95,14.09,-4.21,-9.75,4.29,-18.8125,-2.8125,33.5,0.993408203125,-0.009033203125,0.01165771484375,-0.1138916015625,-4.0625,10.0,-17.5625,-0.2,-0.2,9.8,moving,12
12.03,31066.816855053,24,3,3,3,3,-4.27,-10.12,13.88,-4.1,-9.91,4.08,-6.5625,-18.4375,8.9375,0.99346923828125,-0.009765625,0.0101318359375,-0.11309814453125,-4.0625,10.0,-17.5625,-0.17,-0.21,9.8,moving,12
12.04,31066.83244213,24,3,3,3,3,-3.56,-9.91,13.62,-3.44,-9.71,3.81,8.9375,-32.0625,-15.25,0.99334716796875,-0.00933837890625,0.00726318359375,-0.1143798828125,-4.0625,10.0,-17.5625,-0.12,-0.19,9.8,moving,12
12.05,31066.83244213,24,3,3,3,3,-3.25,-9.52,13.57,-3.2,-9.37,3.76,29.375,-40.625,-38.8125,0.9930419921875,-0.0072021484375,0.00341796875,-0.11773681640625,-4.0625,10.0,-17.5625,-0.04,-0.14,9.8,moving,12
12.06,31066.846546825,24,3,3,3,3,-3.06,-8.9,13.49,-3.09,-8.84,3.68,49.875,-46.375,-61.0625,0.992431640625,-0.00341796875,-0.00115966796875,-0.12298583984375,-4.0625,10.0,-17.5625,0.03,-0.06,9.8,moving,12
12.07,31066.846546825,24,3,3,3,3,-2.98,-8.22,13.44,-3.1,-8.27,3.64,64.75,-52.375,-82.375,0.9910888671875,0.0015869140625,-0.00640869140625,-0.1329345703125,-4.0625,10.375,-17.5,0.11,0.04,9.8,moving,12
12.08,31066.892274161,24,3,3,3,3,-3.0,-6.81,13.52,-3.22,-6.98,3.72,71.5,-58.625,-102.0625,0.98980712890625,0.00714111328125,-0.01226806640625,-0.1417236328125,-4.0625,10.375,-17.5,0.21,0.17,9.8,moving,12
12.09,31066.892274161,24,3,3,3,3,-3.02,-6.14,13.39,-3.35,-6.44,3.59,72.8125,-66.8125,-120.0625,0.98809814453125,0.0126953125,-0.018798828125,-0.15203857421875,-4.0625,10.375,-17.5,0.32,0.3,9.79,moving,12
12.1,31066.906524405,24,3,3,3,3,-2.97,-5.54,13.36,-3.42,-5.98,3.57,74.8125,-75.1875,-136.5,0.9859619140625,0.018310546875,-0.026123046875,-0.16375732421875,-4.0625,10.375,-17.5,0.44,0.43,9.78,moving,12
12.11,31066.906524405,24,3,3,3,3,-2.87,-4.98,13.19,-3.45,-5.57,3.42,78.9375,-82.875,-152.0625,0.9833984375,0.02423095703125,-0.0340576171875,-0.1767578125,-4.0625,10.375,-17.5,0.57,0.58,9.77,moving,12
12.12,31066.912557812,24,3,3,3,3,-2.82,-3.98,12.7,-3.53,-4.73,2.94,85.5,-90.3125,-165.5625,0.980224609375,0.03057861328125,-0.042724609375,-0.19085693359375,-4.375,10.6875,-17.1875,0.7,0.74,9.75,moving,12
12.13,31066.912557812,24,3,3,3,3,-2.89,-3.46,12.49,-3.74,-4.39,2.76,93.5625,-100.5625,-176.6875,0.9764404296875,0.0374755859375,-0.0523681640625,-0.205810546875,-4.375,10.6875,-17.1875,0.85,0.92,9.72,moving,12
12.14,31066.936536165,24,3,3,3,3,-2.95,-2.83,12.26,-3.96,-3.97,2.57,103.4375,-112.4375,-186.75,0.9720458984375,0.0450439453125,-0.06317138671875,-0.2215576171875,-4.375,10.6875,-17.1875,1.0,1.13,9.68,moving,12
12.15,31066.936536165,24,3,3,3,3,-3.18,-1.49,11.61,-4.36,-2.85,1.97,114.625,-124.1875,-196.25,0.96685791015625,0.05340576171875,-0.0750732421875,-0.238037109375,-4.375,10.6875,-17.1875,1.17,1.36,9.64,moving,12
12.16,31066.951909456,24,3,3,3,3,-3.34,-0.76,11.18,-4.69,-2.38,1.61,126.75,-137.875,-202.6875,0.9609375,0.06243896484375,-0.08831787109375,-0.25482177734375,-4.375,10.6875,-17.1875,1.35,1.61,9.57,moving,12
12.17,31066.951909456,24,3,3,3,3,-3.45,-0.03,10.72,-4.99,-1.93,1.22,139.6875,-152.0,-207.625,0.95404052734375,0.07232666015625,-0.1029052734375,-0.27191162109375,-6.1875,8.5,-18.0,1.54,1.9,9.49,moving,12
12.18,31066.967135001,24,3,3,3,3,-3.51,0.68,10.27,-5.25,-1.52,0.87,153.375,-165.4375,-211.6875,0.9462890625,0.08294677734375,-0.118896484375,-0.28912353515625,-6.1875,8.5,-18.0,1.73,2.21,9.39,moving,12
12.19,31066.967135001,24,3,3,3,3,-3.46,2.22,8.84,-5.4,-0.32,-0.42,166.9375,-180.4375,-214.5,0.9373779296875,0.09429931640625,-0.1363525390625,-0.3062744140625,-6.1875,8.5,-18.0,1.94,2.55,9.26,moving,12
12.2,31066.997696687,24,3,3,3,3,-3.22,2.9,8.28,-5.37,0.0,-0.82,181.8125,-196.75,-215.1875,0.92742919921875,0.1063232421875,-0.1553955078125,-0.32318115234375,-6.1875,8.5,-18.0,2.15,2.91,9.11,moving,12
12.21,31066.997696687,24,3,3,3,3,-2.94,3.61,7.66,-5.31,0.3,-1.25,196.3125,-211.1875,-212.875,0.91632080078125,0.1190185546875,-0.1759033203125,-0.33953857421875,-6.1875,8.5,-18.0,2.36,3.31,8.92,moving,12
12.22,31067.011713207,24,3,3,3,3,-2.61,4.29,6.86,-5.19,0.57,-1.82,208.4375,-224.375,-209.5,0.904052734375,0.13214111328125,-0.1976318359375,-0.355224609375,-9.0625,6.0,-16.25,2.58,3.71,8.69,moving,12
12.23,31067.011713207,24,3,3,3,3,-1.7,5.84,5.39,-4.49,1.7,-3.04,219.8125,-236.1875,-205.4375,0.890625,0.14556884765625,-0.22052001953125,-0.3701171875,-9.0625,6.0,-16.25,2.79,4.14,8.43,moving,12
12.24,31067.026185172,24,3,3,3,3,-1.24,6.7,4.69,-4.24,2.12,-3.43,232.4375,-245.5625,-197.8125,0.87603759765625,0.15936279296875,-0.244384765625,-0.38397216796875,-9.0625,6.0,-16.25,2.99,4.57,8.13,moving,12
12.25,31067.026185172,24,3,3,3,3,-0.83,7.42,3.99,-4.02,2.41,-3.8,243.5,-250.9375,-186.75,0.860595703125,0.17340087890625,-0.26885986328125,-0.39630126953125,-9.0625,6.0,-16.25,3.19,5.01,7.79,moving,12
12.26,31067.041540478,24,3,3,3,3,-0.83,7.42,3.99,-4.02,2.41,-3.8,243.5,-250.9375,-186.75,0.860595703125,0.17340087890625,-0.26885986328125,-0.39630126953125,-9.0625,6.0,-16.25,3.19,5.01,7.79,moving,12
12.26,31067.041540478,24,3,3,3,3,-0.39,8.03,3.41,-3.76,2.58,-4.0,249.9375,-254.75,-174.375,0.84429931640625,0.187255859375,-0.29376220703125,-0.4071044921875,-9.0625,6.0,-16.25,3.36,5.44,7.42,moving,12
12.27,31067.089121939,24,3,3,3,3,0.16,9.05,2.12,-3.36,3.2,-4.9,249.1875,-256.5625,-161.625,0.82745361328125,0.20050048828125,-0.31866455078125,-0.4166259765625,-11.875,1.6875,-14.375,3.53,5.85,7.02,moving,12
12.28,31067.089121939,24,3,3,3,3,0.5,9.65,1.01,-3.17,3.41,-5.59,242.9375,-255.5625,-149.125,0.810302734375,0.21270751953125,-0.34307861328125,-0.42486572265625,-11.875,1.6875,-14.375,3.67,6.23,6.61,moving,12
12.29,31067.097736401,24,3,3,3,3,1.02,10.28,0.07,-2.78,3.69,-6.1,235.8125,-252.0625,-134.8125,0.79296875,0.22393798828125,-0.36688232421875,-0.43182373046875,-11.875,1.6875,-14.375,3.8,6.58,6.18,moving,12
12.3,31067.097736401,24,3,3,3,3,1.85,11.09,-1.12,-2.06,4.18,-6.87,225.875,-245.375,-116.5625,0.77593994140625,0.23394775390625,-0.38983154296875,-0.437255859375,-11.875,1.6875,-14.375,3.92,6.9,5.75,moving,12
12.31,31067.103744457,24,3,3,3,3,1.96,11.45,-2.01,-2.06,4.28,-7.34,208.0,-235.5625,-99.6875,0.7596435546875,0.2423095703125,-0.41143798828125,-0.44158935546875,-11.875,1.6875,-14.375,4.03,7.17,5.33,moving,12
12.32,31067.103744457,24,3,3,3,3,2.11,11.89,-2.87,-2.0,4.49,-7.81,184.625,-222.375,-86.25,0.744140625,0.24896240234375,-0.4312744140625,-0.4451904296875,-14.875,-3.75,-12.1875,4.12,7.39,4.94,moving,12
12.33,31067.115934317,24,3,3,3,3,2.31,12.25,-3.57,-1.88,4.66,-8.15,162.8125,-204.8125,-72.9375,0.72991943359375,0.2542724609375,-0.44915771484375,-0.44818115234375,-14.875,-3.75,-12.1875,4.19,7.58,4.58,moving,12
12.34,31067.115934317,24,3,3,3,3,3.39,12.91,-4.9,-0.86,5.17,-9.16,142.0,-184.1875,-57.25,0.7171630859375,0.25830078125,-0.46502685546875,-0.45025634765625,-14.875,-3.75,-12.1875,4.26,7.73,4.25,moving,12
12.35,31067.147717846,24,3,3,3,3,3.73,13.11,-5.3,-0.58,5.26,-9.28,120.25,-159.625,-40.875,0.70623779296875,0.26116943359375,-0.478759765625,-0.45147705078125,-14.875,-3.75,-12.1875,4.31,7.85,3.97,moving,12
12.36,31067.147717846,24,3,3,3,3,3.96,13.02,-5.79,-0.4,5.08,-9.54,93.625,-132.9375,-24.75,0.697509765625,0.2626953125,-0.489990234375,-0.45208740234375,-14.875,-3.75,-12.1875,4.37,7.93,3.74,moving,12
12.37,31067.162188997,24,3,3,3,3,4.25,12.78,-6.2,-0.17,4.8,-9.78,58.625,-106.0,-11.1875,0.6917724609375,0.2633056640625,-0.49810791015625,-0.45166015625,-15.6875,-7.0,-9.0625,4.42,7.98,3.58,moving,12
12.38,31067.162188997,24,3,3,3,3,4.75,11.81,-6.47,0.28,3.81,-9.96,22.125,-74.9375,-0.375,0.68798828125,0.26171875,-0.50347900390625,-0.452392578125,-15.6875,-7.0,-9.0625,4.47,7.99,3.49,moving,12
12.39,31067.175436596,24,3,3,3,3,4.91,11.37,-6.83,0.4,3.37,-10.29,-0.6875,-43.6875,7.8125,0.6864013671875,0.2596435546875,-0.5062255859375,-0.4530029296875,-15.6875,-7.0,-9.0625,4.5,7.99,3.45,moving,12
12.4,31067.175436596,24,3,3,3,3,5.06,11.27,-7.06,0.51,3.3,-10.51,-9.625,-16.0,18.1875,0.68658447265625,0.2576904296875,-0.50726318359375,-0.45269775390625,-15.6875,-7.0,-9.0625,4.54,7.97,3.45,moving,12
12.41,31067.206036531,24,3,3,3,3,5.11,11.4,-6.97,0.53,3.46,-10.46,-14.1875,12.25,28.5625,0.68853759765625,0.25604248046875,-0.506591796875,-0.45135498046875,-15.6875,-7.0,-9.0625,4.57,7.94,3.48,moving,12
12.42,31067.206036531,24,3,3,3,3,4.99,11.22,-6.18,0.39,3.32,-9.73,-23.375,39.1875,36.1875,0.69378662109375,0.2564697265625,-0.50323486328125,-0.44683837890625,-15.6875,-9.1875,-8.0,4.6,7.89,3.54,moving,12
12.43,31067.221005281,24,3,3,3,3,4.83,10.95,-5.69,0.21,3.11,-9.34,-40.6875,63.3125,42.8125,0.69903564453125,0.25457763671875,-0.49884033203125,-0.444580078125,-15.6875,-9.1875,-8.0,4.61,7.84,3.65,moving,12
12.44,31067.221005281,24,3,3,3,3,4.76,10.54,-5.21,0.13,2.78,-9.01,-61.375,85.875,49.625,0.70599365234375,0.2520751953125,-0.4923095703125,-0.44232177734375,-15.6875,-9.1875,-8.0,4.63,7.76,3.8,moving,12
12.45,31067.2367906,24,3,3,3,3,4.86,10.18,-4.81,0.23,2.52,-8.8,-79.875,105.9375,56.125,0.71435546875,0.24884033203125,-0.48394775390625,-0.43988037109375,-15.6875,-9.1875,-8.0,4.63,7.66,3.99,moving,12
12.46,31067.2367906,24,3,3,3,3,5.0,10.02,-3.79,0.38,2.47,-8.01,-91.25,125.0625,64.0,0.72393798828125,0.24530029296875,-0.47406005859375,-0.43701171875,-15.6875,-9.1875,-8.0,4.62,7.54,4.21,moving,12
12.47,31067.265944409,24,3,3,3,3,4.73,10.08,-3.05,0.11,2.67,-7.51,-95.1875,145.5,73.25,0.73468017578125,0.2418212890625,-0.46282958984375,-0.43310546875,-17.5,-8.0625,-7.5625,4.61,7.41,4.45,moving,12
12.48,31067.265944409,24,3,3,3,3,4.29,10.19,-2.25,-0.29,2.92,-6.97,-99.4375,165.6875,82.1875,0.74639892578125,0.23846435546875,-0.45013427734375,-0.42828369140625,-17.5,-8.0625,-7.5625,4.58,7.27,4.71,moving,12
12.49,31067.282174633,24,3,3,3,3,3.41,9.93,-0.67,-1.12,2.83,-5.67,-110.625,184.75,89.625,0.75909423828125,0.234619140625,-0.43585205078125,-0.4228515625,-17.5,-8.0625,-7.5625,4.54,7.1,5.0,moving,12
12.5,31067.282174633,24,3,3,3,3,3.24,9.73,-0.19,-1.23,2.82,-5.51,-128.25,198.8125,96.8125,0.7725830078125,0.22979736328125,-0.419921875,-0.4171142578125,-17.5,-8.0625,-7.5625,4.48,6.91,5.31,moving,12
12.51,31067.297113028,24,3,3,3,3,3.12,9.58,0.38,-1.28,2.88,-5.26,-144.3125,210.0625,107.125,0.78680419921875,0.22381591796875,-0.402587890625,-0.41082763671875,-17.5,-8.0625,-7.5625,4.4,6.69,5.64,moving,12
12.52,31067.297113028,24,3,3,3,3,3.12,9.58,0.38,-1.28,2.88,-5.26,-144.3125,210.0625,107.125,0.78680419921875,0.22381591796875,-0.402587890625,-0.41082763671875,-17.5,-8.0625,-7.5625,4.4,6.69,5.64,moving,12
12.53,31067.326212394,24,3,3,3,3,2.81,9.27,1.3,-1.5,2.82,-4.68,-154.125,221.625,119.25,0.801513671875,0.21697998046875,-0.3841552734375,-0.40362548828125,-15.5625,-6.5625,-10.5625,4.32,6.45,5.98,moving,12
12.53,31067.326212394,24,3,3,3,3,1.79,8.54,3.3,-2.42,2.35,-3.03,-160.9375,232.0625,130.375,0.81658935546875,0.20953369140625,-0.36468505859375,-0.39532470703125,-15.5625,-6.5625,-10.5625,4.21,6.18,6.33,moving,12
12.54,31067.332478832,24,3,3,3,3,1.16,8.29,4.01,-2.92,2.4,-2.66,-171.5625,238.1875,139.875,0.83172607421875,0.2010498046875,-0.34429931640625,-0.38629150390625,-15.5625,-6.5625,-10.5625,4.09,5.88,6.68,moving,12
12.55,31067.332478832,24,3,3,3,3,0.72,7.99,4.41,-3.23,2.42,-2.62,-188.1875,235.8125,148.875,0.84674072265625,0.19091796875,-0.32342529296875,-0.3768310546875,-15.5625,-6.5625,-10.5625,3.95,5.56,7.04,moving,12
12.56,31067.356192984,24,3,3,3,3,0.56,7.58,4.9,-3.25,2.38,-2.48,-204.375,231.1875,158.1875,0.86138916015625,0.178955078125,-0.30218505859375,-0.36688232421875,-15.5625,-6.5625,-10.5625,3.81,5.19,7.38,moving,12
12.57,31067.356192984,24,3,3,3,3,0.46,5.69,5.11,-3.19,0.88,-2.61,-215.625,228.4375,166.625,0.87567138671875,0.1656494140625,-0.28070068359375,-0.3563232421875,-14.0625,-3.0,-13.5625,3.66,4.8,7.72,stop,12
12.58,31067.370492545,24,3,3,3,3,0.56,4.94,5.55,-2.93,0.54,-2.48,-217.6875,226.4375,172.0,0.88922119140625,0.15185546875,-0.25909423828125,-0.3450927734375,-14.0625,-3.0,-13.5625,3.49,4.4,8.03,stop,12
12.59,31067.370492545,24,3,3,3,3,0.42,4.41,6.21,-2.87,0.41,-2.1,-206.9375,225.5,179.375,0.9019775390625,0.1385498046875,-0.23773193359375,-0.33270263671875,-14.0625,-3.0,-13.5625,3.3,4.0,8.32,stop,12
12.6,31067.385083487,24,3,3,3,3,-0.1,4.19,6.41,-3.19,0.57,-2.15,-192.0,221.625,186.8125,0.91387939453125,0.12603759765625,-0.2169189453125,-0.31915283203125,-14.0625,-3.0,-13.5625,3.09,3.61,8.57,stop,12
12.61,31067.385083487,24,3,3,3,3,-1.0,3.13,8.48,-3.88,-0.11,-0.3,-179.5625,216.75,190.75,0.92486572265625,0.11419677734375,-0.19677734375,-0.3048095703125,-14.0625,-3.0,-13.5625,2.88,3.24,8.79,stop,12
12.62,31067.416244173,24,3,3,3,3,-1.56,2.42,9.92,-4.23,-0.45,0.93,-178.4375,208.125,194.25,0.9349365234375,0.10205078125,-0.17718505859375,-0.28997802734375,-11.875,0.5625,-14.75,2.66,2.87,8.98,stop,12
12.63,31067.416244173,24,3,3,3,3,-2.26,1.75,10.7,-4.72,-0.74,1.54,-188.0,190.75,193.3125,0.94403076171875,0.088623046875,-0.1585693359375,-0.27532958984375,-11.875,0.5625,-14.75,2.45,2.49,9.15,stop,12
12.64,31067.430179516,24,3,3,3,3,-3.37,-1.17,11.59,-5.63,-3.28,2.29,-193.4375,169.625,189.875,0.9520263671875,0.07415771484375,-0.1414794921875,-0.26092529296875,-11.875,0.5625,-14.75,2.26,2.1,9.3,stop,12
12.65,31067.430179516,24,3,3,3,3,-3.45,-2.92,11.7,-5.54,-4.65,2.28,-188.375,141.4375,181.375,0.95880126953125,0.0595703125,-0.12664794921875,-0.2471923828125,-11.875,0.5625,-14.75,2.09,1.73,9.42,stop,12
12.66,31067.445791536,24,3,3,3,3,-2.9,-4.58,11.92,-4.86,-5.98,2.41,-167.75,110.375,163.5625,0.96417236328125,0.046142578125,-0.11468505859375,-0.2347412109375,-11.875,0.5625,-14.75,1.95,1.4,9.5,stop,12
12.67,31067.445791536,24,3,3,3,2,-1.98,-6.22,11.74,-3.83,-7.35,2.18,-132.5625,83.0,143.125,0.96826171875,0.03533935546875,-0.1055908203125,-0.22369384765625,-9.375,4.875,-16.6875,1.84,1.13,9.56,stop,12
12.68,31067.479053214,24,3,3,3,2,0.06,-7.69,12.49,-1.7,-8.64,2.89,-90.0625,60.8125,123.3125,0.971435546875,0.02783203125,-0.09912109375,-0.2138671875,-9.375,4.875,-16.6875,1.77,0.94,9.59,stop,12
12.69,31067.479053214,24,3,3,3,2,0.05,-7.68,13.34,-1.64,-8.52,3.72,-42.375,50.375,100.375,0.9737548828125,0.02435302734375,-0.09429931640625,-0.20562744140625,-9.375,4.875,-16.6875,1.7,0.84,9.62,stop,12
12.7,31067.493010408,24,3,3,3,2,-0.44,-7.38,13.52,-2.09,-8.21,3.89,1.0625,40.8125,77.3125,0.9754638671875,0.02459716796875,-0.091064453125,-0.198974609375,-9.375,4.875,-16.6875,1.64,0.82,9.63,stop,12
12.71,31067.493010408,24,3,3,3,2,-0.56,-6.62,13.8,-2.18,-7.49,4.16,34.6875,25.75,55.625,0.9765625,0.027587890625,-0.089599609375,-0.19390869140625,-9.375,4.875,-16.6875,1.61,0.86,9.63,stop,12
12.72,31067.507656445,24,3,3,3,2,0.03,-4.33,13.51,-1.55,-5.29,3.89,62.5,16.0,36.9375,0.97711181640625,0.03289794921875,-0.08941650390625,-0.190185546875,-7.1875,8.1875,-16.25,1.59,0.96,9.62,stop,12
12.73,31067.507656445,24,3,3,3,2,0.18,-3.31,13.3,-1.38,-4.41,3.68,84.1875,11.1875,21.9375,0.977294921875,0.04010009765625,-0.0899658203125,-0.1876220703125,-7.1875,8.1875,-16.25,1.57,1.1,9.61,stop,12
12.74,31067.537373242,24,3,3,3,2,0.2,-2.47,13.09,-1.36,-3.73,3.49,94.125,9.3125,9.0,0.9771728515625,0.0482177734375,-0.09075927734375,-0.18609619140625,-7.1875,8.1875,-16.25,1.56,1.25,9.59,stop,12
12.75,31067.537373242,24,3,3,3,2,0.07,-1.71,12.7,-1.47,-3.11,3.12,89.0625,5.4375,-0.125,0.976806640625,0.055908203125,-0.09173583984375,-0.18536376953125,-7.1875,8.1875,-16.25,1.55,1.4,9.58,stop,12
12.76,31067.55165677,24,3,3,3,2,-0.01,-0.22,11.59,-1.57,-1.75,2.02,75.4375,0.875,-6.0625,0.976318359375,0.06243896484375,-0.0928955078125,-0.18524169921875,-7.1875,8.1875,-16.25,1.55,1.53,9.56,stop,12
12.77,31067.55165677,24,3,3,3,2,-0.01,-0.22,11.59,-1.57,-1.75,2.02,75.4375,0.875,-6.0625,0.976318359375,0.06243896484375,-0.0928955078125,-0.18524169921875,-7.1875,8.1875,-16.25,1.55,1.53,9.56,stop,12
12.78,31067.566531119,24,3,3,3,2,0.15,0.59,10.92,-1.4,-1.04,1.38,62.25,-3.0,-9.0,0.97576904296875,0.0677490234375,-0.0941162109375,-0.185546875,-7.1875,9.25,-17.0625,1.55,1.63,9.54,stop,12
12.78,31067.566531119,24,3,3,3,2,0.42,1.39,10.51,-1.13,-0.33,0.99,52.875,-3.6875,-9.625,0.97528076171875,0.072265625,-0.09521484375,-0.1859130859375,-7.1875,9.25,-17.0625,1.55,1.72,9.52,stop,12
12.79,31067.580844392,24,3,3,3,2,0.59,2.02,10.2,-0.95,0.21,0.69,44.375,0.1875,-9.25,0.97479248046875,0.07611083984375,-0.09588623046875,-0.18634033203125,-7.1875,9.25,-17.0625,1.55,1.8,9.51,stop,12
12.8,31067.580844392,24,3,3,3,2,0.81,2.67,9.88,-0.72,0.81,0.37,32.9375,3.0625,-8.875,0.9744873046875,0.07904052734375,-0.09613037109375,-0.18682861328125,-7.1875,9.25,-17.0625,1.54,1.86,9.5,stop,12
12.81,31067.595839794,24,3,3,3,2,0.86,2.86,9.67,-0.67,0.96,0.17,20.25,4.25,-8.4375,0.9742431640625,0.0809326171875,-0.09600830078125,-0.18731689453125,-7.1875,9.25,-17.0625,1.53,1.89,9.49,stop,12
12.82,31067.595839794,24,3,3,3,2,0.86,2.91,9.41,-0.65,0.99,-0.08,9.875,5.8125,-7.6875,0.97406005859375,0.0819091796875,-0.09564208984375,-0.1878662109375,-7.5625,7.0625,-17.875,1.52,1.91,9.49,stop,12
12.83,31067.628924674,24,3,3,3,2,0.91,3.01,9.24,-0.59,1.08,-0.25,4.6875,5.75,-5.0,0.9739990234375,0.08245849609375,-0.09521484375,-0.188232421875,-7.5625,7.0625,-17.875,1.51,1.92,9.49,stop,12
12.84,31067.628924674,24,3,3,3,2,0.98,3.1,9.07,-0.51,1.17,-0.42,0.875,5.25,-2.0,0.9739990234375,0.0826416015625,-0.09478759765625,-0.1883544921875,-7.5625,7.0625,-17.875,1.5,1.92,9.49,stop,12
12.85,31067.641163973,24,3,3,3,2,1.17,3.2,8.95,-0.32,1.28,-0.54,-6.125,3.8125,-0.1875,0.97412109375,0.08221435546875,-0.0943603515625,-0.1883544921875,-7.5625,7.0625,-17.875,1.49,1.91,9.49,stop,12
12.86,31067.641163973,24,3,3,3,2,1.4,3.16,8.81,-0.09,1.27,-0.69,-16.3125,2.5625,1.1875,0.9742431640625,0.08087158203125,-0.0938720703125,-0.1883544921875,-7.5625,7.0625,-17.875,1.49,1.89,9.5,stop,12
12.87,31067.656110913,24,3,3,3,2,1.94,2.85,8.65,0.45,1.0,-0.85,-24.5625,3.5,2.5,0.9744873046875,0.07879638671875,-0.09320068359375,-0.1883544921875,-7.1875,6.6875,-17.875,1.48,1.85,9.51,stop,12
12.88,31067.656110913,24,3,3,3,2,2.04,2.59,8.76,0.56,0.78,-0.75,-26.75,5.3125,4.0625,0.97479248046875,0.07659912109375,-0.09234619140625,-0.18817138671875,-7.1875,6.6875,-17.875,1.48,1.8,9.52,stop,12
12.89,31067.686205761,24,3,3,3,2,2.01,2.34,8.87,0.53,0.58,-0.66,-24.375,6.6875,5.0625,0.97509765625,0.0745849609375,-0.09136962890625,-0.1878662109375,-7.1875,6.6875,-17.875,1.47,1.76,9.53,stop,12
12.9,31067.686205761,24,3,3,3,2,1.91,2.21,8.82,0.45,0.49,-0.71,-22.25,6.5625,5.125,0.975341796875,0.07275390625,-0.09051513671875,-0.18756103515625,-7.1875,6.6875,-17.875,1.46,1.72,9.54,stop,12
12.91,31067.702167146,24,3,3,3,2,1.87,1.98,8.84,0.42,0.29,-0.7,-20.9375,5.6875,5.0,0.9755859375,0.071044921875,-0.0897216796875,-0.18731689453125,-7.1875,6.6875,-17.875,1.45,1.68,9.54,stop,12
12.92,31067.702167146,24,3,3,3,2,1.92,1.87,8.83,0.48,0.21,-0.72,-17.9375,5.25,5.375,0.975830078125,0.069580078125,-0.0889892578125,-0.18695068359375,-7.5625,6.6875,-17.5,1.44,1.65,9.55,stop,12
12.93,31067.731077547,24,3,3,3,2,1.99,1.83,8.83,0.55,0.19,-0.72,-12.8125,5.25,5.5,0.97607421875,0.06854248046875,-0.08837890625,-0.1865234375,-7.5625,6.6875,-17.5,1.44,1.63,9.56,stop,12
12.94,31067.731077547,24,3,3,3,2,2.02,1.84,8.95,0.59,0.21,-0.6,-6.9375,6.5625,5.5625,0.97625732421875,0.06805419921875,-0.0877685546875,-0.18609619140625,-7.5625,6.6875,-17.5,1.43,1.62,9.56,stop,12
12.95,31067.746055289,24,3,3,3,2,2.01,2.05,9.16,0.58,0.44,-0.4,-3.9375,7.4375,6.375,0.9764404296875,0.0677490234375,-0.08709716796875,-0.18548583984375,-7.5625,6.6875,-17.5,1.42,1.61,9.56,stop,12
12.96,31067.746055289,24,3,3,3,2,2.08,2.19,9.23,0.67,0.59,-0.33,-4.8125,7.25,6.75,0.97662353515625,0.06744384765625,-0.08648681640625,-0.1849365234375,-7.5625,6.6875,-17.5,1.41,1.6,9.57,stop,12
12.97,31067.766634594,24,3,3,3,3,2.12,2.17,9.28,0.72,0.58,-0.29,-7.0,8.0625,6.6875,0.976806640625,0.06695556640625,-0.085693359375,-0.18438720703125,-6.5,7.0625,-17.5,1.4,1.59,9.57,stop,12
12.98,31067.766634594,24,3,3,3,3,1.98,1.79,9.33,0.59,0.22,-0.23,-9.1875,8.75,5.6875,0.97705078125,0.06622314453125,-0.0848388671875,-0.18389892578125,-6.5,7.0625,-17.5,1.38,1.57,9.57,stop,12
12.99,31067.777239778,24,3,3,3,3,1.93,1.65,9.29,0.56,0.1,-0.28,-9.6875,7.875,5.3125,0.97723388671875,0.06549072265625,-0.08404541015625,-0.1834716796875,-6.5,7.0625,-17.5,1.37,1.55,9.58,stop,12
13.0,31067.777239778,24,3,3,3,3,1.92,1.63,9.22,0.55,0.08,-0.35,-6.3125,6.1875,4.3125,0.97735595703125,0.0650634765625,-0.08349609375,-0.18310546875,-6.5,7.0625,-17.5,1.36,1.54,9.58,stop,12
13.01,31067.807462394,24,3,3,3,3,1.91,1.67,9.25,0.55,0.12,-0.33,0.4375,5.3125,3.125,0.97747802734375,0.06512451171875,-0.08306884765625,-0.18280029296875,-6.5,7.0625,-17.5,1.35,1.54,9.58,stop,12
13.02,31067.807462394,24,3,3,3,3,1.79,2.01,9.3,0.43,0.46,-0.28,7.8125,4.3125,2.625,0.97747802734375,0.06585693359375,-0.08282470703125,-0.1824951171875,-6.0625,6.6875,-16.6875,1.35,1.55,9.58,stop,12
13.03,31067.821106803,24,3,3,3,3,1.68,2.08,9.26,0.33,0.5,-0.31,10.6875,4.125,2.0625,0.97747802734375,0.06683349609375,-0.08270263671875,-0.18218994140625,-6.0625,6.6875,-16.6875,1.34,1.57,9.58,stop,12
13.04,31067.821106803,24,3,3,3,3,1.65,2.14,9.28,0.3,0.55,-0.29,9.875,2.4375,1.375,0.97747802734375,0.06768798828125,-0.0826416015625,-0.1820068359375,-6.0625,6.6875,-16.6875,1.34,1.59,9.58,stop,12
13.05,31067.850995312,24,3,3,3,3,1.66,2.16,9.27,0.32,0.55,-0.3,8.375,0.8125,1.3125,0.97747802734375,0.06842041015625,-0.08270263671875,-0.18182373046875,-6.0625,6.6875,-16.6875,1.34,1.6,9.58,stop,12
13.06,31067.850995312,24,3,3,3,3,1.58,2.28,9.23,0.24,0.66,-0.34,8.5,0.0,1.1875,0.9774169921875,0.06915283203125,-0.0828857421875,-0.181640625,-6.0625,6.6875,-16.6875,1.34,1.62,9.57,stop,12
13.07,31067.882209668,24,3,3,3,3,1.57,2.25,9.27,0.22,0.61,-0.3,9.3125,-0.375,1.4375,0.97735595703125,0.0699462890625,-0.08306884765625,-0.18145751953125,-6.5,7.0625,-17.5,1.34,1.63,9.57,stop,12
13.08,31067.882209668,24,3,3,3,3,1.56,2.3,9.26,0.22,0.65,-0.3,7.6875,-1.0625,1.6875,0.97735595703125,0.07061767578125,-0.08331298828125,-0.1812744140625,-6.5,7.0625,-17.5,1.34,1.64,9.57,stop,12
13.09,31067.887603833,24,3,3,3,3,1.61,2.31,9.24,0.27,0.65,-0.32,5.4375,-1.1875,1.5625,0.97735595703125,0.071044921875,-0.08349609375,-0.18109130859375,-6.5,7.0625,-17.5,1.34,1.65,9.57,stop,12
13.1,31067.887603833,24,3,3,3,3,1.58,2.29,9.25,-0.03,-0.02,-0.13,3.5625,-0.375,2.25,0.97259521484375,0.10223388671875,-0.1038818359375,-0.18115234375,-6.5,7.0625,-17.5,1.61,2.31,9.38,stop,12
13.11,31067.943309033,24,3,3,3,3,1.58,2.29,9.25,-0.03,-0.02,-0.13,1.5625,0.3125,3.125,0.97265625,0.10235595703125,-0.10394287109375,-0.18084716796875,-6.5,7.0625,-17.5,1.62,2.32,9.38,stop,12
13.12,31067.943309033,24,3,3,3,3,1.58,2.25,9.28,-0.03,-0.06,-0.1,-0.4375,2.25,4.0625,0.97271728515625,0.10235595703125,-0.10382080078125,-0.1805419921875,-6.0625,6.375,-17.5,1.61,2.32,9.38,stop,12
13.13,31067.949164257,24,3,3,3,3,1.62,2.14,9.3,0.01,-0.16,-0.09,-2.8125,3.125,5.375,0.97283935546875,0.10211181640625,-0.10357666015625,-0.1800537109375,-6.0625,6.375,-17.5,1.61,2.31,9.39,stop,12
13.14,31067.949164257,24,3,3,3,3,1.63,2.15,9.22,0.02,-0.14,-0.16,-4.3125,3.5625,6.9375,0.9730224609375,0.10174560546875,-0.103271484375,-0.17950439453125,-6.0625,6.375,-17.5,1.61,2.3,9.39,stop,12
13.15,31067.954075472,24,3,3,3,3,1.61,2.1,9.18,0.01,-0.19,-0.21,-3.8125,5.6875,7.9375,0.97320556640625,0.1014404296875,-0.10284423828125,-0.17877197265625,-6.0625,6.375,-17.5,1.6,2.29,9.39,stop,12
13.16,31067.954075472,24,3,3,3,3,1.59,2.0,9.25,0.0,-0.27,-0.14,-2.8125,6.75,8.875,0.97344970703125,0.1011962890625,-0.102294921875,-0.177978515625,-6.0625,6.375,-17.5,1.59,2.28,9.4,stop,12
13.17,31067.959407869,24,3,3,3,3,1.58,1.95,9.44,0.0,-0.32,0.04,-2.8125,7.625,9.4375,0.97393798828125,0.10101318359375,-0.1015625,-0.1759033203125,-6.0625,7.0625,-17.5,1.59,2.28,9.4,stop,12
13.18,31067.959407869,24,3,3,3,3,1.58,1.89,9.44,0.0,-0.36,0.04,-3.8125,7.4375,9.8125,0.97418212890625,0.1005859375,-0.1009521484375,-0.17498779296875,-6.0625,7.0625,-17.5,1.58,2.26,9.4,stop,12
13.19,31067.986705721,24,3,3,3,3,1.61,1.81,9.44,0.04,-0.44,0.03,-4.5,7.625,9.5625,0.97442626953125,0.10028076171875,-0.100341796875,-0.17413330078125,-6.0625,7.0625,-17.5,1.57,2.25,9.41,stop,12
13.2,31067.986705721,24,3,3,3,3,1.63,1.75,9.53,0.06,-0.49,0.11,-4.8125,6.75,9.4375,0.97467041015625,0.09991455078125,-0.09979248046875,-0.17333984375,-6.0625,7.0625,-17.5,1.56,2.24,9.41,stop,12
13.21,31068.04788667,24,3,3,3,3,1.7,1.65,9.43,0.14,-0.58,0.01,-5.0625,6.0625,9.125,0.97491455078125,0.0994873046875,-0.09930419921875,-0.17254638671875,-6.0625,7.0625,-17.5,1.56,2.23,9.41,stop,12
13.22,31068.04788667,24,3,3,3,3,1.7,1.58,9.46,0.14,-0.64,0.04,-5.1875,5.75,8.0,0.97515869140625,0.09906005859375,-0.0987548828125,-0.17181396484375,-6.875,7.0625,-17.875,1.55,2.22,9.42,stop,12
13.23,31068.061110954,24,3,3,3,3,1.66,1.57,9.41,0.11,-0.64,0.0,-3.5,5.125,6.5625,0.975341796875,0.09881591796875,-0.098388671875,-0.1712646484375,-6.875,7.0625,-17.875,1.54,2.22,9.42,stop,12
13.24,31068.061110954,24,3,3,3,3,1.63,1.58,9.38,0.09,-0.62,-0.04,-1.0,4.625,5.3125,0.9754638671875,0.0987548828125,-0.0980224609375,-0.1707763671875,-6.875,7.0625,-17.875,1.54,2.21,9.42,stop,12
13.25,31068.067352246,24,3,3,3,3,1.63,1.61,9.47,0.09,-0.59,0.04,0.3125,4.375,3.9375,0.97552490234375,0.0987548828125,-0.09765625,-0.17041015625,-6.875,7.0625,-17.875,1.53,2.21,9.42,stop,12
13.26,31068.067352246,24,3,3,3,3,1.58,1.55,9.46,0.04,-0.64,0.03,0.0625,3.8125,3.0,0.9757080078125,0.09820556640625,-0.09735107421875,-0.1700439453125,-6.875,7.0625,-17.875,1.53,2.2,9.43,stop,12
13.27,31068.073230745,24,3,3,3,3,1.56,1.57,9.38,0.02,-0.61,-0.05,-0.3125,3.5625,2.0,0.9759521484375,0.0977783203125,-0.09698486328125,-0.1688232421875,-5.75,6.6875,-17.5,1.53,2.19,9.43,stop,12
13.28,31068.073230745,24,3,3,3,3,1.59,1.58,9.35,0.06,-0.59,-0.07,1.125,2.9375,1.375,0.97607421875,0.09735107421875,-0.09674072265625,-0.16864013671875,-5.75,6.6875,-17.5,1.52,2.18,9.43,stop,12
13.29,31068.079147086,24,3,3,3,3,1.58,1.83,9.36,0.05,-0.34,-0.06,4.125,3.5,1.125,0.97613525390625,0.097412109375,-0.09649658203125,-0.16845703125,-5.75,6.6875,-17.5,1.52,2.18,9.43,stop,12
13.3,31068.079147086,24,3,3,3,3,1.53,1.99,9.34,0.01,-0.19,-0.08,5.625,4.0,0.9375,0.97613525390625,0.09771728515625,-0.09625244140625,-0.16827392578125,-5.75,6.6875,-17.5,1.52,2.18,9.43,stop,12
13.31,31068.106459505,24,3,3,3,3,1.51,2.11,9.41,0.0,-0.08,-0.02,4.0,4.125,1.4375,0.9761962890625,0.09814453125,-0.09600830078125,-0.16802978515625,-5.75,6.6875,-17.5,1.51,2.19,9.43,stop,12
13.32,31068.106459505,24,3,3,3,3,1.4,1.95,9.5,-0.1,-0.24,0.06,0.625,4.6875,2.0625,0.97650146484375,0.098388671875,-0.095458984375,-0.166259765625,-5.375,6.6875,-18.25,1.5,2.19,9.43,stop,12
13.33,31068.123043652,24,3,3,3,3,1.4,1.84,9.44,-0.09,-0.34,0.0,-3.4375,4.3125,1.625,0.9765625,0.09814453125,-0.0950927734375,-0.1661376953125,-5.375,6.6875,-18.25,1.5,2.18,9.44,stop,12
13.34,31068.123043652,24,3,3,3,3,1.4,1.77,9.33,-0.08,-0.4,-0.1,-4.6875,3.75,1.4375,0.9766845703125,0.0977783203125,-0.0947265625,-0.166015625,-5.375,6.6875,-18.25,1.49,2.18,9.44,stop,12
13.35,31068.151719922,24,3,3,3,3,1.39,1.77,9.28,-0.09,-0.4,-0.15,-2.25,4.375,1.125,0.976806640625,0.09747314453125,-0.09423828125,-0.1658935546875,-5.375,6.6875,-18.25,1.48,2.17,9.44,stop,12
13.36,31068.151719922,24,3,3,3,3,1.37,1.76,9.41,-0.1,-0.4,-0.03,0.8125,4.5625,0.9375,0.97686767578125,0.09735107421875,-0.09381103515625,-0.165771484375,-5.375,6.6875,-18.25,1.48,2.17,9.44,stop,12
13.37,31068.16700992,24,3,3,3,3,1.36,1.72,9.41,-0.11,-0.44,-0.03,0.875,5.0,0.75,0.97711181640625,0.09735107421875,-0.09320068359375,-0.16461181640625,-5.75,6.6875,-18.5625,1.47,2.16,9.45,stop,12
13.38,31068.16700992,24,3,3,3,3,1.37,1.65,9.42,-0.08,-0.49,-0.03,0.0,5.0625,0.9375,0.97723388671875,0.09710693359375,-0.09271240234375,-0.16448974609375,-5.75,6.6875,-18.5625,1.46,2.15,9.45,stop,12
13.39,31068.198176058,24,3,3,3,3,1.38,1.65,9.37,-0.07,-0.49,-0.08,1.5,5.3125,1.0,0.977294921875,0.096923828125,-0.0921630859375,-0.164306640625,-5.75,6.6875,-18.5625,1.45,2.15,9.45,stop,12
13.4,31068.198176058,24,3,3,3,3,1.34,1.87,9.41,-0.09,-0.28,-0.03,5.9375,5.3125,0.8125,0.97735595703125,0.0972900390625,-0.09173583984375,-0.16412353515625,-5.75,6.6875,-18.5625,1.44,2.16,9.45,stop,12
13.41,31068.204519035,24,3,3,3,3,1.32,1.95,9.48,-0.11,-0.21,0.03,8.6875,4.5625,0.3125,0.977294921875,0.097900390625,-0.09136962890625,-0.1640625,-5.75,6.6875,-18.5625,1.43,2.17,9.45,stop,12
13.42,31068.204519035,24,3,3,3,3,1.3,2.05,9.56,-0.12,-0.12,0.11,7.1875,3.6875,-0.1875,0.9774169921875,0.0985107421875,-0.091064453125,-0.16339111328125,-5.75,6.6875,-18.25,1.42,2.18,9.45,stop,12
13.43,31068.227301261,24,3,3,3,3,1.27,2.06,9.57,-0.15,-0.11,0.12,2.625,2.25,-0.1875,0.9774169921875,0.09881591796875,-0.09088134765625,-0.163330078125,-5.75,6.6875,-18.25,1.42,2.18,9.45,stop,12
13.44,31068.227301261,24,3,3,3,3,1.35,1.9,9.4,-0.07,-0.27,-0.04,-2.0625,1.375,-0.75,0.9774169921875,0.0986328125,-0.09075927734375,-0.16339111328125,-5.75,6.6875,-18.25,1.42,2.18,9.45,stop,12
13.45,31068.241471183,24,3,3,3,3,1.44,1.92,9.39,0.01,-0.25,-0.06,-3.5,0.1875,-1.125,0.9774169921875,0.09832763671875,-0.0906982421875,-0.16351318359375,-5.75,6.6875,-18.25,1.42,2.17,9.45,stop,12
13.46,31068.241471183,24,3,3,3,3,1.48,1.93,9.44,0.06,-0.23,-0.01,-2.5625,0.0625,-1.125,0.9774169921875,0.0980224609375,-0.09063720703125,-0.16363525390625,-5.75,6.6875,-18.25,1.42,2.17,9.45,stop,12
13.47,31068.287591626,24,3,3,3,3,1.42,1.9,9.39,0.0,-0.25,-0.06,-1.6875,0.4375,-1.1875,0.97784423828125,0.09808349609375,-0.09039306640625,-0.1612548828125,-4.375,7.5,-17.5,1.42,2.16,9.45,stop,12
13.48,31068.287591626,24,3,3,3,3,1.4,1.86,9.34,-0.01,-0.3,-0.11,-2.0,0.8125,-1.25,0.9779052734375,0.0977783203125,-0.09027099609375,-0.161376953125,-4.375,7.5,-17.5,1.42,2.16,9.45,stop,12
13.49,31068.294901318,24,3,3,3,3,1.43,1.84,9.31,0.01,-0.31,-0.14,-1.1875,0.875,-1.375,0.9779052734375,0.09759521484375,-0.09014892578125,-0.1614990234375,-4.375,7.5,-17.5,1.41,2.15,9.46,stop,12
13.5,31068.294901318,24,3,3,3,3,1.44,1.84,9.35,0.02,-0.31,-0.1,2.125,2.125,-1.5625,0.9779052734375,0.09771728515625,-0.0899658203125,-0.16156005859375,-4.375,7.5,-17.5,1.41,2.15,9.46,stop,12
13.51,31068.301316927,24,3,3,3,3,1.38,1.86,9.34,-0.02,-0.3,-0.11,5.4375,2.6875,-1.4375,0.97784423828125,0.09814453125,-0.08978271484375,-0.16162109375,-4.375,7.5,-17.5,1.41,2.16,9.45,stop,12
13.52,31068.301316927,24,3,3,3,3,1.37,1.88,9.38,-0.03,-0.28,-0.07,7.0,2.5,-1.5625,0.977783203125,0.0986328125,-0.08966064453125,-0.16162109375,-5.75,6.6875,-17.0625,1.4,2.17,9.45,stop,12
13.53,31068.332637239,24,3,3,3,3,1.43,1.87,9.43,0.02,-0.3,-0.02,6.5625,2.25,-2.0625,0.977783203125,0.09912109375,-0.08953857421875,-0.1617431640625,-5.75,6.6875,-17.0625,1.4,2.18,9.45,stop,12
13.54,31068.332637239,24,3,3,3,3,1.5,1.92,9.4,0.1,-0.26,-0.04,6.5,1.6875,-2.375,0.9776611328125,0.099609375,-0.0894775390625,-0.161865234375,-5.75,6.6875,-17.0625,1.39,2.19,9.45,stop,12
13.55,31068.347343335,24,3,3,3,3,1.46,2.23,9.5,0.06,0.03,0.05,7.4375,1.75,-2.125,0.97760009765625,0.1002197265625,-0.08941650390625,-0.1619873046875,-5.75,6.6875,-17.0625,1.39,2.2,9.45,stop,12
13.56,31068.347343335,24,3,3,3,3,1.4,2.33,9.51,0.01,0.11,0.06,8.0,2.0,-1.9375,0.9775390625,0.1009521484375,-0.08935546875,-0.16204833984375,-5.75,6.6875,-17.0625,1.39,2.21,9.45,stop,12
13.57,31068.361154777,24,3,3,3,3,1.4,2.32,9.52,0.01,0.09,0.07,5.3125,2.25,-1.6875,0.97760009765625,0.10150146484375,-0.089111328125,-0.16131591796875,-5.375,6.375,-18.25,1.38,2.22,9.44,stop,12
13.58,31068.361154777,24,3,3,3,3,1.43,2.24,9.52,0.05,0.01,0.07,-0.6875,2.0,-1.3125,0.97760009765625,0.10150146484375,-0.08892822265625,-0.16143798828125,-5.375,6.375,-18.25,1.38,2.22,9.44,stop,12
13.59,31068.377104972,24,3,3,3,3,1.44,1.98,9.38,0.06,-0.23,-0.06,-5.625,2.125,-1.5625,0.9776611328125,0.10107421875,-0.08868408203125,-0.16156005859375,-5.375,6.375,-18.25,1.37,2.21,9.45,stop,12
13.6,31068.377104972,24,3,3,3,3,1.47,1.89,9.39,0.09,-0.31,-0.06,-5.3125,1.625,-0.9375,0.97772216796875,0.10064697265625,-0.08843994140625,-0.16168212890625,-5.375,6.375,-18.25,1.37,2.21,9.45,stop,12
13.61,31068.406405102,24,3,3,3,3,1.47,1.97,9.35,0.1,-0.23,-0.1,-1.8125,1.625,-0.5625,0.97772216796875,0.1004638671875,-0.08831787109375,-0.1617431640625,-5.375,6.375,-18.25,1.37,2.2,9.45,stop,12
13.62,31068.406405102,24,3,3,3,3,1.45,2.09,9.54,0.07,-0.11,0.08,-0.1875,1.0,0.0,0.9779052734375,0.10052490234375,-0.088134765625,-0.16058349609375,-5.0625,6.375,-17.875,1.37,2.2,9.45,stop,12
13.63,31068.422081901,24,3,3,3,3,1.45,2.07,9.52,0.07,-0.13,0.06,-1.375,0.6875,0.0,0.97796630859375,0.100341796875,-0.08807373046875,-0.16058349609375,-5.0625,6.375,-17.875,1.37,2.2,9.45,stop,12
13.64,31068.422081901,24,3,3,3,3,1.42,1.97,9.47,0.05,-0.22,0.01,-2.8125,0.8125,0.0,0.97796630859375,0.10003662109375,-0.08795166015625,-0.16058349609375,-5.0625,6.375,-17.875,1.37,2.19,9.45,stop,12
13.65,31068.436405021,24,3,3,3,3,1.4,1.96,9.43,0.03,-0.22,-0.02,-2.4375,0.375,0.0,0.97802734375,0.09979248046875,-0.08795166015625,-0.16058349609375,-5.0625,6.375,-17.875,1.37,2.19,9.45,stop,12
13.66,31068.436405021,24,3,3,3,3,1.4,1.92,9.46,0.03,-0.26,0.0,0.125,0.125,0.0625,0.97802734375,0.0997314453125,-0.08795166015625,-0.16058349609375,-5.0625,6.375,-17.875,1.37,2.18,9.45,stop,12
13.67,31068.468105257,24,3,3,3,3,1.41,2.0,9.47,0.04,-0.18,0.01,2.4375,-0.3125,0.0625,0.97808837890625,0.099853515625,-0.08795166015625,-0.1602783203125,-5.375,7.0625,-16.25,1.37,2.19,9.45,stop,12
13.68,31068.468105257,24,3,3,3,3,1.47,2.07,9.47,0.1,-0.11,0.01,2.9375,-0.625,0.0,0.97802734375,0.10009765625,-0.08807373046875,-0.16021728515625,-5.375,7.0625,-16.25,1.37,2.19,9.45,stop,12
13.69,31068.482260205,24,3,3,3,3,1.47,2.08,9.43,0.09,-0.11,-0.02,2.3125,-0.6875,0.3125,0.97802734375,0.1002197265625,-0.08819580078125,-0.16021728515625,-5.375,7.0625,-16.25,1.37,2.19,9.45,stop,12
13.7,31068.482260205,24,3,3,3,3,1.46,1.98,9.32,0.08,-0.21,-0.12,1.375,-0.9375,0.1875,0.97802734375,0.10028076171875,-0.08831787109375,-0.16021728515625,-5.375,7.0625,-16.25,1.37,2.2,9.45,stop,12
13.71,31068.512249544,24,3,3,3,3,1.49,1.99,9.26,0.11,-0.2,-0.19,1.75,-1.0625,-0.375,0.97796630859375,0.100341796875,-0.08843994140625,-0.16021728515625,-5.375,7.0625,-16.25,1.38,2.2,9.45,stop,12
13.73,31068.512249544,24,3,3,3,3,1.47,2.01,9.35,0.09,-0.19,-0.1,3.875,-1.0,-0.375,0.97802734375,0.10064697265625,-0.08856201171875,-0.1597900390625,-5.75,7.0625,-18.5625,1.38,2.2,9.45,stop,12
13.73,31068.525851025,24,3,3,3,3,1.41,2.05,9.39,0.03,-0.15,-0.05,5.4375,-1.375,-0.25,0.97796630859375,0.10101318359375,-0.08880615234375,-0.15972900390625,-5.75,7.0625,-18.5625,1.38,2.21,9.45,stop,12
13.74,31068.525851025,24,3,3,3,3,1.4,2.16,9.4,0.01,-0.05,-0.04,5.8125,-2.0625,-0.25,0.9779052734375,0.1014404296875,-0.08905029296875,-0.15972900390625,-5.75,7.0625,-18.5625,1.39,2.22,9.44,stop,12
13.75,31068.54269034,24,3,3,3,3,1.38,2.2,9.37,0.0,-0.03,-0.06,5.5,-2.125,-0.25,0.97784423828125,0.1019287109375,-0.08929443359375,-0.15966796875,-5.75,7.0625,-18.5625,1.39,2.23,9.44,stop,12
13.76,31068.54269034,24,3,3,3,3,1.4,2.16,9.32,0.0,-0.07,-0.11,4.6875,-2.125,-0.125,0.977783203125,0.10223388671875,-0.089599609375,-0.15966796875,-5.75,7.0625,-18.5625,1.39,2.24,9.44,stop,12
13.77,31068.556421338,24,3,3,3,3,1.39,2.14,9.36,0.0,-0.1,-0.07,3.5,-2.625,0.0,0.977783203125,0.1025390625,-0.08978271484375,-0.15911865234375,-5.375,7.0625,-17.0625,1.4,2.24,9.44,stop,12
13.78,31068.556421338,24,3,3,3,3,1.35,2.04,9.27,-0.05,-0.2,-0.16,2.625,-2.5625,0.0,0.977783203125,0.10272216796875,-0.09002685546875,-0.15911865234375,-5.375,7.0625,-17.0625,1.4,2.25,9.44,stop,12
13.79,31068.58872985,24,3,3,3,3,1.41,2.0,9.24,0.0,-0.24,-0.19,3.0625,-2.9375,-0.4375,0.97772216796875,0.1029052734375,-0.09033203125,-0.15911865234375,-5.375,7.0625,-17.0625,1.41,2.25,9.43,stop,12
13.8,31068.58872985,24,3,3,3,3,1.47,2.0,9.23,0.05,-0.25,-0.19,5.1875,-3.0625,-0.4375,0.9776611328125,0.103271484375,-0.0906982421875,-0.1590576171875,-5.375,7.0625,-17.0625,1.41,2.26,9.43,stop,12
13.82,31068.602447624,24,3,3,3,3,1.45,2.14,9.32,0.03,-0.12,-0.11,6.875,-2.5,-0.375,0.97760009765625,0.103759765625,-0.09100341796875,-0.1590576171875,-5.375,7.0625,-17.0625,1.42,2.27,9.43,stop,12
13.82,31068.602447624,24,3,3,3,3,1.44,2.16,9.28,0.02,-0.11,-0.14,7.0625,-2.125,-0.25,0.9775390625,0.10430908203125,-0.09130859375,-0.158935546875,-6.0625,7.0625,-18.25,1.42,2.28,9.42,stop,12
13.83,31068.616365959,24,3,3,3,3,1.46,2.16,9.31,0.03,-0.13,-0.11,5.75,-1.9375,-0.0625,0.9774169921875,0.104736328125,-0.091552734375,-0.15887451171875,-6.0625,7.0625,-18.25,1.42,2.29,9.42,stop,12
13.84,31068.616365959,24,3,3,3,3,1.45,2.15,9.38,0.02,-0.14,-0.04,4.5,-2.0,0.125,0.9774169921875,0.1051025390625,-0.091796875,-0.15887451171875,-6.0625,7.0625,-18.25,1.43,2.3,9.42,stop,12
13.85,31068.649202181,24,3,3,3,3,1.44,2.11,9.31,0.0,-0.18,-0.11,4.4375,-2.125,0.375,0.97735595703125,0.10540771484375,-0.092041015625,-0.15887451171875,-6.0625,7.0625,-18.25,1.43,2.3,9.42,stop,12
13.86,31068.649202181,24,3,3,3,3,1.44,2.05,9.3,0.0,-0.25,-0.11,4.9375,-1.9375,0.125,0.977294921875,0.105712890625,-0.09228515625,-0.1588134765625,-6.0625,7.0625,-18.25,1.43,2.31,9.42,stop,12
13.88,31068.69268737,24,3,3,3,3,1.46,2.05,9.31,0.02,-0.26,-0.1,5.5,-1.875,0.0,0.97735595703125,0.106201171875,-0.0924072265625,-0.1578369140625,-5.375,6.0,-19.0,1.44,2.32,9.41,stop,12
13.88,31068.69268737,24,3,3,3,3,1.46,2.0,9.26,0.01,-0.32,-0.14,6.375,-1.8125,-0.125,0.977294921875,0.10662841796875,-0.0926513671875,-0.15777587890625,-5.375,6.0,-19.0,1.44,2.33,9.41,stop,12
13.9,31068.698017936,24,3,3,3,3,1.42,2.09,9.31,-0.02,-0.24,-0.09,7.0,-2.3125,-0.3125,0.97723388671875,0.1070556640625,-0.09295654296875,-0.15771484375,-5.375,6.0,-19.0,1.45,2.33,9.41,stop,12
13.9,31068.698017936,24,3,3,3,3,1.38,2.12,9.35,-0.06,-0.22,-0.05,7.375,-2.625,-0.5,0.9771728515625,0.10760498046875,-0.09326171875,-0.15771484375,-5.375,6.0,-19.0,1.45,2.35,9.4,stop,12
13.91,31068.706132845,24,3,3,3,3,1.37,2.15,9.31,-0.08,-0.2,-0.08,8.0625,-2.5625,-0.875,0.97705078125,0.108154296875,-0.09356689453125,-0.15771484375,-5.375,6.0,-19.0,1.45,2.36,9.4,stop,12
13.92,31068.706132845,24,3,3,3,3,1.35,2.23,9.34,-0.11,-0.14,-0.05,8.9375,-3.0,-1.0,0.9769287109375,0.10882568359375,-0.0938720703125,-0.15789794921875,-6.5,6.6875,-17.875,1.46,2.37,9.4,stop,12
13.93,31068.720924919,24,3,3,3,3,1.4,2.27,9.4,-0.06,-0.11,0.0,9.5,-3.375,-0.6875,0.976806640625,0.10955810546875,-0.09429931640625,-0.157958984375,-6.5,6.6875,-17.875,1.46,2.39,9.39,stop,12
13.94,31068.720924919,24,3,3,3,3,1.37,2.26,9.37,-0.1,-0.14,-0.01,8.5625,-3.3125,-0.5,0.9766845703125,0.11016845703125,-0.09466552734375,-0.15789794921875,-6.5,6.6875,-17.875,1.47,2.4,9.39,stop,12
13.95,31068.751871981,24,3,3,3,3,1.32,2.25,9.35,-0.14,-0.16,-0.02,7.625,-3.375,-0.625,0.97662353515625,0.1107177734375,-0.09503173828125,-0.157958984375,-6.5,6.6875,-17.875,1.47,2.41,9.38,stop,12
13.97,31068.751871981,24,3,3,3,3,1.37,2.3,9.34,-0.1,-0.12,-0.04,7.6875,-4.25,-0.6875,0.97650146484375,0.11126708984375,-0.09539794921875,-0.157958984375,-6.5,6.6875,-17.875,1.48,2.42,9.38,stop,12
13.98,31068.765630119,24,3,3,3,3,1.39,2.32,9.33,-0.09,-0.11,-0.04,8.5,-4.75,-0.4375,0.9765625,0.11199951171875,-0.0958251953125,-0.15704345703125,-5.375,6.375,-17.875,1.49,2.44,9.38,stop,12
13.99,31068.765630119,24,3,3,3,3,1.42,2.32,9.3,-0.07,-0.12,-0.06,8.3125,-4.75,-0.4375,0.9764404296875,0.11260986328125,-0.0963134765625,-0.15704345703125,-5.375,6.375,-17.875,1.49,2.45,9.37,stop,12
13.99,31068.782073438,24,3,3,3,3,1.52,2.31,9.26,0.01,-0.15,-0.1,7.25,-5.125,0.0,0.976318359375,0.11309814453125,-0.0968017578125,-0.156982421875,-5.375,6.375,-17.875,1.5,2.46,9.37,stop,12
14.0,31068.782073438,24,3,3,3,3,1.57,2.29,9.28,0.05,-0.18,-0.08,6.5,-4.8125,0.0,0.9761962890625,0.11358642578125,-0.09735107421875,-0.156982421875,-5.375,6.375,-17.875,1.51,2.47,9.36,stop,12
14.01,31068.811489413,24,3,3,3,3,1.53,2.26,9.32,0.01,-0.21,-0.04,7.0625,-4.1875,0.1875,0.97613525390625,0.11407470703125,-0.0977783203125,-0.156982421875,-5.375,6.375,-17.875,1.52,2.48,9.36,stop,12
14.03,31068.811489413,24,3,3,3,3,1.52,2.29,9.34,0.0,-0.2,-0.01,8.375,-3.75,0.75,0.9759521484375,0.1146240234375,-0.0982666015625,-0.1571044921875,-6.875,6.375,-19.0,1.52,2.49,9.35,stop,12
14.03,31068.843097119,24,3,3,3,3,1.52,2.33,9.34,0.0,-0.17,0.0,9.875,-3.4375,0.6875,0.97589111328125,0.1153564453125,-0.09869384765625,-0.156982421875,-6.875,6.375,-19.0,1.53,2.51,9.35,stop,12
14.04,31068.843097119,24,3,3,3,3,1.51,2.35,9.31,-0.02,-0.16,-0.03,10.3125,-3.0,0.25,0.97576904296875,0.11614990234375,-0.09906005859375,-0.15692138671875,-6.875,6.375,-19.0,1.53,2.52,9.34,stop,12
14.07,31068.85644384,24,3,3,3,3,1.55,2.4,9.34,0.0,-0.14,0.0,8.8125,-2.875,-0.1875,0.97552490234375,0.11749267578125,-0.09979248046875,-0.1568603515625,-6.875,6.375,-19.0,1.54,2.55,9.34,stop,12
14.07,31068.85644384,24,3,3,3,3,1.56,2.45,9.34,0.0,-0.11,0.01,8.1875,-2.75,-0.3125,0.9754638671875,0.1181640625,-0.10009765625,-0.156494140625,-5.75,6.375,-17.5,1.55,2.56,9.33,stop,12
14.08,31068.872112053,24,3,3,3,3,1.52,2.44,9.35,-0.03,-0.13,0.02,7.0625,-2.625,-0.25,0.975341796875,0.11865234375,-0.10040283203125,-0.15643310546875,-5.75,6.375,-17.5,1.55,2.57,9.33,stop,12
14.09,31068.872112053,24,3,3,3,3,1.52,2.36,9.32,-0.03,-0.21,0.0,5.3125,-2.1875,-0.1875,0.97528076171875,0.1190185546875,-0.10064697265625,-0.15643310546875,-5.75,6.375,-17.5,1.56,2.58,9.32,stop,12
14.1,31068.902702466,24,3,3,3,3,1.57,2.34,9.26,0.01,-0.24,-0.05,3.9375,-2.125,-0.1875,0.97528076171875,0.1192626953125,-0.10089111328125,-0.15643310546875,-5.75,6.375,-17.5,1.56,2.59,9.32,stop,12
14.12,31068.902702466,24,3,3,3,3,1.59,2.33,9.25,0.02,-0.25,-0.06,4.25,-1.875,0.0,0.9752197265625,0.1195068359375,-0.10113525390625,-0.1563720703125,-5.75,6.375,-17.5,1.56,2.59,9.32,stop,12
14.13,31068.932135694,24,3,3,3,3,1.52,2.36,9.25,-0.04,-0.24,-0.06,6.75,-1.125,0.0,0.97515869140625,0.1199951171875,-0.10125732421875,-0.15606689453125,-6.0625,6.375,-18.25,1.56,2.6,9.32,stop,12
14.14,31068.932135694,24,3,3,3,3,1.49,2.39,9.29,-0.07,-0.22,-0.02,9.3125,-0.5625,0.25,0.97509765625,0.1207275390625,-0.1014404296875,-0.156005859375,-6.0625,6.375,-18.25,1.57,2.61,9.31,stop,12
14.15,31068.938203605,24,3,3,3,3,1.5,2.44,9.28,-0.06,-0.19,-0.03,10.875,-1.125,0.5,0.9749755859375,0.12152099609375,-0.10162353515625,-0.15594482421875,-6.0625,6.375,-18.25,1.57,2.63,9.31,stop,12
14.15,31068.938203605,24,3,3,3,3,1.54,2.43,9.33,-0.03,-0.21,0.02,11.6875,-1.375,0.625,0.974853515625,0.1224365234375,-0.10186767578125,-0.15576171875,-6.0625,6.375,-18.25,1.57,2.65,9.3,stop,12
14.16,31068.961382479,24,3,3,3,3,1.56,2.44,9.34,-0.01,-0.22,0.04,12.0625,-2.25,0.5625,0.9747314453125,0.123291015625,-0.10223388671875,-0.1556396484375,-6.0625,6.375,-18.25,1.57,2.66,9.3,stop,12
14.18,31068.961382479,24,3,3,3,3,1.54,2.43,9.33,-0.03,-0.25,0.03,11.5625,-3.3125,1.1875,0.97467041015625,0.12420654296875,-0.10260009765625,-0.155029296875,-5.75,5.6875,-18.25,1.58,2.68,9.29,stop,12
14.18,31068.975881421,24,3,3,3,3,1.59,2.41,9.28,0.0,-0.29,0.0,11.875,-4.25,1.75,0.97454833984375,0.125,-0.10308837890625,-0.15478515625,-5.75,5.6875,-18.25,1.59,2.7,9.29,stop,12
14.19,31068.975881421,24,3,3,3,3,1.7,2.57,9.24,0.1,-0.14,-0.03,13.5625,-5.8125,2.125,0.97442626953125,0.1259765625,-0.10382080078125,-0.154541015625,-5.75,5.6875,-18.25,1.6,2.72,9.28,stop,12
14.21,31068.99140555,24,3,3,3,3,1.7,2.61,9.32,0.09,-0.13,0.04,16.5625,-5.25,2.1875,0.9742431640625,0.12725830078125,-0.1044921875,-0.15423583984375,-5.75,5.6875,-18.25,1.61,2.74,9.27,stop,12
14.22,31068.99140555,24,3,3,3,3,1.65,2.58,9.26,0.03,-0.18,0.0,16.4375,-2.8125,1.0625,0.9739990234375,0.1285400390625,-0.10498046875,-0.154052734375,-5.75,5.6875,-18.25,1.61,2.77,9.26,stop,12
14.23,31069.021896354,24,3,3,3,3,1.66,2.53,9.3,0.04,-0.25,0.04,11.8125,-2.5625,-0.5,0.973876953125,0.12939453125,-0.1053466796875,-0.1539306640625,-6.0625,5.25,-18.25,1.62,2.78,9.26,stop,12
14.24,31069.021896354,24,3,3,3,3,1.83,2.57,9.14,0.21,-0.22,-0.1,7.9375,-3.0,-2.3125,0.9737548828125,0.12994384765625,-0.105712890625,-0.154052734375,-6.0625,5.25,-18.25,1.62,2.8,9.25,stop,12
14.24,31069.035950147,24,3,3,3,3,1.85,2.63,9.22,0.22,-0.17,-0.03,6.875,-2.8125,-2.5,0.9736328125,0.13043212890625,-0.1060791015625,-0.15423583984375,-6.0625,5.25,-18.25,1.63,2.81,9.25,stop,12
14.25,31069.035950147,24,3,3,3,3,1.77,2.71,9.34,0.14,-0.1,0.09,7.4375,-2.3125,-1.875,0.9735107421875,0.13092041015625,-0.1064453125,-0.154296875,-6.0625,5.25,-18.25,1.63,2.82,9.24,stop,12
14.26,31069.051596183,24,3,3,3,3,1.71,2.85,9.44,0.08,0.02,0.2,5.6875,-1.8125,-1.8125,0.973388671875,0.13140869140625,-0.106689453125,-0.1544189453125,-6.0625,5.25,-18.25,1.63,2.83,9.24,stop,12
14.28,31069.051596183,24,3,3,3,3,1.61,3.0,9.41,-0.02,0.17,0.17,2.1875,-1.6875,-1.5625,0.97332763671875,0.13153076171875,-0.10687255859375,-0.15478515625,-6.5,4.5625,-18.25,1.64,2.83,9.24,stop,12
14.29,31069.081360873,24,3,3,3,3,1.59,2.94,9.42,-0.04,0.1,0.18,-0.125,-1.4375,-1.25,0.9732666015625,0.13153076171875,-0.10693359375,-0.1549072265625,-6.5,4.5625,-18.25,1.64,2.83,9.24,stop,12
14.3,31069.081360873,24,3,3,3,3,1.6,2.9,9.43,-0.03,0.07,0.18,-0.8125,-1.875,-0.375,0.9732666015625,0.13140869140625,-0.10711669921875,-0.1549072265625,-6.5,4.5625,-18.25,1.64,2.83,9.24,stop,12
14.31,31069.095400912,24,3,3,3,3,1.59,2.72,9.32,-0.04,-0.1,0.07,-1.1875,-2.0625,0.4375,0.9732666015625,0.13128662109375,-0.10723876953125,-0.15496826171875,-6.5,4.5625,-18.25,1.64,2.83,9.24,stop,12
14.32,31069.095400912,24,3,3,3,3,1.67,2.67,9.28,0.01,-0.15,0.03,-2.125,-2.5625,0.5,0.9732666015625,0.13104248046875,-0.107421875,-0.15496826171875,-6.5,4.5625,-18.25,1.65,2.82,9.24,stop,12
14.33,31069.111020215,24,3,3,3,3,1.71,2.65,9.24,0.06,-0.16,0.0,-2.625,-2.625,1.0,0.97332763671875,0.1307373046875,-0.107666015625,-0.15484619140625,-6.0625,5.6875,-17.5,1.65,2.82,9.24,stop,12
14.33,31069.111020215,24,3,3,3,3,1.73,2.67,9.22,0.07,-0.14,-0.01,-2.0625,-2.875,1.625,0.97332763671875,0.1304931640625,-0.10784912109375,-0.15478515625,-6.0625,5.6875,-17.5,1.66,2.81,9.24,stop,12
14.34,31069.142005648,24,3,3,3,3,1.7,2.56,9.16,0.03,-0.25,-0.08,-0.6875,-2.0,2.0,0.973388671875,0.13031005859375,-0.10809326171875,-0.15460205078125,-6.0625,5.6875,-17.5,1.66,2.81,9.24,stop,12
14.36,31069.142005648,24,3,3,3,3,1.71,2.63,9.16,0.03,-0.18,-0.07,1.25,-1.8125,2.25,0.973388671875,0.13037109375,-0.1082763671875,-0.1544189453125,-6.0625,5.6875,-17.5,1.67,2.81,9.24,stop,12
14.37,31069.15558951,24,3,3,3,3,1.69,2.78,9.13,0.01,-0.04,-0.1,4.25,-1.5625,2.5,0.97332763671875,0.13067626953125,-0.1085205078125,-0.1541748046875,-6.0625,5.6875,-17.5,1.67,2.82,9.24,stop,12
14.38,31069.15558951,24,3,3,3,3,1.65,2.88,9.16,-0.02,0.04,-0.07,7.5,-1.0,3.0625,0.9736328125,0.1314697265625,-0.10845947265625,-0.1517333984375,-5.375,5.6875,-20.1875,1.67,2.83,9.23,stop,12
14.39,31069.172128085,24,3,3,3,3,1.67,2.95,9.34,0.0,0.11,0.11,8.375,-1.3125,3.9375,0.97357177734375,0.13214111328125,-0.10870361328125,-0.1513671875,-5.375,5.6875,-20.1875,1.68,2.84,9.23,stop,12
14.4,31069.172128085,24,3,3,3,3,1.71,2.94,9.3,0.03,0.09,0.07,4.5,-1.9375,4.0,0.97357177734375,0.1324462890625,-0.1090087890625,-0.1510009765625,-5.375,5.6875,-20.1875,1.68,2.85,9.22,stop,12
14.4,31069.201728386,24,3,3,3,3,1.77,2.9,9.25,0.08,0.05,0.02,-2.0625,-2.375,3.75,0.97357177734375,0.1322021484375,-0.10919189453125,-0.15069580078125,-5.375,5.6875,-20.1875,1.69,2.84,9.23,stop,12
14.41,31069.201728386,24,3,3,3,3,1.78,2.86,9.21,0.08,0.02,-0.01,-6.5625,-3.375,3.5625,0.97369384765625,0.13153076171875,-0.10943603515625,-0.1505126953125,-5.375,5.6875,-20.1875,1.7,2.83,9.23,stop,12
14.43,31069.216448845,24,3,3,3,3,1.83,2.73,9.15,0.12,-0.08,-0.08,-7.375,-3.75,3.5,0.97393798828125,0.13092041015625,-0.10955810546875,-0.14923095703125,-5.75,5.6875,-18.5625,1.7,2.82,9.23,stop,12
14.44,31069.216448845,24,3,3,3,3,1.84,2.68,9.16,0.13,-0.12,-0.06,-6.5,-3.0625,3.3125,0.97406005859375,0.13031005859375,-0.10980224609375,-0.1490478515625,-5.75,5.6875,-18.5625,1.71,2.81,9.23,stop,12
