timestamp,android_nano_timestamp,temperature,calib_mag,calib_accel,calib_gyro,calib_sys,acc_x,acc_y,acc_z,lacc_x,lacc_y,lacc_z,gyro_x,gyro_y,gyro_z,quat_w,quat_x,quat_y,quat_z,mag_x,mag_y,mag_z,gravity_x,gravity_y,gravity_z,label,person
5.89,1145244.865618634,29,3,3,3,0,-4.13,2.08,-3.27,4.07,0.33,1.79,-65.375,-24.3125,-1.3125,0.44854736328125,0.51416015625,0.702880859375,-0.20086669921875,38.5625,52.875,73.75,-8.2,1.75,-5.06,moving,4
5.9,1145244.865618634,29,3,3,3,0,-5.71,2.07,-3.24,2.49,0.25,1.78,-74.0625,-5.25,-2.75,0.4521484375,0.510986328125,0.7041015625,-0.1966552734375,38.5625,52.875,73.75,-8.21,1.81,-5.03,moving,4
5.91,1145244.880119001,29,3,3,3,0,-8.11,1.62,-3.79,0.1,-0.23,1.2,-62.3125,-6.125,-3.875,0.45526123046875,0.5081787109375,0.705078125,-0.19329833984375,39.0625,53.25,72.875,-8.22,1.86,-5.0,moving,4
5.92,1145244.880119001,29,3,3,3,0,-16.42,1.53,-7.88,-8.18,-0.34,-2.91,-29.8125,-20.3125,-7.375,0.457763671875,0.5062255859375,0.705078125,-0.192626953125,39.0625,53.25,72.875,-8.24,1.88,-4.96,moving,4
5.93,1145244.910992536,29,3,3,3,0,-20.23,3.18,-15.35,-11.98,1.33,-10.38,22.375,-1.75,-7.75,0.45672607421875,0.506591796875,0.7049560546875,-0.19439697265625,39.0625,53.25,72.875,-8.24,1.85,-4.97,moving,4
5.94,1145244.910992536,29,3,3,3,0,-20.42,5.69,-19.38,-12.1,3.89,-14.51,47.0625,-84.6875,-9.8125,0.459716796875,0.50640869140625,0.701171875,-0.201416015625,39.0625,53.25,72.875,-8.32,1.79,-4.86,moving,4
5.95,1145244.926942161,29,3,3,3,0,-17.71,2.23,-12.38,-9.24,0.48,-7.76,17.6875,-175.0,-20.8125,0.46917724609375,0.502685546875,0.6947021484375,-0.2110595703125,39.0625,53.25,72.875,-8.47,1.75,-4.61,moving,4
5.96,1145244.926942161,29,3,3,3,0,-26.41,5.07,-13.28,-17.82,3.36,-8.88,32.25,-151.25,-12.375,0.4766845703125,0.50042724609375,0.6883544921875,-0.22015380859375,37.25,52.875,72.875,-8.59,1.7,-4.39,moving,4
5.97,1145244.955697207,29,3,3,3,0,-30.99,6.65,-16.02,-22.3,4.98,-11.8,8.25,-119.9375,-16.875,0.48321533203125,0.4974365234375,0.68389892578125,-0.2265625,37.25,52.875,72.875,-8.69,1.67,-4.22,moving,4
5.98,1145244.955697207,29,3,3,3,0,-34.57,7.36,-15.86,-25.79,5.72,-11.81,0.0,-112.5625,-20.4375,0.489501953125,0.49395751953125,0.6800537109375,-0.2322998046875,37.25,52.875,72.875,-8.77,1.64,-4.04,moving,4
5.99,1145244.97043443,29,3,3,3,0,-35.68,7.14,-14.04,-26.84,5.52,-10.1,10.75,-73.875,-11.6875,0.4931640625,0.49224853515625,0.6771240234375,-0.23663330078125,37.25,52.875,72.875,-8.83,1.61,-3.93,moving,4
6.0,1145244.97043443,29,3,3,3,0,-29.5,6.3,-13.48,-20.66,4.68,-9.57,3.5,-20.875,2.9375,0.49432373046875,0.49212646484375,0.676025390625,-0.23760986328125,37.25,52.875,72.875,-8.84,1.62,-3.9,moving,4
6.01,1145244.985245099,29,3,3,3,0,-29.5,6.3,-13.48,-20.66,4.68,-9.57,3.5,-20.875,2.9375,0.49432373046875,0.49212646484375,0.676025390625,-0.23760986328125,37.25,52.875,72.875,-8.84,1.62,-3.9,moving,4
6.01,1145244.985245099,29,3,3,3,0,-25.45,6.66,-12.91,-16.62,5.03,-8.97,6.5625,19.1875,10.25,0.49310302734375,0.493408203125,0.67626953125,-0.2366943359375,37.5625,54.6875,72.375,-8.83,1.63,-3.93,moving,4
6.02,1145244.999919741,29,3,3,3,0,-21.51,6.74,-11.13,-12.71,5.1,-7.13,10.375,40.125,9.4375,0.490478515625,0.4952392578125,0.6773681640625,-0.23516845703125,37.5625,54.6875,72.375,-8.8,1.63,-4.0,moving,4
6.03,1145244.999919741,29,3,3,3,0,-16.15,4.24,-7.79,-7.37,2.6,-3.75,9.25,27.3125,3.9375,0.48858642578125,0.4964599609375,0.67816162109375,-0.234375,37.5625,54.6875,72.375,-8.78,1.63,-4.04,moving,4
6.04,1145245.015921613,29,3,3,3,0,-13.42,3.78,-7.54,-4.67,2.14,-3.43,16.25,39.9375,6.3125,0.48565673828125,0.49835205078125,0.67926025390625,-0.23333740234375,37.5625,54.6875,72.375,-8.75,1.63,-4.11,moving,4
6.05,1145245.015921613,29,3,3,3,0,-12.07,2.87,-6.56,-3.38,1.23,-2.34,8.8125,73.0,2.4375,0.48095703125,0.50030517578125,0.68206787109375,-0.2305908203125,37.5625,54.6875,72.375,-8.69,1.63,-4.22,moving,4
6.06,1145245.045523175,29,3,3,3,0,-10.03,2.34,-5.3,-1.41,0.72,-0.92,19.5,98.875,-1.4375,0.47418212890625,0.5030517578125,0.68585205078125,-0.22747802734375,38.0,54.0,71.5625,-8.62,1.61,-4.38,moving,4
6.07,1145245.045523175,29,3,3,3,0,-6.66,0.77,-3.26,1.87,-0.81,1.28,27.875,106.875,-4.25,0.46649169921875,0.50604248046875,0.68988037109375,-0.224609375,38.0,54.0,71.5625,-8.54,1.59,-4.54,moving,4
6.08,1145245.060092186,29,3,3,3,0,-5.27,0.43,-2.31,3.17,-1.13,2.4,17.8125,113.4375,-4.0,0.458740234375,0.50872802734375,0.69427490234375,-0.2208251953125,38.0,54.0,71.5625,-8.44,1.57,-4.72,moving,4
6.09,1145245.060092186,29,3,3,3,0,-4.11,0.35,-1.64,4.22,-1.2,3.26,8.3125,123.25,-1.25,0.45086669921875,0.51129150390625,0.69903564453125,-0.21588134765625,38.0,54.0,71.5625,-8.34,1.56,-4.9,moving,4
6.1,1145245.094394798,29,3,3,3,0,-2.91,0.17,-1.11,5.31,-1.37,3.97,6.4375,129.25,-0.4375,0.44268798828125,0.51397705078125,0.7039794921875,-0.21044921875,38.0,54.0,71.5625,-8.23,1.55,-5.09,moving,4
6.11,1145245.094394798,29,3,3,3,0,-0.71,0.06,0.01,7.4,-1.48,5.28,8.25,127.3125,-3.0,0.43438720703125,0.51641845703125,0.70880126953125,-0.20538330078125,37.1875,54.0,72.375,-8.11,1.54,-5.27,moving,4
6.12,1145245.099849103,29,3,3,3,0,0.61,-0.17,0.36,8.61,-1.68,5.81,15.0625,124.6875,-8.6875,0.42584228515625,0.5186767578125,0.713623046875,-0.20098876953125,37.1875,54.0,72.375,-8.0,1.51,-5.45,moving,4
6.13,1145245.099849103,29,3,3,3,0,2.89,-0.96,0.6,10.78,-2.44,6.23,22.625,120.3125,-10.8125,0.4171142578125,0.52093505859375,0.7181396484375,-0.1973876953125,37.1875,54.0,72.375,-7.89,1.48,-5.63,moving,4
6.14,1145245.120750755,29,3,3,3,0,4.8,-0.65,1.37,12.58,-2.09,7.16,32.5625,111.0625,-9.1875,0.40850830078125,0.52337646484375,0.72198486328125,-0.1947021484375,37.1875,54.0,72.375,-7.78,1.43,-5.79,moving,4
6.15,1145245.120750755,29,3,3,3,0,6.78,-0.64,2.09,14.49,-2.0,7.99,55.5625,73.9375,-16.6875,0.4010009765625,0.52557373046875,0.72442626953125,-0.19537353515625,37.1875,54.0,72.375,-7.71,1.35,-5.9,moving,4
6.16,1145245.135397524,29,3,3,3,0,7.34,-1.44,2.63,15.04,-2.68,8.57,87.75,13.875,-23.4375,0.39569091796875,0.52740478515625,0.7244873046875,-0.20111083984375,36.75,53.25,73.5625,-7.7,1.23,-5.94,moving,4
6.17,1145245.135397524,29,3,3,3,0,7.98,-2.57,3.39,15.74,-3.62,9.29,139.0625,-53.25,-32.125,0.39208984375,0.5291748046875,0.72161865234375,-0.21343994140625,36.75,53.25,73.5625,-7.76,1.04,-5.89,moving,4
6.18,1145245.150395938,29,3,3,3,0,7.36,-3.92,5.42,15.19,-4.78,11.27,128.5,-51.0,-38.75,0.38861083984375,0.5301513671875,0.71917724609375,-0.22515869140625,36.75,53.25,73.5625,-7.82,0.86,-5.85,moving,4
6.19,1145245.150395938,29,3,3,3,0,5.02,-2.44,8.03,12.86,-3.21,13.87,72.9375,-15.4375,-20.625,0.38580322265625,0.531005859375,0.71820068359375,-0.23114013671875,36.75,53.25,73.5625,-7.84,0.76,-5.83,moving,4
6.2,1145245.180515811,29,3,3,3,0,2.03,-1.42,8.38,9.91,-2.16,14.17,9.5625,-37.75,-8.5625,0.38751220703125,0.530029296875,0.71710205078125,-0.2337646484375,36.75,53.25,73.5625,-7.88,0.74,-5.78,moving,4
6.21,1145245.180515811,29,3,3,3,0,0.32,-0.88,6.77,8.31,-1.65,12.41,-24.9375,-107.1875,-0.9375,0.3953857421875,0.52691650390625,0.7139892578125,-0.2371826171875,36.375,56.1875,75.0,-7.98,0.76,-5.63,moving,4
6.22,1145245.195497988,29,3,3,3,0,-1.52,-0.63,4.64,6.61,-1.43,10.04,-30.1875,-164.8125,7.25,0.4071044921875,0.5228271484375,0.70849609375,-0.24261474609375,36.375,56.1875,75.0,-8.14,0.8,-5.4,moving,4
6.23,1145245.195497988,29,3,3,3,0,-2.37,0.22,3.59,5.92,-0.63,8.75,-28.25,-162.5625,16.4375,0.41876220703125,0.51934814453125,0.7025146484375,-0.2476806640625,36.375,56.1875,75.0,-8.29,0.85,-5.16,moving,4
6.24,1145245.227322289,29,3,3,3,0,-3.13,1.38,1.51,5.26,0.47,6.49,-25.375,-123.625,21.0,0.42791748046875,0.51702880859375,0.69757080078125,-0.2509765625,36.375,56.1875,75.0,-8.39,0.9,-4.97,moving,4
6.25,1145245.227322289,29,3,3,3,0,-2.45,1.29,0.03,6.01,0.31,4.87,-43.6875,-83.75,21.4375,0.43548583984375,0.51483154296875,0.69439697265625,-0.25128173828125,36.375,56.1875,75.0,-8.46,0.97,-4.84,moving,4
6.26,1145245.232940534,29,3,3,3,0,-2.45,1.29,0.03,6.01,0.31,4.87,-43.6875,-83.75,21.4375,0.43548583984375,0.51483154296875,0.69439697265625,-0.25128173828125,36.375,56.1875,75.0,-8.46,0.97,-4.84,moving,4
6.26,1145245.232940534,29,3,3,3,0,-0.48,0.8,-2.36,8.0,-0.27,2.43,-81.5625,-25.9375,20.75,0.441162109375,0.51239013671875,0.6942138671875,-0.2467041015625,37.875,56.1875,73.0625,-8.48,1.07,-4.79,moving,4
6.27,1145245.271804548,29,3,3,3,0,-0.97,0.94,-3.27,7.48,-0.25,1.53,-113.25,25.375,21.625,0.44512939453125,0.5098876953125,0.6966552734375,-0.23785400390625,37.875,56.1875,73.0625,-8.46,1.2,-4.81,moving,4
6.28,1145245.271804548,29,3,3,3,0,-2.3,1.49,-4.54,6.11,0.15,0.3,-125.375,46.25,20.125,0.44830322265625,0.50714111328125,0.7000732421875,-0.2274169921875,37.875,56.1875,73.0625,-8.41,1.33,-4.85,moving,4
6.29,1145245.27963662,29,3,3,3,0,-3.82,2.98,-8.47,4.55,1.51,-3.6,-133.25,35.5625,16.75,0.45233154296875,0.503662109375,0.70330810546875,-0.217041015625,37.875,56.1875,73.0625,-8.38,1.47,-4.86,moving,4
6.3,1145245.27963662,29,3,3,3,0,-5.58,0.89,-19.07,2.81,-0.7,-14.28,-135.3125,-23.6875,8.5,0.45989990234375,0.49835205078125,0.70452880859375,-0.20941162109375,37.875,56.1875,73.0625,-8.4,1.6,-4.79,moving,4
6.31,1145245.285703229,29,3,3,3,0,-8.8,4.45,-12.29,-0.3,2.84,-7.67,-6.75,-118.25,4.625,0.46746826171875,0.49615478515625,0.69964599609375,-0.21392822265625,37.75,55.0625,75.875,-8.49,1.61,-4.62,moving,4
6.32,1145245.285703229,29,3,3,3,0,-12.45,3.45,-3.55,-3.88,1.88,0.94,63.4375,-91.3125,6.0,0.47039794921875,0.49737548828125,0.6944580078125,-0.22149658203125,37.75,55.0625,75.875,-8.56,1.57,-4.5,moving,4
6.33,1145245.317617455,29,3,3,3,0,-16.99,3.86,-5.07,-8.38,2.33,-0.63,56.875,-51.5625,-2.9375,0.47100830078125,0.49853515625,0.69134521484375,-0.227294921875,37.75,55.0625,75.875,-8.6,1.52,-4.44,moving,4
6.34,1145245.317617455,29,3,3,3,0,-31.7,5.54,-9.33,-22.97,4.04,-5.13,41.4375,-165.4375,0.6875,0.4791259765625,0.4969482421875,0.68359375,-0.2369384765625,37.75,55.0625,75.875,-8.73,1.49,-4.2,moving,4
6.35,1145245.331792178,29,3,3,3,0,-34.64,3.42,-13.47,-25.73,1.94,-9.66,-42.0625,-250.9375,-26.5625,0.4952392578125,0.48834228515625,0.67498779296875,-0.246337890625,37.75,55.0625,75.875,-8.91,1.48,-3.8,moving,4
6.36,1145245.331792178,29,3,3,3,0,-39.51,4.77,-20.31,-30.49,3.26,-16.75,-67.3125,-146.875,-14.5625,0.50640869140625,0.4813232421875,0.670654296875,-0.24920654296875,38.0625,54.6875,73.5,-9.01,1.5,-3.55,moving,4
6.37,1145245.345594627,29,3,3,3,0,-35.11,5.99,-7.8,-26.11,4.51,-4.19,40.3125,25.0,2.1875,0.5032958984375,0.48382568359375,0.6707763671875,-0.25042724609375,38.0625,54.6875,73.5,-8.99,1.48,-3.6,moving,4
6.38,1145245.345594627,29,3,3,3,0,-30.46,3.37,-6.14,-21.5,1.89,-2.42,43.125,61.4375,17.0625,0.49822998046875,0.488037109375,0.67181396484375,-0.24957275390625,38.0625,54.6875,73.5,-8.95,1.48,-3.71,moving,4
6.39,1145245.376338646,29,3,3,3,0,-26.94,4.86,-8.03,-17.98,3.35,-4.34,-3.25,-15.0,17.4375,0.4996337890625,0.48858642578125,0.67047119140625,-0.249267578125,38.0625,54.6875,73.5,-8.95,1.5,-3.69,moving,4
6.4,1145245.376338646,29,3,3,3,0,-24.85,5.79,-10.71,-15.86,4.24,-7.13,-36.4375,-63.375,12.625,0.50518798828125,0.486328125,0.66790771484375,-0.249267578125,38.0625,54.6875,73.5,-8.99,1.55,-3.58,moving,4
6.41,1145245.391615827,29,3,3,3,0,-23.86,3.33,-9.75,-14.86,1.75,-6.2,-23.1875,-16.5,10.6875,0.50738525390625,0.485595703125,0.667236328125,-0.2481689453125,38.5,57.25,73.5,-9.0,1.58,-3.55,moving,4
6.42,1145245.391615827,29,3,3,3,0,-22.34,2.99,-7.31,-13.37,1.39,-3.69,-4.5,48.0625,6.75,0.5048828125,0.48681640625,0.669189453125,-0.24554443359375,38.5,57.25,73.5,-8.97,1.59,-3.62,moving,4
6.43,1145245.406816836,29,3,3,3,0,-20.15,2.07,-6.18,-11.22,0.46,-2.46,-1.25,61.8125,2.5,0.50140380859375,0.48822021484375,0.67181396484375,-0.24273681640625,38.5,57.25,73.5,-8.93,1.6,-3.72,moving,4
6.44,1145245.406816836,29,3,3,3,0,-18.09,2.1,-5.23,-9.2,0.5,-1.42,-1.5,58.75,-0.9375,0.49798583984375,0.48931884765625,0.6744384765625,-0.240234375,38.5,57.25,73.5,-8.89,1.6,-3.81,moving,4
6.45,1145245.421783023,29,3,3,3,0,-13.63,1.36,-3.92,-4.79,-0.23,0.0,-0.875,79.25,-1.9375,0.49334716796875,0.4908447265625,0.677978515625,-0.23687744140625,38.5,57.25,73.5,-8.83,1.59,-3.93,moving,4
6.46,1145245.421783023,29,3,3,3,0,-11.69,1.48,-3.03,-2.93,-0.11,1.06,0.6875,109.5,-1.75,0.48675537109375,0.49298095703125,0.68267822265625,-0.2322998046875,38.75,55.75,71.0625,-8.76,1.59,-4.1,moving,4
6.47,1145245.454044294,29,3,3,3,0,-9.6,1.63,-2.2,-0.94,0.04,2.1,2.625,134.625,-1.0,0.47857666015625,0.4957275390625,0.6883544921875,-0.2266845703125,38.75,55.75,71.0625,-8.66,1.59,-4.3,moving,4
6.48,1145245.454044294,29,3,3,3,0,-7.5,1.43,-1.32,1.04,-0.15,3.21,2.3125,159.9375,-0.5625,0.4688720703125,0.4989013671875,0.6949462890625,-0.21990966796875,38.75,55.75,71.0625,-8.54,1.59,-4.54,moving,4
6.49,1145245.465922956,29,3,3,3,0,-3.35,0.25,-0.54,5.03,-1.33,4.26,-0.0625,178.0625,1.0,0.45806884765625,0.5023193359375,0.70208740234375,-0.21209716796875,38.75,55.75,71.0625,-8.39,1.59,-4.8,moving,4
6.5,1145245.465922956,29,3,3,3,0,-1.92,-0.27,-0.37,6.31,-1.87,4.69,-2.0,181.8125,5.875,0.44708251953125,0.505859375,0.70904541015625,-0.20379638671875,38.75,55.75,71.0625,-8.23,1.6,-5.07,moving,4
6.51,1145245.480965396,29,3,3,3,0,0.13,-0.97,-0.01,8.21,-2.58,5.3,3.875,170.75,11.4375,0.4365234375,0.50970458984375,0.71502685546875,-0.196044921875,38.375,55.0625,73.375,-8.08,1.61,-5.31,moving,4
6.52,1145245.480965396,29,3,3,3,0,0.13,-0.97,-0.01,8.21,-2.58,5.3,3.875,170.75,11.4375,0.4365234375,0.50970458984375,0.71502685546875,-0.196044921875,38.375,55.0625,73.375,-8.08,1.61,-5.31,moving,4
6.52,1145245.496701968,29,3,3,3,0,2.79,-1.56,-0.1,10.71,-3.18,5.45,15.9375,168.125,17.5,0.42559814453125,0.51422119140625,0.72027587890625,-0.18890380859375,38.375,55.0625,73.375,-7.91,1.62,-5.55,moving,4
6.53,1145245.496701968,29,3,3,3,0,5.58,-1.94,0.15,13.33,-3.56,5.93,34.1875,163.4375,19.25,0.4140625,0.51934814453125,0.724853515625,-0.1829833984375,38.375,55.0625,73.375,-7.75,1.61,-5.78,moving,4
6.54,1145245.526423119,29,3,3,3,0,6.92,-2.46,0.33,14.5,-4.05,6.35,47.5,165.4375,15.4375,0.40167236328125,0.52459716796875,0.729248046875,-0.17791748046875,38.375,55.0625,73.375,-7.57,1.58,-6.02,moving,4
6.55,1145245.526423119,29,3,3,3,0,7.53,-2.16,0.76,14.94,-3.7,6.99,60.875,143.5625,11.125,0.389892578125,0.52960205078125,0.7327880859375,-0.1748046875,38.375,55.0625,73.375,-7.41,1.53,-6.22,moving,4
6.56,1145245.540141909,29,3,3,3,0,8.3,-2.23,4.32,15.64,-3.71,10.65,53.6875,72.125,-5.625,0.3826904296875,0.53216552734375,0.734619140625,-0.17510986328125,36.875,54.0,76.0625,-7.34,1.47,-6.33,moving,4
6.57,1145245.540141909,29,3,3,3,0,8.5,-1.9,5.99,15.91,-3.28,12.27,40.625,-51.1875,-41.125,0.38348388671875,0.53009033203125,0.73419189453125,-0.18145751953125,36.875,54.0,76.0625,-7.4,1.37,-6.27,moving,4
6.58,1145245.555119652,29,3,3,3,0,8.91,-1.44,8.24,16.54,-2.67,14.28,29.5625,-186.1875,-81.4375,0.39263916015625,0.5228271484375,0.73114013671875,-0.1947021484375,36.875,54.0,76.0625,-7.62,1.23,-6.03,moving,4
6.59,1145245.555119652,29,3,3,3,0,8.5,-0.71,8.32,16.33,-1.85,14.12,-11.0625,-181.25,-77.375,0.40338134765625,0.51434326171875,0.72857666015625,-0.20489501953125,36.875,54.0,76.0625,-7.83,1.14,-5.79,moving,4
6.6,1145245.602262311,29,3,3,3,0,0.94,0.58,4.8,8.9,-0.53,10.41,-26.75,-125.25,-37.375,0.41180419921875,0.50872802734375,0.72625732421875,-0.2100830078125,36.875,54.0,76.0625,-7.96,1.11,-5.61,moving,4
6.61,1145245.602262311,29,3,3,3,0,-0.66,0.72,3.53,7.39,-0.38,9.01,-26.875,-92.25,-25.9375,0.41839599609375,0.50439453125,0.72454833984375,-0.21343994140625,36.375,55.75,77.25,-8.05,1.1,-5.48,moving,4
6.62,1145245.63266258,29,3,3,3,0,-0.64,1.19,1.95,7.44,0.08,7.37,-45.9375,-32.75,-27.1875,0.4219970703125,0.5003662109375,0.72540283203125,-0.21295166015625,36.375,55.75,77.25,-8.09,1.11,-5.42,moving,4
6.63,1145245.63266258,29,3,3,3,0,-0.06,1.34,0.28,8.03,0.21,5.7,-59.125,2.4375,-26.125,0.42388916015625,0.49658203125,0.72772216796875,-0.2100830078125,36.375,55.75,77.25,-8.09,1.13,-5.41,moving,4
6.64,1145245.63826162,29,3,3,3,0,0.2,1.05,-1.13,8.3,-0.1,4.27,-66.0625,3.5625,-24.875,0.42608642578125,0.49261474609375,0.7301025390625,-0.2066650390625,36.375,55.75,77.25,-8.09,1.15,-5.4,moving,4
6.65,1145245.63826162,29,3,3,3,0,-0.3,1.01,-1.92,7.79,-0.18,3.46,-78.125,1.8125,-21.9375,0.428955078125,0.48834228515625,0.7325439453125,-0.202392578125,36.375,55.75,77.25,-8.1,1.2,-5.39,moving,4
6.66,1145245.643555402,29,3,3,3,0,-0.63,0.85,-2.05,7.48,-0.4,3.29,-90.3125,-16.4375,-19.125,0.4334716796875,0.4833984375,0.7342529296875,-0.19805908203125,37.1875,55.0625,76.75,-8.12,1.25,-5.35,moving,4
6.67,1145245.643555402,29,3,3,3,0,-1.48,0.77,-2.2,6.67,-0.54,3.06,-93.875,-35.4375,-16.1875,0.439453125,0.47821044921875,0.7352294921875,-0.19415283203125,37.1875,55.0625,76.75,-8.15,1.32,-5.27,moving,4
6.68,1145245.661578148,29,3,3,3,0,-3.97,1.14,-4.02,4.23,-0.25,1.15,-96.0625,-50.125,-11.1875,0.44647216796875,0.472900390625,0.7353515625,-0.19049072265625,37.1875,55.0625,76.75,-8.2,1.39,-5.18,moving,4
6.69,1145245.661578148,29,3,3,3,0,-6.19,1.91,-5.75,2.07,0.45,-0.69,-93.5625,-73.375,-12.0625,0.454833984375,0.46722412109375,0.7344970703125,-0.18798828125,37.1875,55.0625,76.75,-8.27,1.45,-5.05,moving,4
6.7,1145245.676656192,29,3,3,3,0,-8.68,2.53,-10.34,-0.33,1.04,-5.41,-54.75,-76.75,-14.625,0.46173095703125,0.46282958984375,0.73291015625,-0.188232421875,37.1875,55.0625,76.75,-8.34,1.48,-4.93,moving,4
6.71,1145245.676656192,29,3,3,3,0,-11.45,3.07,-10.79,-2.99,1.62,-6.04,26.4375,-132.25,-10.6875,0.4688720703125,0.46099853515625,0.7275390625,-0.1956787109375,35.75,53.6875,78.6875,-8.45,1.44,-4.74,moving,4
6.72,1145245.720699893,29,3,3,3,0,-11.55,1.6,-5.19,-2.97,0.19,-0.65,43.9375,-141.5,-1.75,0.47601318359375,0.46026611328125,0.72100830078125,-0.20416259765625,35.75,53.6875,78.6875,-8.57,1.4,-4.54,moving,4
6.73,1145245.720699893,29,3,3,3,0,-17.19,2.49,-2.17,-8.53,1.11,2.2,61.4375,-116.125,14.5625,0.4810791015625,0.46160888671875,0.7144775390625,-0.21209716796875,35.75,53.6875,78.6875,-8.66,1.38,-4.38,moving,4
6.74,1145245.725477481,29,3,3,3,0,-27.15,4.46,-6.53,-18.41,3.12,-2.27,90.0625,-98.9375,14.625,0.48388671875,0.4644775390625,0.7080078125,-0.2210693359375,35.75,53.6875,78.6875,-8.73,1.33,-4.25,moving,4
6.75,1145245.725477481,29,3,3,3,0,-31.18,4.84,-16.08,-22.34,3.53,-12.04,40.875,-146.8125,-1.375,0.4912109375,0.4632568359375,0.70098876953125,-0.22955322265625,35.75,53.6875,78.6875,-8.83,1.3,-4.04,moving,4
6.76,1145245.734951032,29,3,3,3,0,-31.67,3.18,-14.33,-22.72,1.85,-10.55,-56.9375,-156.625,-7.875,0.50286865234375,0.45709228515625,0.6956787109375,-0.23272705078125,36.0625,53.25,77.0625,-8.94,1.33,-3.78,moving,4
6.77,1145245.734951032,29,3,3,3,0,-36.83,6.12,-14.26,-27.8,4.79,-10.68,-18.375,-128.125,-11.625,0.51116943359375,0.45294189453125,0.69085693359375,-0.23724365234375,36.0625,53.25,77.0625,-9.03,1.32,-3.57,moving,4
6.78,1145245.751324242,29,3,3,3,0,-36.83,6.12,-14.26,-27.8,4.79,-10.68,-18.375,-128.125,-11.625,0.51116943359375,0.45294189453125,0.69085693359375,-0.23724365234375,36.0625,53.25,77.0625,-9.03,1.32,-3.57,moving,4
6.78,1145245.751324242,29,3,3,3,0,-39.51,4.9,-11.32,-30.44,3.59,-7.83,12.3125,-57.375,-6.1875,0.51397705078125,0.45196533203125,0.68829345703125,-0.24053955078125,36.0625,53.25,77.0625,-9.07,1.3,-3.49,moving,4
6.79,1145245.765882063,29,3,3,3,0,-34.18,3.8,-12.27,-25.1,2.5,-8.8,1.1875,-13.9375,-3.1875,0.51470947265625,0.4515380859375,0.687744140625,-0.24127197265625,36.0625,53.25,77.0625,-9.07,1.3,-3.46,moving,4
6.8,1145245.765882063,29,3,3,3,0,-27.86,3.97,-13.16,-18.78,2.67,-9.7,-18.5625,-3.5,-10.375,0.51544189453125,0.449951171875,0.6883544921875,-0.24078369140625,36.0625,53.25,77.0625,-9.08,1.29,-3.45,moving,4
6.81,1145245.780619082,29,3,3,3,0,-22.88,3.43,-12.59,-13.81,2.13,-9.07,-15.1875,41.0625,-9.5,0.51336669921875,0.4495849609375,0.69091796875,-0.23870849609375,37.5625,55.0625,74.6875,-9.06,1.29,-3.51,moving,4
6.82,1145245.780619082,29,3,3,3,0,-18.74,1.92,-10.67,-9.73,0.63,-7.01,-8.125,86.6875,-8.3125,0.50830078125,0.45050048828125,0.69525146484375,-0.23516845703125,37.5625,55.0625,74.6875,-9.0,1.28,-3.65,moving,4
6.83,1145245.827398054,29,3,3,3,0,-13.1,1.09,-7.86,-4.16,-0.17,-4.04,-3.875,108.9375,-11.25,0.5015869140625,0.45184326171875,0.7005615234375,-0.23114013671875,37.5625,55.0625,74.6875,-8.94,1.26,-3.82,moving,4
6.84,1145245.827398054,29,3,3,3,0,-10.69,0.52,-6.48,-1.83,-0.72,-2.47,-5.0,119.25,-14.5625,0.494140625,0.453125,0.7064208984375,-0.22674560546875,37.5625,55.0625,74.6875,-8.86,1.24,-4.0,moving,4
6.85,1145245.832928409,29,3,3,3,0,-8.81,-0.01,-5.32,-0.04,-1.24,-1.11,-6.25,129.5,-19.25,0.48602294921875,0.45416259765625,0.712890625,-0.2220458984375,37.5625,55.0625,74.6875,-8.77,1.22,-4.2,moving,4
6.86,1145245.832928409,29,3,3,3,0,-7.01,-0.32,-4.37,1.65,-1.51,0.03,-2.0,137.75,-19.6875,0.47711181640625,0.45550537109375,0.719482421875,-0.21734619140625,37.1875,54.0,74.6875,-8.67,1.19,-4.41,moving,4
6.87,1145245.840650007,29,3,3,3,0,-3.56,-0.86,-2.73,4.99,-2.04,1.89,-2.5625,144.875,-16.375,0.4677734375,0.45709228515625,0.72613525390625,-0.21209716796875,37.1875,54.0,74.6875,-8.56,1.17,-4.63,moving,4
6.88,1145245.840650007,29,3,3,3,0,-2.52,-0.64,-1.83,5.92,-1.81,3.01,-9.0625,143.4375,-13.125,0.458740234375,0.45849609375,0.732666015625,-0.206298828125,37.1875,54.0,74.6875,-8.44,1.16,-4.84,moving,4
6.89,1145245.871333682,29,3,3,3,0,-1.81,-0.07,-0.81,6.52,-1.23,4.21,-14.375,127.0625,-10.0,0.45098876953125,0.45953369140625,0.73834228515625,-0.20068359375,37.1875,54.0,74.6875,-8.33,1.15,-5.02,moving,4
6.9,1145245.871333682,29,3,3,3,0,-0.44,0.81,0.84,7.79,-0.34,6.03,-18.375,117.1875,-7.1875,0.44403076171875,0.46038818359375,0.7435302734375,-0.195068359375,37.1875,54.0,74.6875,-8.23,1.16,-5.19,moving,4
6.91,1145245.901648949,29,3,3,3,0,0.67,1.38,1.76,8.8,0.2,7.12,-23.6875,120.625,-7.0,0.43701171875,0.46099853515625,0.74884033203125,-0.18896484375,35.75,54.5,77.0,-8.12,1.17,-5.36,moving,4
6.92,1145245.901648949,29,3,3,3,0,2.02,1.18,2.72,10.02,0.0,8.28,-25.1875,142.25,-4.25,0.42864990234375,0.46209716796875,0.75482177734375,-0.1817626953125,35.75,54.5,77.0,-7.99,1.19,-5.55,moving,4
6.93,1145245.907071638,29,3,3,3,0,3.37,0.99,3.47,11.22,-0.2,9.22,-9.25,144.0625,0.3125,0.41949462890625,0.4639892578125,0.76025390625,-0.17529296875,35.75,54.5,77.0,-7.85,1.2,-5.75,moving,4
6.94,1145245.907071638,29,3,3,3,0,5.61,1.12,5.43,13.34,-0.06,11.34,19.75,109.0625,5.125,0.4114990234375,0.4666748046875,0.76373291015625,-0.1719970703125,35.75,54.5,77.0,-7.73,1.19,-5.9,moving,4
6.95,1145245.930323713,29,3,3,3,0,6.34,1.74,6.11,14.03,0.59,12.09,49.0,47.0,12.1875,0.40655517578125,0.469970703125,0.76416015625,-0.17291259765625,35.75,54.5,77.0,-7.68,1.15,-5.97,moving,4
6.96,1145245.930323713,29,3,3,3,0,7.15,2.24,6.99,14.86,1.12,12.95,54.0,-24.5625,12.625,0.40618896484375,0.47235107421875,0.761962890625,-0.1771240234375,33.1875,51.875,77.375,-7.71,1.11,-5.95,moving,4
6.97,1145245.946238427,29,3,3,3,0,7.05,2.25,7.73,14.84,1.17,13.59,44.8125,-79.0,6.0,0.40966796875,0.47308349609375,0.7581787109375,-0.18310546875,33.1875,51.875,77.375,-7.79,1.07,-5.85,moving,4
6.98,1145245.946238427,29,3,3,3,0,2.67,0.82,6.21,10.53,-0.23,11.97,25.9375,-77.25,0.9375,0.4136962890625,0.47283935546875,0.75494384765625,-0.18798828125,33.1875,51.875,77.375,-7.86,1.05,-5.75,moving,4
6.99,1145245.975742455,29,3,3,3,0,0.88,0.23,4.4,8.82,-0.81,10.06,10.5,-70.5,-0.1875,0.41790771484375,0.4720458984375,0.752197265625,-0.19158935546875,33.1875,51.875,77.375,-7.93,1.04,-5.66,moving,4
7.0,1145245.975742455,29,3,3,3,0,0.24,0.07,2.57,8.25,-0.96,8.13,-2.3125,-72.8125,0.0,0.42279052734375,0.47076416015625,0.74957275390625,-0.19439697265625,33.1875,51.875,77.375,-8.01,1.04,-5.55,moving,4
7.01,1145245.990741438,29,3,3,3,0,-0.28,-0.18,1.01,7.79,-1.25,6.46,-19.25,-76.0,1.5,0.4285888671875,0.4688720703125,0.74700927734375,-0.1961669921875,32.5625,52.875,76.875,-8.08,1.06,-5.44,moving,4
7.02,1145245.990741438,29,3,3,3,0,-1.42,-1.6,-0.29,6.73,-2.71,5.02,-36.125,-83.125,4.9375,0.43560791015625,0.46636962890625,0.7442626953125,-0.197021484375,32.5625,52.875,76.875,-8.16,1.1,-5.32,moving,4
7.03,1145246.012930077,29,3,3,3,0,-1.72,-1.94,-1.11,6.51,-3.1,4.08,-41.75,-84.0625,10.1875,0.44293212890625,0.4639892578125,0.7413330078125,-0.1973876953125,32.5625,52.875,76.875,-8.23,1.16,-5.19,moving,4
7.04,1145246.012930077,29,3,3,3,0,-2.23,-1.74,-2.0,6.07,-2.96,3.06,-44.375,-79.4375,11.125,0.4500732421875,0.46160888671875,0.738525390625,-0.197265625,32.5625,52.875,76.875,-8.3,1.21,-5.07,moving,4
7.05,1145246.020795189,29,3,3,3,0,-2.23,-1.74,-2.0,6.07,-2.96,3.06,-44.375,-79.4375,11.125,0.4500732421875,0.46160888671875,0.738525390625,-0.197265625,32.5625,52.875,76.875,-8.3,1.21,-5.07,moving,4
7.05,1145246.020795189,29,3,3,3,0,-2.85,-0.72,-3.34,5.51,-2.0,1.6,-48.75,-78.625,11.1875,0.457275390625,0.45904541015625,0.73583984375,-0.19683837890625,32.5625,52.875,76.875,-8.37,1.27,-4.94,moving,4
7.06,1145246.05056643,29,3,3,3,0,-3.31,-0.51,-4.41,5.12,-1.85,0.4,-48.0625,-81.8125,13.3125,0.46466064453125,0.45654296875,0.7327880859375,-0.196533203125,34.0625,53.25,78.0625,-8.43,1.33,-4.81,moving,4
7.07,1145246.05056643,29,3,3,3,0,-4.28,0.07,-7.06,4.21,-1.31,-2.37,-31.375,-77.1875,14.125,0.4710693359375,0.454833984375,0.7296142578125,-0.197021484375,34.0625,53.25,78.0625,-8.49,1.38,-4.69,moving,4
7.08,1145246.057852766,29,3,3,3,0,-4.7,1.5,-10.54,3.82,0.11,-5.91,25.75,-42.875,16.6875,0.47308349609375,0.45623779296875,0.72674560546875,-0.19964599609375,34.0625,53.25,78.0625,-8.53,1.38,-4.63,moving,4
7.09,1145246.057852766,29,3,3,3,0,-7.11,2.1,-4.43,1.42,0.71,0.16,30.4375,-26.625,18.125,0.473876953125,0.45819091796875,0.724365234375,-0.201904296875,34.0625,53.25,78.0625,-8.54,1.39,-4.6,moving,4
7.1,1145246.081798485,29,3,3,3,0,-9.47,2.3,-2.43,-0.9,0.91,2.11,11.375,-39.5,9.1875,0.47607421875,0.45855712890625,0.72216796875,-0.20379638671875,34.0625,53.25,78.0625,-8.57,1.39,-4.54,moving,4
7.11,1145246.081798485,29,3,3,3,0,-12.15,2.3,-3.54,-3.54,0.93,0.93,8.9375,-43.125,-5.4375,0.47833251953125,0.45782470703125,0.720458984375,-0.206298828125,36.5625,52.5625,76.875,-8.61,1.37,-4.48,moving,4
7.12,1145246.095549421,29,3,3,3,0,-14.85,2.16,-5.14,-6.17,0.81,-0.77,0.5625,-77.0,-20.0,0.4827880859375,0.45513916015625,0.718017578125,-0.21026611328125,36.5625,52.5625,76.875,-8.67,1.34,-4.36,moving,4
7.13,1145246.095549421,29,3,3,3,0,-25.52,2.45,-9.92,-16.71,1.13,-5.81,-20.4375,-165.6875,-30.9375,0.49334716796875,0.44927978515625,0.7125244140625,-0.21685791015625,36.5625,52.5625,76.875,-8.8,1.31,-4.11,moving,4
7.14,1145246.157956241,29,3,3,3,0,-28.59,1.92,-12.81,-19.61,0.61,-9.09,-64.0625,-246.875,-32.5625,0.510498046875,0.439697265625,0.7042236328125,-0.223876953125,36.5625,52.5625,76.875,-8.98,1.31,-3.71,moving,4
7.15,1145246.157956241,29,3,3,3,0,-31.77,1.46,-16.64,-22.66,0.14,-13.24,-94.0625,-184.875,-32.0,0.52471923828125,0.42987060546875,0.69891357421875,-0.2265625,36.5625,52.5625,76.875,-9.1,1.31,-3.39,moving,4
7.16,1145246.163942243,29,3,3,3,0,-38.12,2.66,-15.17,-29.0,1.37,-11.82,-49.0625,-20.3125,-37.1875,0.527099609375,0.4249267578125,0.70037841796875,-0.22607421875,35.875,53.6875,76.1875,-9.12,1.28,-3.35,moving,4
7.17,1145246.163942243,29,3,3,3,0,-38.16,6.23,-7.95,-29.06,4.99,-4.52,-21.375,48.0625,-40.75,0.52410888671875,0.42242431640625,0.7044677734375,-0.224853515625,35.875,53.6875,76.1875,-9.1,1.23,-3.42,moving,4
7.18,1145246.169421003,29,3,3,3,0,-32.12,4.63,-7.25,-23.03,3.42,-3.76,-34.9375,44.25,-30.875,0.5220947265625,0.41973876953125,0.70831298828125,-0.22247314453125,35.875,53.6875,76.1875,-9.08,1.2,-3.48,moving,4
7.19,1145246.169421003,29,3,3,3,0,-29.37,4.57,-8.15,-20.28,3.38,-4.66,-39.875,6.4375,-22.75,0.522705078125,0.4166259765625,0.710205078125,-0.2208251953125,35.875,53.6875,76.1875,-9.08,1.19,-3.49,moving,4
7.2,1145246.174717756,29,3,3,3,0,-26.81,6.27,-9.39,-17.71,5.09,-5.93,-29.8125,-14.8125,-21.0,0.5242919921875,0.4136962890625,0.71087646484375,-0.220458984375,35.875,53.6875,76.1875,-9.09,1.18,-3.46,moving,4
7.21,1145246.174717756,29,3,3,3,0,-23.62,5.79,-9.44,-14.54,4.63,-5.94,-5.0625,24.8125,-17.0625,0.52264404296875,0.41290283203125,0.71270751953125,-0.22003173828125,37.0,52.875,76.1875,-9.08,1.15,-3.49,moving,4
7.22,1145246.200554101,29,3,3,3,0,-20.86,5.39,-7.71,-11.81,4.26,-4.09,15.0,72.8125,-8.8125,0.51739501953125,0.4144287109375,0.716064453125,-0.21875,37.0,52.875,76.1875,-9.04,1.13,-3.61,moving,4
7.23,1145246.200554101,29,3,3,3,0,-18.32,4.71,-6.36,-9.34,3.6,-2.58,34.125,102.875,-0.1875,0.50970458984375,0.41790771484375,0.72003173828125,-0.2171630859375,37.0,52.875,76.1875,-8.97,1.11,-3.78,moving,4
7.24,1145246.215668277,29,3,3,3,0,-13.19,4.13,-3.59,-4.29,3.04,0.37,43.875,116.375,9.25,0.5009765625,0.422607421875,0.72393798828125,-0.21527099609375,37.0,52.875,76.1875,-8.89,1.09,-3.97,moving,4
7.25,1145246.215668277,29,3,3,3,0,-10.46,3.76,-2.61,-1.66,2.67,1.56,43.4375,128.125,19.125,0.4915771484375,0.4281005859375,0.72796630859375,-0.21240234375,37.0,52.875,76.1875,-8.8,1.09,-4.18,moving,4
7.26,1145246.23059711,29,3,3,3,0,-7.99,3.17,-2.49,0.68,2.06,1.91,42.5625,146.4375,26.4375,0.481201171875,0.43426513671875,0.732421875,-0.20849609375,37.375,52.5625,76.875,-8.68,1.1,-4.41,moving,4
7.27,1145246.23059711,29,3,3,3,0,-5.63,2.7,-1.91,2.92,1.58,2.74,40.25,160.4375,31.25,0.469970703125,0.4407958984375,0.73712158203125,-0.20367431640625,37.375,52.5625,76.875,-8.55,1.11,-4.66,moving,4
7.28,1145246.308085554,29,3,3,3,0,-2.7,1.64,-0.5,5.7,0.5,4.41,35.75,167.25,35.6875,0.45843505859375,0.447509765625,0.74188232421875,-0.19805908203125,37.375,52.5625,76.875,-8.4,1.14,-4.91,moving,4
7.29,1145246.308085554,29,3,3,3,0,-1.18,0.97,0.16,7.06,-0.19,5.34,32.125,176.0625,39.6875,0.4464111328125,0.454345703125,0.7467041015625,-0.191650390625,37.375,52.5625,76.875,-8.24,1.17,-5.17,moving,4
7.3,1145246.314188785,29,3,3,3,0,-1.18,0.97,0.16,7.06,-0.19,5.34,32.125,176.0625,39.6875,0.4464111328125,0.454345703125,0.7467041015625,-0.191650390625,37.375,52.5625,76.875,-8.24,1.17,-5.17,moving,4
7.3,1145246.314188785,29,3,3,3,0,0.59,0.3,0.7,8.67,-0.89,6.14,36.125,175.3125,42.125,0.43426513671875,0.46136474609375,0.75115966796875,-0.18536376953125,37.375,52.5625,76.875,-8.07,1.19,-5.43,moving,4
7.31,1145246.319130517,29,3,3,3,0,2.6,-0.26,0.69,10.5,-1.47,6.37,44.25,171.25,42.3125,0.421875,0.468505859375,0.755126953125,-0.17974853515625,34.0625,52.875,77.1875,-7.9,1.21,-5.68,moving,4
7.32,1145246.319130517,29,3,3,3,0,4.16,-0.97,0.42,11.9,-2.19,6.33,50.75,156.6875,36.75,0.4100341796875,0.4752197265625,0.75848388671875,-0.17529296875,34.0625,52.875,77.1875,-7.73,1.21,-5.9,moving,4
7.33,1145246.323816674,29,3,3,3,0,4.75,-1.77,1.97,12.34,-2.99,8.06,41.5,131.8125,29.625,0.4000244140625,0.48065185546875,0.76123046875,-0.1715087890625,34.0625,52.875,77.1875,-7.58,1.21,-6.09,moving,4
7.34,1145246.323816674,29,3,3,3,0,5.45,-2.33,3.46,12.93,-3.53,9.69,35.375,96.9375,25.25,0.39251708984375,0.4849853515625,0.76300048828125,-0.16888427734375,34.0625,52.875,77.1875,-7.48,1.2,-6.22,moving,4
7.35,1145246.335316755,29,3,3,3,0,6.06,-3.12,4.74,13.48,-4.32,11.04,36.375,47.9375,26.0625,0.38818359375,0.48870849609375,0.76300048828125,-0.16839599609375,34.0625,52.875,77.1875,-7.42,1.2,-6.29,moving,4
7.36,1145246.335316755,29,3,3,3,0,7.72,-3.18,6.59,15.16,-4.38,12.86,28.4375,-24.4375,22.4375,0.388916015625,0.49078369140625,0.7607421875,-0.17059326171875,33.0,53.6875,76.375,-7.44,1.19,-6.26,moving,4
7.37,1145246.443367943,29,3,3,3,0,8.36,-3.62,7.3,15.92,-4.81,13.43,15.6875,-109.0,5.0625,0.39556884765625,0.489990234375,0.756591796875,-0.17608642578125,33.0,53.6875,76.375,-7.56,1.18,-6.12,moving,4
7.38,1145246.443367943,29,3,3,3,0,7.4,-3.74,6.85,15.07,-4.91,12.84,3.0,-105.3125,-11.3125,0.4022216796875,0.48773193359375,0.75335693359375,-0.18121337890625,33.0,53.6875,76.375,-7.67,1.17,-5.98,moving,4
7.39,1145246.448969099,29,3,3,3,0,0.86,-1.64,4.62,8.6,-2.81,10.53,-13.125,-58.5625,-9.875,0.406494140625,0.48565673828125,0.75189208984375,-0.18316650390625,33.0,53.6875,76.375,-7.73,1.17,-5.9,moving,4
7.4,1145246.448969099,29,3,3,3,0,-0.52,-1.04,3.12,7.25,-2.23,8.98,-23.25,-32.75,-8.125,0.40948486328125,0.4837646484375,0.75146484375,-0.18328857421875,33.0,53.6875,76.375,-7.77,1.18,-5.85,moving,4
7.41,1145246.457273949,29,3,3,3,0,-1.2,-0.75,1.12,6.58,-1.96,6.95,-33.4375,-14.5,-8.5,0.4117431640625,0.4818115234375,0.7518310546875,-0.18206787109375,34.0625,53.6875,78.5625,-7.79,1.2,-5.83,moving,4
7.42,1145246.457273949,29,3,3,3,0,-0.92,-0.74,-0.77,6.89,-1.98,5.01,-46.0625,-23.9375,-6.9375,0.4151611328125,0.47930908203125,0.751953125,-0.1802978515625,34.0625,53.6875,78.5625,-7.81,1.24,-5.78,moving,4
7.43,1145246.464737165,29,3,3,3,0,-1.22,-0.87,-1.63,6.63,-2.17,4.09,-62.625,-36.875,-4.5625,0.42010498046875,0.47613525390625,0.75177001953125,-0.1778564453125,34.0625,53.6875,78.5625,-7.85,1.3,-5.72,moving,4
7.44,1145246.464737165,29,3,3,3,0,-1.66,-0.85,-2.9,6.22,-2.21,2.75,-69.75,-33.4375,-0.9375,0.4251708984375,0.47296142578125,0.75164794921875,-0.17474365234375,34.0625,53.6875,78.5625,-7.88,1.36,-5.66,moving,4
7.45,1145246.471260522,29,3,3,3,0,-2.09,-0.8,-4.04,5.84,-2.24,1.51,-77.1875,-55.375,2.375,0.43206787109375,0.4693603515625,0.75067138671875,-0.171875,34.0625,53.6875,78.5625,-7.94,1.44,-5.56,moving,4
7.46,1145246.471260522,29,3,3,3,0,-1.91,-0.67,-4.94,6.11,-2.21,0.46,-88.1875,-92.5625,3.9375,0.4417724609375,0.46490478515625,0.748291015625,-0.16973876953125,34.0625,54.0,77.375,-8.03,1.53,-5.41,moving,4
7.47,1145246.476633365,29,3,3,3,0,-4.03,0.62,-6.15,4.06,-0.98,-0.85,-72.3125,-70.125,5.1875,0.4493408203125,0.46136474609375,0.74639892578125,-0.16766357421875,34.0625,54.0,77.375,-8.09,1.61,-5.29,moving,4
7.48,1145246.476633365,29,3,3,3,0,-3.75,1.67,-5.27,4.33,0.03,0.0,-11.5,-3.9375,13.5,0.45025634765625,0.46173095703125,0.745849609375,-0.16656494140625,34.0625,54.0,77.375,-8.09,1.64,-5.28,moving,4
7.49,1145246.481963606,29,3,3,3,0,-4.34,2.02,-3.19,3.73,0.37,2.12,20.625,14.75,20.25,0.44879150390625,0.464111328125,0.74530029296875,-0.16650390625,34.0625,54.0,77.375,-8.07,1.65,-5.31,moving,4
7.5,1145246.481963606,29,3,3,3,0,-4.67,2.53,-2.36,3.4,0.87,2.94,23.0,-8.0625,21.8125,0.44866943359375,0.46630859375,0.7437744140625,-0.16748046875,34.0625,54.0,77.375,-8.07,1.66,-5.3,moving,4
7.51,1145246.502050357,29,3,3,3,0,-7.1,4.9,-4.79,1.0,3.22,0.46,17.4375,-40.4375,20.5625,0.450927734375,0.46771240234375,0.7410888671875,-0.16943359375,35.5,51.0625,78.5,-8.1,1.67,-5.25,moving,4
7.52,1145246.502050357,29,3,3,3,0,-11.13,5.88,-8.07,-2.93,4.19,-2.95,6.5625,-96.8125,15.0,0.45709228515625,0.46746826171875,0.73651123046875,-0.1732177734375,35.5,51.0625,78.5,-8.19,1.68,-5.11,moving,4
7.53,1145246.507513858,29,3,3,3,0,-13.51,5.74,-8.3,-5.17,4.04,-3.44,4.75,-181.1875,10.3125,0.4686279296875,0.465576171875,0.72869873046875,-0.18048095703125,35.5,51.0625,78.5,-8.34,1.69,-4.85,moving,4
7.54,1145246.507513858,29,3,3,3,0,-17.92,7.01,-11.51,-9.43,5.31,-6.92,10.8125,-186.25,10.0625,0.48016357421875,0.463623046875,0.720458984375,-0.18829345703125,35.5,51.0625,78.5,-8.49,1.7,-4.58,moving,4
7.55,1145246.533303165,29,3,3,3,0,-25.02,8.26,-12.9,-16.42,6.56,-8.52,34.375,-144.125,13.75,0.488037109375,0.46356201171875,0.71319580078125,-0.1956787109375,35.5,51.0625,78.5,-8.6,1.69,-4.38,moving,4
7.56,1145246.533303165,29,3,3,3,0,-25.1,6.57,-12.86,-16.41,4.89,-8.64,33.0,-113.375,1.875,0.49371337890625,0.463134765625,0.70770263671875,-0.20220947265625,35.75,53.25,78.5625,-8.69,1.67,-4.22,moving,4
7.57,1145246.562945173,29,3,3,3,0,-25.1,6.57,-12.86,-16.41,4.89,-8.64,33.0,-113.375,1.875,0.49371337890625,0.463134765625,0.70770263671875,-0.20220947265625,35.75,53.25,78.5625,-8.69,1.67,-4.22,moving,4
7.57,1145246.562945173,29,3,3,3,0,-27.69,4.67,-12.95,-18.92,3.01,-8.9,20.125,-111.25,0.625,0.49981689453125,0.4620361328125,0.7025146484375,-0.20794677734375,35.75,53.25,78.5625,-8.77,1.66,-4.05,moving,4
7.58,1145246.570110945,29,3,3,3,0,-38.93,5.79,-13.03,-30.08,4.12,-9.15,13.5,-121.375,8.875,0.5068359375,0.4609375,0.696533203125,-0.2132568359375,35.75,53.25,78.5625,-8.85,1.66,-3.87,moving,4
7.59,1145246.570110945,29,3,3,3,0,-39.5,3.75,-15.64,-30.58,2.06,-11.94,-0.25,-115.25,12.0625,0.5140380859375,0.45953369140625,0.69091796875,-0.21734619140625,35.75,53.25,78.5625,-8.92,1.68,-3.69,moving,4
7.6,1145246.591757348,29,3,3,3,0,-34.11,3.51,-18.0,-25.14,1.81,-14.43,-5.625,-80.625,7.5,0.51922607421875,0.45819091796875,0.68707275390625,-0.2198486328125,35.75,53.25,78.5625,-8.97,1.7,-3.57,moving,4
7.61,1145246.591757348,29,3,3,3,0,-28.15,3.52,-16.07,-19.18,1.83,-12.5,24.75,-5.4375,3.875,0.5186767578125,0.45947265625,0.68621826171875,-0.22137451171875,37.1875,54.375,76.0625,-8.97,1.69,-3.56,moving,4
7.62,1145246.597491601,29,3,3,3,0,-21.02,2.97,-10.38,-12.07,1.29,-6.74,39.375,40.0625,1.375,0.51470947265625,0.46209716796875,0.68719482421875,-0.2220458984375,37.1875,54.375,76.0625,-8.94,1.67,-3.64,moving,4
7.63,1145246.597491601,29,3,3,3,0,-18.34,2.38,-8.94,-9.41,0.74,-5.22,40.25,40.75,-2.8125,0.51055908203125,0.46453857421875,0.6883544921875,-0.22296142578125,37.1875,54.375,76.0625,-8.92,1.64,-3.71,moving,4
7.64,1145246.620785343,29,3,3,3,0,-15.71,2.3,-7.75,-6.82,0.71,-3.94,44.4375,47.625,-8.75,0.5057373046875,0.46685791015625,0.68994140625,-0.22406005859375,37.1875,54.375,76.0625,-8.89,1.59,-3.8,moving,4
7.65,1145246.620785343,29,3,3,3,0,-13.65,1.76,-6.24,-4.8,0.22,-2.31,56.3125,74.0,-12.1875,0.49871826171875,0.4700927734375,0.69256591796875,-0.2249755859375,37.1875,54.375,76.0625,-8.84,1.54,-3.93,moving,4
7.66,1145246.635832909,29,3,3,3,0,-10.66,1.11,-3.56,-1.88,-0.36,0.53,62.8125,97.375,-11.4375,0.489990234375,0.4739990234375,0.696044921875,-0.22528076171875,38.6875,54.375,74.5625,-8.78,1.47,-4.1,moving,4
7.67,1145246.635832909,29,3,3,3,0,-8.87,1.15,-2.29,-0.16,-0.26,1.98,54.375,109.25,-10.5,0.48089599609375,0.477783203125,0.70001220703125,-0.2244873046875,38.6875,54.375,74.5625,-8.7,1.42,-4.28,moving,4
7.68,1145246.667822004,29,3,3,3,0,-6.96,1.15,-1.68,1.65,-0.21,2.79,43.1875,123.5,-10.6875,0.4713134765625,0.4813232421875,0.70477294921875,-0.222412109375,38.6875,54.375,74.5625,-8.61,1.37,-4.47,moving,4
7.69,1145246.667822004,29,3,3,3,0,-5.12,1.05,-1.22,3.39,-0.28,3.45,32.1875,130.875,-8.5625,0.461669921875,0.48468017578125,0.7098388671875,-0.21923828125,38.6875,54.375,74.5625,-8.51,1.33,-4.68,moving,4
7.7,1145246.683547916,29,3,3,3,0,-2.4,0.95,-0.37,5.99,-0.36,4.51,11.6875,136.9375,-3.3125,0.45263671875,0.48748779296875,0.7152099609375,-0.21429443359375,38.6875,54.375,74.5625,-8.39,1.32,-4.88,moving,4
7.71,1145246.683547916,29,3,3,3,0,-1.44,0.7,0.12,6.82,-0.63,5.21,-6.75,144.3125,3.375,0.4439697265625,0.4901123046875,0.7208251953125,-0.20758056640625,38.0625,55.5625,74.75,-8.27,1.33,-5.09,moving,4
7.72,1145246.698263655,29,3,3,3,0,-0.49,0.4,0.87,7.63,-0.94,6.18,-9.6875,149.9375,8.625,0.43505859375,0.492919921875,0.72637939453125,-0.2001953125,38.0625,55.5625,74.75,-8.13,1.35,-5.3,moving,4
7.73,1145246.698263655,29,3,3,3,0,2.76,-1.91,1.75,10.75,-3.28,7.27,8.1875,148.0625,12.3125,0.42547607421875,0.49658203125,0.73126220703125,-0.19390869140625,38.0625,55.5625,74.75,-7.99,1.36,-5.51,moving,4
7.74,1145246.726411889,29,3,3,3,0,4.87,-1.55,1.75,12.73,-2.89,7.46,37.4375,134.1875,13.3125,0.41552734375,0.50103759765625,0.7349853515625,-0.18994140625,38.0625,55.5625,74.75,-7.85,1.34,-5.71,moving,4
7.75,1145246.726411889,29,3,3,3,0,5.89,0.0,2.34,13.64,-1.29,8.21,68.3125,100.6875,20.8125,0.4063720703125,0.50653076171875,0.736572265625,-0.189208984375,38.0625,55.5625,74.75,-7.75,1.3,-5.86,moving,4
7.76,1145246.740226952,29,3,3,3,0,6.53,1.86,3.6,14.24,0.62,9.54,90.3125,41.375,24.0625,0.40008544921875,0.51190185546875,0.73541259765625,-0.19232177734375,35.1875,55.5625,76.5,-7.7,1.24,-5.94,moving,4
7.77,1145246.740226952,29,3,3,3,0,9.05,1.39,9.24,16.83,0.25,15.11,108.4375,-73.375,1.6875,0.39996337890625,0.5145263671875,0.73095703125,-0.20245361328125,35.1875,55.5625,76.5,-7.77,1.13,-5.86,moving,4
7.78,1145246.770599592,29,3,3,3,0,7.91,0.41,10.9,15.83,-0.59,16.58,95.3125,-144.875,-15.875,0.40460205078125,0.5142822265625,0.72479248046875,-0.215576171875,35.1875,55.5625,76.5,-7.92,1.01,-5.68,moving,4
7.79,1145246.770599592,29,3,3,3,0,7.23,-0.31,10.44,15.25,-1.23,16.0,39.4375,-90.4375,-41.625,0.40777587890625,0.51129150390625,0.72271728515625,-0.22357177734375,35.1875,55.5625,76.5,-8.02,0.92,-5.56,moving,4
7.8,1145246.775955346,29,3,3,3,0,4.05,-0.13,8.42,12.12,-1.01,13.91,-3.0625,-47.4375,-29.75,0.41033935546875,0.50836181640625,0.722412109375,-0.2265625,35.1875,55.5625,76.5,-8.07,0.88,-5.49,moving,4
7.81,1145246.775955346,29,3,3,3,0,-0.75,-0.84,2.23,7.34,-1.73,7.67,-16.0,-36.125,-4.75,0.4132080078125,0.50677490234375,0.72161865234375,-0.227294921875,35.1875,56.25,75.0625,-8.1,0.89,-5.44,moving,4
7.82,1145246.81584886,29,3,3,3,0,-0.88,-0.89,0.17,7.25,-1.81,5.56,-33.8125,-31.5625,-3.625,0.4166259765625,0.50469970703125,0.7213134765625,-0.2266845703125,35.1875,56.25,75.0625,-8.13,0.91,-5.39,moving,4
7.83,1145246.81584886,29,3,3,3,0,-1.27,-1.12,-1.32,6.88,-2.09,4.02,-59.625,-20.8125,-2.375,0.4205322265625,0.501953125,0.7218017578125,-0.22393798828125,35.1875,56.25,75.0625,-8.15,0.96,-5.35,moving,4
7.84,1145246.821399478,29,3,3,3,0,-1.06,-0.3,-3.97,7.13,-1.33,1.31,-71.875,-35.3125,-5.375,0.42584228515625,0.498291015625,0.72216796875,-0.22119140625,35.1875,56.25,75.0625,-8.19,1.02,-5.29,moving,4
7.85,1145246.821399478,29,3,3,3,0,-1.06,-0.3,-3.97,7.13,-1.33,1.31,-71.875,-35.3125,-5.375,0.42584228515625,0.498291015625,0.72216796875,-0.22119140625,35.1875,56.25,75.0625,-8.19,1.02,-5.29,moving,4
7.85,1145246.846750512,29,3,3,3,0,-1.63,-0.18,-7.91,6.62,-1.28,-2.75,-92.0,-81.1875,-9.5625,0.43475341796875,0.49267578125,0.72125244140625,-0.21923828125,35.1875,56.25,75.0625,-8.26,1.09,-5.15,moving,4
7.86,1145246.846750512,29,3,3,3,0,-2.12,-0.41,-9.83,6.27,-1.54,-4.9,-63.0,-145.0,-14.0,0.4462890625,0.486572265625,0.717529296875,-0.2220458984375,35.875,57.375,75.0625,-8.39,1.13,-4.93,moving,4
7.87,1145246.849342675,29,3,3,3,0,-2.27,0.69,-8.18,6.22,-0.42,-3.41,-4.9375,-113.1875,-10.25,0.45330810546875,0.4835205078125,0.713623046875,-0.2269287109375,35.875,57.375,75.0625,-8.49,1.12,-4.76,moving,4
7.88,1145246.849342675,29,3,3,3,0,-3.28,0.58,-3.55,5.22,-0.52,1.18,6.6875,-23.3125,-2.0625,0.4544677734375,0.483154296875,0.712646484375,-0.2283935546875,35.875,57.375,75.0625,-8.51,1.11,-4.73,moving,4
7.89,1145246.892059716,29,3,3,3,0,-5.81,0.83,-1.57,2.71,-0.26,3.15,20.0625,-6.9375,-1.1875,0.45404052734375,0.4837646484375,0.71197509765625,-0.22998046875,35.875,57.375,75.0625,-8.52,1.09,-4.72,moving,4
7.9,1145246.892059716,29,3,3,3,0,-7.34,0.79,-1.82,1.19,-0.28,2.87,17.3125,-19.125,-1.8125,0.45440673828125,0.48394775390625,0.71099853515625,-0.23193359375,35.875,57.375,75.0625,-8.53,1.07,-4.7,moving,4
7.91,1145246.898003523,29,3,3,3,0,-9.04,0.93,-2.47,-0.46,-0.12,2.14,11.0625,-50.75,-3.3125,0.45703125,0.483154296875,0.7088623046875,-0.23492431640625,37.0,56.1875,76.25,-8.58,1.06,-4.62,moving,4
7.92,1145246.898003523,29,3,3,3,0,-14.95,2.75,-8.67,-6.3,1.7,-4.19,12.1875,-93.6875,-0.9375,0.4622802734375,0.48162841796875,0.70489501953125,-0.2396240234375,37.0,56.1875,76.25,-8.65,1.05,-4.48,moving,4
7.93,1145246.921395084,29,3,3,3,0,-18.99,3.41,-10.97,-10.21,2.35,-6.74,-1.75,-169.5,1.625,0.4727783203125,0.47808837890625,0.69793701171875,-0.24652099609375,37.0,56.1875,76.25,-8.78,1.05,-4.23,moving,4
7.94,1145246.921395084,29,3,3,3,0,-22.04,4.6,-10.3,-13.09,3.5,-6.46,-34.0625,-247.8125,10.1875,0.4893798828125,0.47186279296875,0.6878662109375,-0.25433349609375,37.0,56.1875,76.25,-8.95,1.09,-3.84,moving,4
7.95,1145246.928410668,29,3,3,3,0,-26.56,3.35,-11.46,-17.47,2.19,-7.96,-50.75,-212.625,21.0,0.50457763671875,0.4661865234375,0.678955078125,-0.25909423828125,37.0,56.1875,76.25,-9.08,1.16,-3.49,moving,4
7.96,1145246.928410668,29,3,3,3,0,-36.55,4.83,-8.79,-27.43,3.61,-5.38,-17.0625,-53.125,26.75,0.509033203125,0.46575927734375,0.6759033203125,-0.259033203125,36.6875,57.5625,75.875,-9.11,1.21,-3.4,moving,4
7.97,1145247.013983015,29,3,3,3,0,-37.49,5.82,-5.79,-28.4,4.6,-2.31,46.0,38.25,21.875,0.50537109375,0.469970703125,0.6756591796875,-0.25921630859375,36.6875,57.5625,75.875,-9.08,1.22,-3.47,moving,4
7.98,1145247.013983015,29,3,3,3,0,-28.82,4.24,-4.71,-19.76,3.04,-1.15,52.9375,41.125,8.4375,0.5009765625,0.4737548828125,0.6759033203125,-0.26025390625,36.6875,57.5625,75.875,-9.05,1.2,-3.55,moving,4
7.99,1145247.019398176,29,3,3,3,0,-22.29,2.09,-5.27,-13.26,0.89,-1.65,43.25,34.3125,16.0625,0.49755859375,0.47735595703125,0.67572021484375,-0.26068115234375,36.6875,57.5625,75.875,-9.03,1.2,-3.61,moving,4
8.0,1145247.019398176,29,3,3,3,0,-16.96,1.39,-5.97,-7.93,0.18,-2.35,29.375,-0.625,16.0,0.4967041015625,0.47955322265625,0.67437744140625,-0.26177978515625,36.6875,57.5625,75.875,-9.03,1.21,-3.62,moving,4
8.01,1145247.024269107,29,3,3,3,0,-15.16,1.43,-7.42,-6.12,0.21,-3.84,16.6875,-24.1875,11.6875,0.49774169921875,0.48040771484375,0.67242431640625,-0.26324462890625,39.1875,57.25,72.6875,-9.04,1.21,-3.58,moving,4
8.02,1145247.024269107,29,3,3,3,0,-14.42,1.55,-9.03,-5.37,0.34,-5.47,16.6875,-20.4375,5.8125,0.49835205078125,0.48101806640625,0.6708984375,-0.26483154296875,39.1875,57.25,72.6875,-9.05,1.21,-3.55,moving,4
8.03,1145247.041540755,29,3,3,3,0,-13.0,0.82,-8.42,-3.95,-0.37,-4.82,31.6875,16.375,-1.125,0.49609375,0.482666015625,0.6708984375,-0.26605224609375,39.1875,57.25,72.6875,-9.04,1.19,-3.59,moving,4
8.04,1145247.041540755,29,3,3,3,0,-11.28,0.09,-5.18,-2.26,-1.06,-1.52,40.0,39.5625,-5.8125,0.491943359375,0.4849853515625,0.67193603515625,-0.2669677734375,39.1875,57.25,72.6875,-9.02,1.16,-3.66,moving,4
8.05,1145247.05559707,29,3,3,3,0,-10.66,0.37,-4.57,-1.65,-0.75,-0.85,30.5625,34.1875,-10.4375,0.4884033203125,0.48651123046875,0.67315673828125,-0.26776123046875,39.1875,57.25,72.6875,-9.0,1.12,-3.72,moving,4
8.06,1145247.05559707,29,3,3,3,0,-9.98,0.72,-4.38,-0.99,-0.36,-0.6,15.8125,35.0625,-14.5,0.4853515625,0.48712158203125,0.67486572265625,-0.267822265625,37.6875,57.5625,73.1875,-8.98,1.09,-3.78,moving,4
8.07,1145247.061549096,29,3,3,3,0,-8.14,1.07,-3.78,0.8,0.01,0.07,2.6875,51.4375,-16.8125,0.4818115234375,0.4874267578125,0.67767333984375,-0.26654052734375,37.6875,57.5625,73.1875,-8.95,1.06,-3.86,moving,4
8.08,1145247.061549096,29,3,3,3,0,-7.24,0.89,-3.17,1.66,-0.14,0.8,-6.5,74.625,-18.0625,0.47723388671875,0.48779296875,0.68170166015625,-0.26373291015625,37.6875,57.5625,73.1875,-8.9,1.03,-3.97,moving,4
8.09,1145247.071599796,29,3,3,3,0,-6.27,0.43,-2.47,2.56,-0.58,1.63,-12.1875,90.375,-18.125,0.471923828125,0.48828125,0.6865234375,-0.2598876953125,37.6875,57.5625,73.1875,-8.84,1.02,-4.11,moving,4
8.1,1145247.071599796,29,3,3,3,0,-5.55,0.2,-1.66,3.23,-0.79,2.57,-16.8125,85.3125,-17.3125,0.4671630859375,0.48846435546875,0.69110107421875,-0.2559814453125,37.6875,57.5625,73.1875,-8.78,1.0,-4.24,moving,4
8.11,1145247.088749617,29,3,3,3,0,-5.55,0.2,-1.66,3.23,-0.79,2.57,-16.8125,85.3125,-17.3125,0.4671630859375,0.48846435546875,0.69110107421875,-0.2559814453125,37.6875,57.5625,73.1875,-8.78,1.0,-4.24,moving,4
8.12,1145247.088749617,29,3,3,3,0,-3.96,0.2,-0.39,4.77,-0.79,3.94,-17.6875,68.75,-16.0625,0.46337890625,0.48828125,0.69500732421875,-0.25262451171875,37.375,58.5,71.25,-8.73,0.99,-4.34,moving,4
8.12,1145247.117329939,29,3,3,3,0,-3.23,0.43,-0.42,5.46,-0.55,3.99,-12.25,57.0625,-13.875,0.46014404296875,0.48822021484375,0.6981201171875,-0.25,37.375,58.5,71.25,-8.69,0.98,-4.42,moving,4
8.13,1145247.117329939,29,3,3,3,0,-2.62,0.65,-0.55,6.03,-0.31,3.94,-6.4375,49.9375,-11.375,0.4571533203125,0.48834228515625,0.70074462890625,-0.2479248046875,37.375,58.5,71.25,-8.65,0.97,-4.5,moving,4
8.14,1145247.149226708,29,3,3,3,0,-2.08,1.0,-0.61,6.53,0.05,3.95,-0.125,39.3125,-8.75,0.45452880859375,0.4886474609375,0.70269775390625,-0.24664306640625,37.375,58.5,71.25,-8.62,0.95,-4.56,moving,4
8.15,1145247.149226708,29,3,3,3,0,-1.4,1.48,-0.63,7.2,0.53,3.96,7.0625,26.75,-6.0625,0.45245361328125,0.4891357421875,0.703857421875,-0.24615478515625,37.375,58.5,71.25,-8.6,0.94,-4.6,moving,4
8.16,1145247.154856022,29,3,3,3,0,-1.54,1.76,-0.69,7.04,0.84,3.93,13.6875,15.0,-2.5625,0.450927734375,0.48980712890625,0.70428466796875,-0.2464599609375,35.1875,58.0625,75.25,-8.59,0.92,-4.62,moving,4
8.17,1145247.154856022,29,3,3,3,0,-1.78,1.91,-0.71,6.81,1.0,3.91,17.125,2.9375,0.3125,0.45001220703125,0.49053955078125,0.70404052734375,-0.24737548828125,35.1875,58.0625,75.25,-8.59,0.91,-4.63,moving,4
8.18,1145247.192203759,29,3,3,3,0,-2.13,2.02,-0.78,6.46,1.11,3.84,16.0625,-8.75,2.9375,0.449951171875,0.4912109375,0.70318603515625,-0.2486572265625,35.1875,58.0625,75.25,-8.6,0.9,-4.62,moving,4
8.19,1145247.192203759,29,3,3,3,0,-3.76,1.92,-1.11,4.85,1.02,3.48,11.0625,-19.0,5.5625,0.45074462890625,0.4915771484375,0.70196533203125,-0.24993896484375,35.1875,58.0625,75.25,-8.61,0.9,-4.59,moving,4
8.2,1145247.251756494,29,3,3,3,0,-4.63,1.75,-1.34,4.0,0.84,3.2,4.1875,-28.75,8.0,0.4525146484375,0.4915771484375,0.70037841796875,-0.2510986328125,35.1875,58.0625,75.25,-8.63,0.91,-4.55,moving,4
8.21,1145247.251756494,29,3,3,3,0,-5.47,1.51,-1.92,3.19,0.58,2.57,-2.25,-36.6875,10.8125,0.45513916015625,0.4913330078125,0.698486328125,-0.2520751953125,35.5625,58.75,74.0625,-8.66,0.93,-4.49,moving,4
8.22,1145247.297039941,29,3,3,3,0,-6.28,1.24,-2.89,2.4,0.28,1.52,-5.3125,-45.75,13.4375,0.45843505859375,0.490966796875,0.69622802734375,-0.253173828125,35.5625,58.75,74.0625,-8.69,0.95,-4.42,moving,4
8.23,1145247.297039941,29,3,3,3,0,-7.91,0.99,-5.06,0.82,0.01,-0.72,0.0625,-58.0625,15.875,0.46234130859375,0.4906005859375,0.69317626953125,-0.25506591796875,35.5625,58.75,74.0625,-8.73,0.98,-4.33,moving,4
8.24,1145247.310616927,29,3,3,3,0,-8.9,1.02,-6.08,-0.12,0.02,-1.84,13.5625,-65.375,17.5,0.466064453125,0.49078369140625,0.689453125,-0.2579345703125,35.5625,58.75,74.0625,-8.78,0.99,-4.24,moving,4
8.25,1145247.310616927,29,3,3,3,0,-9.88,0.88,-5.46,-1.04,-0.11,-1.32,23.8125,-73.625,17.1875,0.4698486328125,0.4910888671875,0.6851806640625,-0.2618408203125,35.5625,58.75,74.0625,-8.83,1.0,-4.13,moving,4
8.26,1145247.325986962,29,3,3,3,0,-11.94,0.8,-4.72,-3.06,-0.2,-0.69,30.25,-68.0625,16.0,0.4730224609375,0.49176025390625,0.68096923828125,-0.265869140625,35.1875,58.5,73.25,-8.88,1.01,-4.03,moving,4
8.27,1145247.325986962,29,3,3,3,0,-13.05,0.76,-4.9,-4.13,-0.24,-0.95,33.4375,-57.9375,13.625,0.475341796875,0.49261474609375,0.67724609375,-0.269775390625,35.1875,58.5,73.25,-8.92,1.0,-3.94,moving,4
8.28,1145247.33160358,29,3,3,3,0,-14.57,0.72,-4.84,-5.62,-0.28,-0.97,28.375,-49.6875,11.4375,0.47735595703125,0.4932861328125,0.6739501953125,-0.27313232421875,35.1875,58.5,73.25,-8.95,1.0,-3.87,moving,4
8.29,1145247.33160358,29,3,3,3,0,-16.21,0.87,-4.54,-7.23,-0.12,-0.74,21.3125,-47.125,8.9375,0.47943115234375,0.4935302734375,0.67108154296875,-0.2760009765625,35.1875,58.5,73.25,-8.98,1.0,-3.8,stop,4
8.3,1145247.336884179,29,3,3,3,0,-15.96,1.22,-4.85,-6.95,0.22,-1.09,14.0,-33.3125,5.5625,0.48089599609375,0.49365234375,0.66912841796875,-0.27801513671875,35.1875,58.5,73.25,-9.0,1.0,-3.75,stop,4
8.31,1145247.336884179,29,3,3,3,0,-14.94,1.07,-4.94,-5.93,0.06,-1.2,9.4375,-8.6875,2.6875,0.4810791015625,0.4940185546875,0.66839599609375,-0.27886962890625,38.5,58.5,71.5625,-9.0,1.0,-3.74,stop,4
8.32,1145247.357690291,29,3,3,3,0,-13.74,0.87,-4.93,-4.74,-0.12,-1.18,9.5625,9.4375,1.25,0.48016357421875,0.49468994140625,0.66851806640625,-0.2789306640625,38.5,58.5,71.5625,-9.0,1.0,-3.75,stop,4
8.33,1145247.357690291,29,3,3,3,0,-12.7,0.73,-4.98,-3.71,-0.26,-1.18,8.0,20.875,0.25,0.47857666015625,0.49554443359375,0.669189453125,-0.27850341796875,38.5,58.5,71.5625,-8.98,0.99,-3.79,stop,4
8.34,1145247.363040348,29,3,3,3,0,-10.92,0.7,-5.25,-1.95,-0.28,-1.41,8.6875,29.0,-0.625,0.47650146484375,0.49658203125,0.670166015625,-0.27783203125,38.5,58.5,71.5625,-8.96,0.98,-3.83,stop,4
8.35,1145247.363040348,29,3,3,3,0,-10.02,0.61,-5.29,-1.08,-0.35,-1.4,11.3125,35.875,-1.5,0.473876953125,0.497802734375,0.67144775390625,-0.2769775390625,38.5,58.5,71.5625,-8.94,0.97,-3.89,stop,4
8.36,1145247.370910465,29,3,3,3,0,-9.24,0.51,-5.19,-0.33,-0.44,-1.22,14.0,43.0625,-2.1875,0.470703125,0.49932861328125,0.6729736328125,-0.2760009765625,39.0625,59.5625,71.6875,-8.91,0.96,-3.96,stop,4
8.37,1145247.370910465,29,3,3,3,0,-9.24,0.51,-5.19,-0.33,-0.44,-1.22,14.0,43.0625,-2.1875,0.470703125,0.49932861328125,0.6729736328125,-0.2760009765625,39.0625,59.5625,71.6875,-8.91,0.96,-3.96,stop,4
8.38,1145247.401626733,29,3,3,3,0,-8.47,0.49,-4.93,0.4,-0.45,-0.89,15.9375,50.3125,-2.0,0.467041015625,0.50103759765625,0.67474365234375,-0.27484130859375,39.0625,59.5625,71.6875,-8.88,0.95,-4.04,stop,4
8.38,1145247.401626733,29,3,3,3,0,-6.98,0.43,-4.37,1.85,-0.5,-0.23,17.1875,55.6875,-1.75,0.46295166015625,0.50299072265625,0.6766357421875,-0.27349853515625,39.0625,59.5625,71.6875,-8.84,0.93,-4.13,stop,4
8.39,1145247.416282413,29,3,3,3,0,-6.32,0.37,-4.17,2.47,-0.55,0.05,18.0,57.5,-1.0625,0.458740234375,0.5050048828125,0.6785888671875,-0.2720947265625,39.0625,59.5625,71.6875,-8.8,0.92,-4.22,stop,4
8.4,1145247.416282413,29,3,3,3,0,-5.87,0.38,-3.9,2.88,-0.52,0.4,17.75,54.25,-0.5625,0.4547119140625,0.5069580078125,0.68035888671875,-0.270751953125,39.0625,59.5625,71.6875,-8.76,0.9,-4.31,stop,4
8.41,1145247.421058496,29,3,3,3,0,-5.08,0.32,-3.46,3.64,-0.57,0.92,17.6875,48.625,-0.25,0.4510498046875,0.5087890625,0.681884765625,-0.2696533203125,37.5625,59.5,71.5625,-8.72,0.89,-4.38,stop,4
8.42,1145247.421058496,29,3,3,3,0,-4.81,0.36,-3.37,3.87,-0.51,1.08,18.8125,43.875,0.375,0.4476318359375,0.51055908203125,0.68310546875,-0.26885986328125,37.5625,59.5,71.5625,-8.68,0.88,-4.45,stop,4
8.43,1145247.430348413,29,3,3,3,0,-4.77,0.33,-3.34,3.88,-0.53,1.16,19.3125,37.875,0.75,0.44451904296875,0.51226806640625,0.68414306640625,-0.268310546875,37.5625,59.5,71.5625,-8.65,0.86,-4.51,stop,4
8.44,1145247.430348413,29,3,3,3,0,-5.07,0.32,-3.23,3.56,-0.52,1.33,17.875,29.4375,0.5,0.44195556640625,0.51361083984375,0.684814453125,-0.26806640625,37.5625,59.5,71.5625,-8.63,0.85,-4.56,stop,4
8.45,1145247.43456818,29,3,3,3,0,-5.83,0.28,-3.02,2.78,-0.55,1.57,15.25,18.75,0.0,0.440185546875,0.5146484375,0.6851806640625,-0.26812744140625,37.5625,59.5,71.5625,-8.62,0.83,-4.59,stop,4
8.46,1145247.43456818,29,3,3,3,0,-6.49,0.25,-3.21,2.12,-0.57,1.39,12.5625,7.625,-1.0625,0.4390869140625,0.5152587890625,0.68524169921875,-0.2685546875,37.1875,60.5625,72.0,-8.61,0.82,-4.61,stop,4
8.47,1145247.445542342,29,3,3,3,0,-7.23,0.29,-3.67,1.38,-0.51,0.93,11.0625,-5.3125,-2.0625,0.43890380859375,0.51544189453125,0.68487548828125,-0.26953125,37.1875,60.5625,72.0,-8.62,0.81,-4.6,stop,4
8.48,1145247.445542342,29,3,3,3,0,-7.88,0.38,-4.33,0.75,-0.41,0.24,11.0,-20.4375,-2.875,0.4395751953125,0.51519775390625,0.6839599609375,-0.271240234375,37.1875,60.5625,72.0,-8.63,0.8,-4.57,stop,4
8.49,1145247.490793156,29,3,3,3,0,-9.09,0.7,-5.68,-0.43,-0.08,-1.15,11.0,-31.5,-3.0625,0.44085693359375,0.51470947265625,0.6826171875,-0.2734375,37.1875,60.5625,72.0,-8.66,0.78,-4.52,stop,4
8.5,1145247.490793156,29,3,3,3,0,-9.63,0.74,-5.77,-0.93,-0.02,-1.31,10.6875,-41.25,-2.25,0.4427490234375,0.51397705078125,0.680908203125,-0.2760009765625,37.1875,60.5625,72.0,-8.69,0.77,-4.46,stop,4
8.51,1145247.505144596,29,3,3,3,0,-10.22,0.73,-5.74,-1.5,-0.03,-1.34,10.5,-43.5625,-0.4375,0.44488525390625,0.5133056640625,0.678955078125,-0.27862548828125,36.5,60.1875,72.0,-8.72,0.76,-4.4,stop,4
8.52,1145247.505144596,29,3,3,3,0,-10.75,0.66,-5.75,-1.99,-0.09,-1.41,10.375,-40.0625,1.0,0.44683837890625,0.5128173828125,0.67706298828125,-0.28094482421875,36.5,60.1875,72.0,-8.75,0.76,-4.34,stop,4
8.53,1145247.510591617,29,3,3,3,0,-12.18,0.52,-5.6,-3.39,-0.23,-1.31,8.5625,-34.5625,2.75,0.44854736328125,0.512451171875,0.6754150390625,-0.28289794921875,36.5,60.1875,72.0,-8.78,0.76,-4.29,stop,4
8.54,1145247.510591617,29,3,3,3,0,-12.28,0.66,-5.47,-3.48,-0.09,-1.22,4.0,-24.5,4.4375,0.44989013671875,0.51226806640625,0.67413330078125,-0.2840576171875,36.5,60.1875,72.0,-8.8,0.76,-4.25,stop,4
8.55,1145247.536533309,29,3,3,3,0,-11.88,0.69,-5.37,-3.07,-0.07,-1.13,0.1875,-8.75,4.4375,0.4505615234375,0.5123291015625,0.673583984375,-0.2843017578125,36.5,60.1875,72.0,-8.8,0.77,-4.24,stop,4
8.56,1145247.536533309,29,3,3,3,0,-11.31,0.57,-5.17,-2.5,-0.2,-0.93,-0.6875,5.3125,2.5,0.4503173828125,0.5125732421875,0.6737060546875,-0.283935546875,36.875,61.25,70.75,-8.8,0.77,-4.24,stop,4
8.57,1145247.566144881,29,3,3,3,0,-9.74,0.49,-4.92,-0.94,-0.28,-0.66,-0.75,14.0625,0.4375,0.44952392578125,0.51287841796875,0.67425537109375,-0.28326416015625,36.875,61.25,70.75,-8.79,0.77,-4.26,stop,4
8.58,1145247.566144881,29,3,3,3,0,-9.13,0.39,-4.93,-0.35,-0.37,-0.63,0.0,19.125,-0.5,0.44842529296875,0.51336669921875,0.675048828125,-0.28240966796875,36.875,61.25,70.75,-8.77,0.77,-4.29,stop,4
8.59,1145247.627945906,29,3,3,3,0,-8.64,0.33,-4.96,0.11,-0.43,-0.63,2.3125,24.125,-1.4375,0.44683837890625,0.513916015625,0.67596435546875,-0.281494140625,36.875,61.25,70.75,-8.76,0.77,-4.33,stop,4
8.6,1145247.627945906,29,3,3,3,0,-7.85,0.12,-4.75,0.88,-0.64,-0.37,5.375,28.6875,-2.0625,0.44482421875,0.51470947265625,0.67706298828125,-0.2806396484375,36.875,61.25,70.75,-8.74,0.76,-4.38,stop,4
8.61,1145247.635294498,29,3,3,3,0,-7.5,0.13,-4.58,1.21,-0.62,-0.16,7.5625,30.75,-3.1875,0.442626953125,0.51556396484375,0.67822265625,-0.27978515625,36.75,60.5625,70.6875,-8.71,0.75,-4.42,stop,4
8.62,1145247.635294498,29,3,3,3,0,-7.21,0.14,-4.42,1.48,-0.59,0.05,7.75,29.375,-4.8125,0.44036865234375,0.51629638671875,0.67938232421875,-0.27911376953125,36.75,60.5625,70.6875,-8.69,0.74,-4.47,stop,4
8.63,1145247.641362329,29,3,3,3,0,-7.21,0.14,-4.42,1.48,-0.59,0.05,7.75,29.375,-4.8125,0.44036865234375,0.51629638671875,0.67938232421875,-0.27911376953125,36.75,60.5625,70.6875,-8.69,0.74,-4.47,stop,4
8.63,1145247.641362329,29,3,3,3,0,-7.03,0.15,-4.27,1.63,-0.57,0.24,6.1875,25.75,-5.9375,0.43841552734375,0.516845703125,0.68048095703125,-0.278564453125,36.75,60.5625,70.6875,-8.67,0.72,-4.51,stop,4
8.64,1145247.64669139,29,3,3,3,0,-6.97,0.2,-3.96,1.68,-0.5,0.57,4.5625,21.1875,-7.0625,0.436767578125,0.51708984375,0.6815185546875,-0.2781982421875,36.75,60.5625,70.6875,-8.65,0.71,-4.54,stop,4
8.65,1145247.64669139,29,3,3,3,0,-7.03,0.24,-3.85,1.61,-0.45,0.71,2.6875,16.875,-7.8125,0.43548583984375,0.51715087890625,0.68243408203125,-0.27789306640625,36.75,60.5625,70.6875,-8.64,0.69,-4.57,stop,4
8.66,1145247.652083317,29,3,3,3,0,-7.24,0.32,-3.82,1.39,-0.36,0.76,0.75,12.125,-8.125,0.43450927734375,0.5169677734375,0.6832275390625,-0.2777099609375,37.0625,61.25,73.0625,-8.63,0.68,-4.59,stop,4
8.67,1145247.652083317,29,3,3,3,0,-7.53,0.38,-3.77,1.09,-0.29,0.82,-1.125,6.125,-8.0625,0.43402099609375,0.5166015625,0.68389892578125,-0.27764892578125,37.0625,61.25,73.0625,-8.63,0.67,-4.6,stop,4
8.68,1145247.670449894,29,3,3,3,0,-8.22,0.59,-3.93,0.4,-0.07,0.66,-3.375,0.0,-7.8125,0.4339599609375,0.5159912109375,0.684326171875,-0.27777099609375,37.0625,61.25,73.0625,-8.63,0.66,-4.6,stop,4
8.69,1145247.670449894,29,3,3,3,0,-8.52,0.69,-4.02,0.11,0.03,0.56,-5.9375,-5.25,-7.8125,0.434326171875,0.51519775390625,0.68463134765625,-0.2779541015625,37.0625,61.25,73.0625,-8.64,0.65,-4.59,stop,4
8.7,1145247.701255436,29,3,3,3,0,-8.81,0.79,-4.17,-0.16,0.14,0.39,-8.125,-8.75,-7.875,0.43505859375,0.51416015625,0.684814453125,-0.27813720703125,37.0625,61.25,73.0625,-8.64,0.65,-4.57,stop,4
8.71,1145247.701255436,29,3,3,3,0,-9.04,0.86,-4.33,-0.38,0.21,0.22,-9.9375,-10.4375,-7.8125,0.4359130859375,0.5130615234375,0.68505859375,-0.2783203125,36.0625,61.5625,71.5,-8.65,0.64,-4.56,stop,4
8.73,1145247.747668969,29,3,3,3,0,-9.38,0.91,-4.8,-0.7,0.27,-0.27,-12.375,-10.375,-6.5,0.43792724609375,0.51080322265625,0.6854248046875,-0.27838134765625,36.0625,61.5625,71.5,-8.67,0.64,-4.52,stop,4
8.74,1145247.747668969,29,3,3,3,0,-9.37,0.91,-4.9,-0.69,0.26,-0.38,-13.125,-8.4375,-5.3125,0.4388427734375,0.509765625,0.6856689453125,-0.2781982421875,36.0625,61.5625,71.5,-8.68,0.64,-4.51,stop,4
8.75,1145247.752533512,29,3,3,3,0,-9.26,0.9,-4.96,-0.57,0.25,-0.46,-13.5,-5.8125,-4.1875,0.439697265625,0.50885009765625,0.68597412109375,-0.27777099609375,36.0625,61.5625,71.5,-8.68,0.65,-4.5,stop,4
8.76,1145247.752533512,29,3,3,3,0,-9.11,0.93,-4.94,-0.42,0.27,-0.45,-13.4375,-2.75,-2.875,0.4404296875,0.50811767578125,0.686279296875,-0.2772216796875,36.375,60.5625,71.5,-8.69,0.65,-4.49,stop,4
8.77,1145247.756974389,29,3,3,3,0,-8.98,0.93,-4.91,-0.28,0.27,-0.42,-13.125,0.5,-2.0625,0.44091796875,0.50750732421875,0.68670654296875,-0.2764892578125,36.375,60.5625,71.5,-8.69,0.66,-4.49,stop,4
8.78,1145247.756974389,29,3,3,3,0,-8.83,0.95,-4.9,-0.14,0.28,-0.4,-12.5,3.125,-1.25,0.4412841796875,0.50701904296875,0.68719482421875,-0.27569580078125,36.375,60.5625,71.5,-8.68,0.67,-4.49,stop,4
8.79,1145247.791655135,29,3,3,3,0,-8.62,0.93,-4.76,0.06,0.25,-0.26,-11.9375,5.5625,-0.8125,0.44146728515625,0.506591796875,0.687744140625,-0.27471923828125,36.375,60.5625,71.5,-8.68,0.68,-4.5,stop,4
8.8,1145247.791655135,29,3,3,3,0,-8.49,0.88,-4.72,0.18,0.19,-0.21,-11.25,6.875,-0.8125,0.4415283203125,0.50628662109375,0.68829345703125,-0.2738037109375,36.375,60.5625,71.5,-8.67,0.68,-4.51,stop,4
8.81,1145247.79685004,29,3,3,3,0,-8.41,0.84,-4.65,0.25,0.15,-0.13,-10.6875,8.0,-0.875,0.44146728515625,0.50604248046875,0.68890380859375,-0.2728271484375,37.0625,60.1875,73.375,-8.67,0.69,-4.52,stop,4
8.82,1145247.79685004,29,3,3,3,0,-8.36,0.79,-4.54,0.29,0.09,0.0,-10.25,8.75,-0.875,0.44134521484375,0.50579833984375,0.68951416015625,-0.2718505859375,37.0625,60.1875,73.375,-8.66,0.7,-4.53,stop,4
8.83,1145247.850771183,29,3,3,3,0,-8.32,0.6,-4.47,0.33,-0.09,0.06,-9.5625,7.6875,-0.8125,0.4412841796875,0.50555419921875,0.69012451171875,-0.27099609375,37.0625,60.1875,73.375,-8.66,0.7,-4.54,stop,4
8.84,1145247.850771183,29,3,3,3,0,-8.28,0.53,-4.53,0.37,-0.17,0.02,-8.75,5.9375,-0.625,0.44134521484375,0.50531005859375,0.6905517578125,-0.27020263671875,37.0625,60.1875,73.375,-8.65,0.71,-4.55,stop,4
8.85,1145247.856825219,29,3,3,3,0,-8.25,0.48,-4.5,0.39,-0.23,0.05,-8.4375,5.1875,-0.4375,0.44140625,0.505126953125,0.69097900390625,-0.26947021484375,37.0625,60.1875,73.375,-8.65,0.72,-4.56,stop,4
8.86,1145247.856825219,29,3,3,3,0,-8.23,0.4,-4.47,0.4,-0.31,0.09,-8.0,5.125,0.0,0.44140625,0.5048828125,0.69134521484375,-0.268798828125,36.0625,60.5625,73.375,-8.64,0.72,-4.56,stop,4
8.87,1145247.86205223,29,3,3,3,0,-8.22,0.39,-4.45,0.41,-0.33,0.12,-7.5,3.75,0.1875,0.4415283203125,0.50469970703125,0.69171142578125,-0.26812744140625,36.0625,60.5625,73.375,-8.64,0.73,-4.57,stop,4
8.88,1145247.86205223,29,3,3,3,0,-8.24,0.45,-4.48,0.4,-0.28,0.08,-7.125,1.5625,0.5625,0.4417724609375,0.5045166015625,0.69189453125,-0.26763916015625,36.0625,60.5625,73.375,-8.64,0.73,-4.57,stop,4
8.89,1145247.867587182,29,3,3,3,0,-8.27,0.53,-4.53,0.36,-0.21,0.04,-6.9375,-0.5625,1.1875,0.442138671875,0.5042724609375,0.69195556640625,-0.2672119140625,36.0625,60.5625,73.375,-8.64,0.74,-4.57,stop,4
8.9,1145247.867587182,29,3,3,3,0,-8.31,0.61,-4.6,0.26,0.04,0.1,-6.8125,-2.375,1.5625,0.4322509765625,0.502685546875,0.6982421875,-0.26995849609375,36.0625,60.5625,73.375,-8.58,0.56,-4.71,stop,4
8.91,1145247.911887842,29,3,3,3,0,-8.41,0.81,-4.63,0.17,0.24,0.07,-7.0625,-3.5625,1.8125,0.432861328125,0.50244140625,0.6982421875,-0.26959228515625,35.6875,60.5625,72.25,-8.58,0.57,-4.7,stop,4
8.92,1145247.911887842,29,3,3,3,0,-8.48,0.86,-4.68,0.1,0.28,0.01,-7.75,-4.875,2.0625,0.43353271484375,0.50213623046875,0.6981201171875,-0.269287109375,35.6875,60.5625,72.25,-8.58,0.58,-4.69,stop,4
8.93,1145247.917385807,29,3,3,3,0,-8.54,0.93,-4.76,0.04,0.34,-0.07,-8.625,-5.5,2.375,0.434326171875,0.5018310546875,0.697998046875,-0.26885986328125,35.6875,60.5625,72.25,-8.59,0.59,-4.68,stop,4
8.94,1145247.917385807,29,3,3,3,0,-8.64,0.99,-4.88,-0.04,0.38,-0.2,-9.5,-5.3125,2.5,0.43511962890625,0.50152587890625,0.69793701171875,-0.2684326171875,35.6875,60.5625,72.25,-8.59,0.6,-4.68,stop,4
8.95,1145247.971461816,29,3,3,3,0,-8.69,0.97,-4.94,-0.09,0.35,-0.27,-9.625,-5.0,2.9375,0.4359130859375,0.501220703125,0.69781494140625,-0.2679443359375,35.6875,60.5625,72.25,-8.6,0.61,-4.67,stop,4
8.96,1145247.971461816,29,3,3,3,0,-8.73,0.98,-4.97,-0.13,0.35,-0.3,-8.9375,-3.8125,3.25,0.43658447265625,0.5009765625,0.69775390625,-0.2674560546875,34.875,59.75,72.1875,-8.6,0.62,-4.66,stop,4
8.97,1145247.977051212,29,3,3,3,0,-8.73,0.94,-4.96,-0.13,0.3,-0.3,-7.8125,-2.375,3.3125,0.43719482421875,0.5008544921875,0.69769287109375,-0.2669677734375,34.875,59.75,72.1875,-8.6,0.64,-4.66,stop,4
8.98,1145247.977051212,29,3,3,3,0,-8.7,0.89,-4.83,-0.09,0.24,-0.17,-6.9375,-0.875,3.3125,0.4376220703125,0.500732421875,0.69769287109375,-0.26641845703125,34.875,59.75,72.1875,-8.6,0.65,-4.65,stop,4
8.99,1145247.983145898,29,3,3,3,0,-8.65,0.89,-4.81,-0.05,0.22,-0.16,-6.125,-0.125,3.4375,0.43792724609375,0.50079345703125,0.69769287109375,-0.26580810546875,34.875,59.75,72.1875,-8.6,0.66,-4.65,stop,4
9.0,1145247.983145898,29,3,3,3,0,-8.61,0.87,-4.75,-0.01,0.2,-0.09,-5.3125,0.4375,3.3125,0.43829345703125,0.5008544921875,0.6976318359375,-0.2652587890625,34.875,59.75,72.1875,-8.6,0.67,-4.65,stop,4
9.01,1145247.98848855,29,3,3,3,0,-8.55,0.85,-4.69,0.04,0.16,-0.03,-4.875,0.625,3.3125,0.43853759765625,0.50091552734375,0.6976318359375,-0.2647705078125,36.75,59.5,73.25,-8.6,0.68,-4.66,stop,4
9.02,1145247.98848855,29,3,3,3,0,-8.46,0.79,-4.69,0.13,0.1,-0.03,-4.4375,0.6875,3.3125,0.43878173828125,0.5009765625,0.69757080078125,-0.2642822265625,36.75,59.5,73.25,-8.6,0.69,-4.66,stop,4
9.03,1145248.016528996,29,3,3,3,0,-8.43,0.81,-4.66,0.16,0.1,0.0,-3.8125,0.0,3.5,0.43902587890625,0.5010986328125,0.697509765625,-0.26385498046875,36.75,59.5,73.25,-8.59,0.7,-4.66,stop,4
9.04,1145248.016528996,29,3,3,3,0,-8.44,0.81,-4.64,0.15,0.09,0.01,-3.625,-0.875,3.5625,0.4393310546875,0.50115966796875,0.69744873046875,-0.26348876953125,36.75,59.5,73.25,-8.59,0.71,-4.65,stop,4
9.05,1145248.046215153,29,3,3,3,0,-8.41,0.83,-4.62,0.18,0.1,0.02,-3.5,-2.0,3.375,0.43963623046875,0.501220703125,0.697265625,-0.26324462890625,36.75,59.5,73.25,-8.6,0.72,-4.65,stop,4
9.06,1145248.046215153,29,3,3,3,0,-8.43,0.87,-4.56,0.16,0.14,0.08,-3.5625,-3.0625,3.375,0.4400634765625,0.501220703125,0.69708251953125,-0.26300048828125,35.25,59.0625,72.5625,-8.6,0.73,-4.65,stop,4
9.07,1145248.051141911,29,3,3,3,0,-8.46,0.89,-4.57,0.14,0.15,0.06,-3.75,-4.625,3.5,0.44061279296875,0.501220703125,0.69683837890625,-0.26275634765625,35.25,59.0625,72.5625,-8.6,0.74,-4.64,stop,4
9.08,1145248.051141911,29,3,3,3,0,-8.46,0.91,-4.58,0.14,0.16,0.04,-3.9375,-6.0625,3.3125,0.4412841796875,0.50115966796875,0.696533203125,-0.26263427734375,35.25,59.0625,72.5625,-8.6,0.74,-4.63,stop,4
9.09,1145248.091478499,29,3,3,3,0,-8.54,0.94,-4.56,0.06,0.18,0.06,-3.875,-7.25,3.25,0.44195556640625,0.50103759765625,0.6961669921875,-0.2625732421875,35.25,59.0625,72.5625,-8.61,0.75,-4.62,stop,4
9.1,1145248.091478499,29,3,3,3,0,-8.59,0.94,-4.52,0.02,0.17,0.08,-3.8125,-8.3125,3.4375,0.4427490234375,0.50091552734375,0.69580078125,-0.26251220703125,35.25,59.0625,72.5625,-8.62,0.76,-4.61,stop,4
9.11,1145248.137696558,29,3,3,3,0,-8.62,0.94,-4.55,0.0,0.17,0.03,-3.6875,-9.0,3.375,0.44354248046875,0.50079345703125,0.69537353515625,-0.26251220703125,36.0625,59.0625,72.0625,-8.62,0.77,-4.59,stop,4
9.12,1145248.137696558,29,3,3,3,0,-8.65,0.96,-4.59,-0.02,0.18,-0.01,-3.375,-9.125,3.125,0.4443359375,0.50067138671875,0.6949462890625,-0.2625732421875,36.0625,59.0625,72.0625,-8.63,0.78,-4.58,stop,4
9.13,1145248.165700138,29,3,3,3,0,-8.71,1.0,-4.61,-0.07,0.2,-0.05,-2.9375,-8.625,2.9375,0.44512939453125,0.5006103515625,0.69451904296875,-0.2625732421875,36.0625,59.0625,72.0625,-8.64,0.79,-4.56,stop,4
9.14,1145248.165700138,29,3,3,3,0,-8.76,1.02,-4.57,-0.12,0.22,-0.01,-2.3125,-8.0625,2.625,0.44580078125,0.50048828125,0.694091796875,-0.26263427734375,36.0625,59.0625,72.0625,-8.64,0.8,-4.55,stop,4
9.15,1145248.171207015,29,3,3,3,0,-8.83,1.04,-4.5,-0.18,0.23,0.04,-1.6875,-7.0,2.25,0.44635009765625,0.50042724609375,0.69378662109375,-0.26275634765625,36.0625,59.0625,72.0625,-8.65,0.8,-4.54,stop,4
9.16,1145248.171207015,29,3,3,3,0,-8.9,1.04,-4.51,-0.24,0.23,0.01,-0.9375,-5.8125,1.6875,0.44683837890625,0.5003662109375,0.69342041015625,-0.2628173828125,36.375,59.0625,73.0,-8.65,0.81,-4.53,stop,4
9.17,1145248.176415999,29,3,3,3,0,-8.94,1.07,-4.55,-0.28,0.26,-0.02,-0.25,-4.8125,1.25,0.44720458984375,0.5003662109375,0.69317626953125,-0.262939453125,36.375,59.0625,73.0,-8.66,0.81,-4.52,stop,4
9.18,1145248.176415999,29,3,3,3,0,-8.96,1.07,-4.52,-0.29,0.26,0.0,0.625,-3.125,1.0,0.44744873046875,0.5003662109375,0.69293212890625,-0.2630615234375,36.375,59.0625,73.0,-8.66,0.81,-4.52,stop,4
9.19,1145248.181752506,29,3,3,3,0,-8.92,1.08,-4.5,-0.25,0.26,0.01,1.6875,-1.625,0.9375,0.44757080078125,0.50048828125,0.6927490234375,-0.26312255859375,36.375,59.0625,73.0,-8.66,0.81,-4.51,stop,4
9.2,1145248.181752506,29,3,3,3,0,-8.87,1.1,-4.44,-0.2,0.28,0.07,2.3125,-0.5,0.8125,0.44757080078125,0.50067138671875,0.692626953125,-0.26318359375,36.375,59.0625,73.0,-8.66,0.81,-4.51,stop,4
9.21,1145248.225722314,29,3,3,3,0,-8.8,1.1,-4.32,-0.14,0.28,0.19,2.3125,0.5625,0.875,0.44757080078125,0.5008544921875,0.69244384765625,-0.26324462890625,37.5,58.375,73.25,-8.66,0.82,-4.51,stop,4
9.22,1145248.225722314,29,3,3,3,0,-8.75,1.16,-4.32,-0.08,0.34,0.19,2.6875,1.0,1.0,0.44757080078125,0.5010986328125,0.69232177734375,-0.26324462890625,37.5,58.375,73.25,-8.66,0.82,-4.51,stop,4
9.23,1145248.301801823,29,3,3,3,0,-8.7,1.15,-4.25,-0.03,0.32,0.26,2.5,1.3125,0.9375,0.4476318359375,0.50128173828125,0.692138671875,-0.26324462890625,37.5,58.375,73.25,-8.66,0.82,-4.51,stop,4
9.24,1145248.301801823,29,3,3,3,0,-8.59,1.06,-4.2,0.07,0.23,0.31,2.3125,2.4375,1.375,0.44757080078125,0.5015869140625,0.6920166015625,-0.26312255859375,37.5,58.375,73.25,-8.66,0.83,-4.51,stop,4
9.25,1145248.307267847,29,3,3,3,0,-8.53,1.08,-4.24,0.12,0.25,0.27,2.625,2.1875,1.1875,0.447509765625,0.5018310546875,0.69189453125,-0.2630615234375,37.5,58.375,73.25,-8.66,0.83,-4.52,stop,4
9.26,1145248.307267847,29,3,3,3,0,-8.54,1.06,-4.2,0.11,0.22,0.31,3.0625,0.8125,1.25,0.447509765625,0.5020751953125,0.691650390625,-0.26312255859375,36.0625,58.375,73.0,-8.66,0.83,-4.52,stop,4
9.27,1145248.312962915,29,3,3,3,0,-8.55,1.05,-4.19,0.1,0.21,0.32,3.625,-1.0,1.125,0.4476318359375,0.50225830078125,0.69140625,-0.2633056640625,36.0625,58.375,73.0,-8.66,0.83,-4.51,stop,4
9.28,1145248.312962915,29,3,3,3,0,-8.59,1.07,-4.24,0.06,0.23,0.26,3.9375,-2.8125,0.875,0.44781494140625,0.50244140625,0.6910400390625,-0.26361083984375,36.0625,58.375,73.0,-8.66,0.84,-4.51,stop,4
9.29,1145248.318175155,29,3,3,3,0,-8.62,1.12,-4.3,0.04,0.28,0.2,3.625,-3.8125,0.6875,0.44805908203125,0.5025634765625,0.690673828125,-0.263916015625,36.0625,58.375,73.0,-8.67,0.84,-4.5,stop,4
9.3,1145248.318175155,29,3,3,3,0,-8.7,1.12,-4.26,-0.02,0.28,0.23,2.875,-3.5,0.25,0.4482421875,0.50262451171875,0.69036865234375,-0.26416015625,36.0625,58.375,73.0,-8.67,0.84,-4.49,stop,4
9.31,1145248.323483993,29,3,3,3,0,-8.74,1.13,-4.19,-0.06,0.29,0.29,1.875,-2.9375,0.0625,0.44854736328125,0.50262451171875,0.69012451171875,-0.26434326171875,36.75,58.6875,72.5625,-8.67,0.84,-4.48,stop,4
9.32,1145248.323483993,29,3,3,3,0,-8.81,1.15,-4.19,-0.13,0.3,0.28,0.75,-2.8125,0.0,0.44891357421875,0.50262451171875,0.6898193359375,-0.26446533203125,36.75,58.6875,72.5625,-8.68,0.84,-4.48,stop,4
9.33,1145248.32861119,29,3,3,3,0,-8.84,1.16,-4.21,-0.15,0.3,0.26,-0.25,-2.8125,0.0,0.4493408203125,0.50262451171875,0.6895751953125,-0.2645263671875,36.75,58.6875,72.5625,-8.68,0.85,-4.47,stop,4
9.34,1145248.32861119,29,3,3,3,0,-8.84,1.13,-4.22,-0.15,0.28,0.24,-0.875,-2.4375,0.0,0.44976806640625,0.50250244140625,0.6893310546875,-0.2645263671875,36.75,58.6875,72.5625,-8.68,0.85,-4.46,stop,4
9.35,1145248.333876774,29,3,3,3,0,-8.85,1.14,-4.19,-0.16,0.27,0.26,-1.375,-2.125,0.0625,0.4501953125,0.50244140625,0.68914794921875,-0.26446533203125,36.75,58.6875,72.5625,-8.69,0.86,-4.45,stop,4
9.36,1145248.333876774,29,3,3,3,0,-8.81,1.08,-4.2,-0.12,0.22,0.24,-2.1875,-1.6875,0.3125,0.45062255859375,0.5023193359375,0.68902587890625,-0.264404296875,36.75,58.6875,71.75,-8.69,0.86,-4.45,stop,4
9.37,1145248.361971216,29,3,3,3,0,-8.76,1.08,-4.23,-0.07,0.21,0.21,-3.1875,-1.1875,0.25,0.45098876953125,0.502197265625,0.68890380859375,-0.26422119140625,36.75,58.6875,71.75,-8.69,0.87,-4.44,stop,4
9.38,1145248.361971216,29,3,3,3,0,-8.78,1.06,-4.28,-0.09,0.18,0.16,-4.125,-0.875,0.125,0.45135498046875,0.50201416015625,0.68890380859375,-0.26397705078125,36.75,58.6875,71.75,-8.69,0.87,-4.44,stop,4
9.39,1145248.376259994,29,3,3,3,0,-8.78,1.05,-4.23,-0.08,0.17,0.2,-4.875,0.0,0.0625,0.45172119140625,0.5018310546875,0.68890380859375,-0.263671875,36.75,58.6875,71.75,-8.69,0.88,-4.44,stop,4
9.4,1145248.376259994,29,3,3,3,0,-8.76,0.99,-4.24,-0.06,0.1,0.18,-5.1875,0.5625,-0.125,0.4520263671875,0.5015869140625,0.68902587890625,-0.2633056640625,36.75,58.6875,71.75,-8.69,0.88,-4.43,stop,4
9.41,1145248.407673893,29,3,3,3,0,-8.73,0.98,-4.19,-0.03,0.09,0.24,-5.375,0.9375,0.0,0.45233154296875,0.50140380859375,0.6890869140625,-0.262939453125,36.75,58.375,71.75,-8.69,0.89,-4.43,stop,4
9.42,1145248.407673893,29,3,3,3,0,-8.73,1.0,-4.16,-0.03,0.1,0.27,-5.3125,1.0625,0.0,0.45257568359375,0.501220703125,0.689208984375,-0.2625732421875,36.75,58.375,71.75,-8.69,0.89,-4.43,stop,4
9.43,1145248.413369613,29,3,3,3,0,-8.68,1.04,-4.15,0.01,0.14,0.27,-5.25,1.1875,0.0,0.452880859375,0.50103759765625,0.68927001953125,-0.26220703125,36.75,58.375,71.75,-8.69,0.9,-4.43,stop,4
9.44,1145248.413369613,29,3,3,3,0,-8.66,1.07,-4.11,0.03,0.16,0.31,-5.3125,1.1875,0.0,0.45318603515625,0.5008544921875,0.68939208984375,-0.2618408203125,36.75,58.375,71.75,-8.69,0.91,-4.43,stop,4
9.45,1145248.435870426,29,3,3,3,0,-8.64,1.08,-4.1,0.05,0.17,0.33,-5.4375,0.75,0.0,0.4534912109375,0.5006103515625,0.689453125,-0.261474609375,36.75,58.375,71.75,-8.7,0.91,-4.43,stop,4
9.46,1145248.435870426,29,3,3,3,0,-8.66,1.1,-4.07,0.03,0.18,0.35,-5.875,0.3125,0.0,0.4539794921875,0.5003662109375,0.689453125,-0.2611083984375,36.375,58.6875,72.5625,-8.7,0.92,-4.42,stop,4
9.47,1145248.466114201,29,3,3,3,0,-8.61,1.1,-4.14,0.08,0.17,0.27,-6.4375,0.0,-0.0625,0.45440673828125,0.5001220703125,0.68951416015625,-0.2607421875,36.375,58.6875,72.5625,-8.7,0.93,-4.42,stop,4
9.48,1145248.466114201,29,3,3,3,0,-8.64,1.13,-4.19,0.05,0.19,0.22,-6.75,-0.375,-0.3125,0.454833984375,0.4998779296875,0.6895751953125,-0.26031494140625,36.375,58.6875,72.5625,-8.7,0.93,-4.42,stop,4
9.49,1145248.471615951,29,3,3,3,0,-8.65,1.13,-4.16,0.04,0.19,0.25,-6.8125,-1.125,-0.5625,0.455322265625,0.49951171875,0.68963623046875,-0.25994873046875,36.375,58.6875,72.5625,-8.7,0.94,-4.41,stop,4
9.5,1145248.471615951,29,3,3,3,0,-8.68,1.14,-4.17,0.01,0.19,0.23,-6.3125,-1.625,-0.625,0.45574951171875,0.49920654296875,0.689697265625,-0.2596435546875,36.375,58.6875,72.5625,-8.7,0.95,-4.41,stop,4
9.51,1145248.51162478,29,3,3,3,0,-8.77,1.14,-4.18,-0.06,0.18,0.21,-5.5625,-1.8125,-0.6875,0.45623779296875,0.4989013671875,0.689697265625,-0.25933837890625,36.75,58.6875,73.0,-8.7,0.95,-4.4,stop,4
9.52,1145248.51162478,29,3,3,3,0,-8.78,1.13,-4.25,-0.07,0.17,0.14,-4.625,-2.1875,-0.4375,0.4566650390625,0.4986572265625,0.68963623046875,-0.2591552734375,36.75,58.6875,73.0,-8.71,0.96,-4.39,stop,4
9.53,1145248.520367944,29,3,3,3,0,-8.81,1.14,-4.29,-0.09,0.18,0.09,-3.5,-2.75,-0.375,0.45709228515625,0.49847412109375,0.6895751953125,-0.259033203125,36.75,58.6875,73.0,-8.71,0.96,-4.39,stop,4
9.54,1145248.520367944,29,3,3,3,0,-8.81,1.12,-4.3,-0.1,0.15,0.08,-2.1875,-3.1875,-0.25,0.45745849609375,0.49835205078125,0.689453125,-0.259033203125,36.75,58.6875,73.0,-8.71,0.96,-4.38,stop,4
9.55,1145248.528334701,29,3,3,3,0,-8.81,1.16,-4.35,-0.09,0.19,0.02,-1.0,-3.125,0.0,0.45770263671875,0.49822998046875,0.68927001953125,-0.25909423828125,36.75,58.6875,73.0,-8.71,0.97,-4.38,stop,4
9.56,1145248.528334701,29,3,3,3,0,-8.78,1.2,-4.36,-0.06,0.23,0.0,-0.4375,-2.625,0.0,0.45794677734375,0.4981689453125,0.68914794921875,-0.2591552734375,36.375,57.5625,73.25,-8.72,0.97,-4.37,stop,4
9.57,1145248.555900944,29,3,3,3,0,-8.75,1.2,-4.34,-0.02,0.23,0.02,-0.375,-2.0625,0.0,0.4581298828125,0.4981689453125,0.68902587890625,-0.25921630859375,36.375,57.5625,73.25,-8.72,0.97,-4.37,stop,4
9.58,1145248.555900944,29,3,3,3,0,-8.75,1.18,-4.3,-0.02,0.21,0.06,-0.5,-1.9375,0.0,0.458251953125,0.4981689453125,0.68890380859375,-0.25927734375,36.375,57.5625,73.25,-8.72,0.97,-4.36,stop,4
9.59,1145248.676423649,29,3,3,3,0,-8.76,1.17,-4.33,-0.03,0.19,0.03,-0.5,-2.1875,-0.25,0.45843505859375,0.49810791015625,0.6888427734375,-0.25927734375,36.375,57.5625,73.25,-8.72,0.97,-4.36,stop,4
9.6,1145248.676423649,29,3,3,3,0,-8.74,1.14,-4.35,-0.01,0.16,0.0,-0.125,-2.625,-0.0625,0.4586181640625,0.49810791015625,0.68865966796875,-0.2593994140625,36.375,57.5625,73.25,-8.72,0.97,-4.36,stop,4
9.61,1145248.706342391,29,3,3,3,0,-8.73,1.13,-4.36,0.0,0.15,-0.01,0.875,-2.625,-0.1875,0.45880126953125,0.498046875,0.68853759765625,-0.259521484375,36.0625,58.0,72.5625,-8.73,0.97,-4.35,stop,4
9.62,1145248.706342391,29,3,3,3,0,-8.69,1.09,-4.36,0.03,0.12,-0.01,2.125,-2.3125,-0.125,0.4588623046875,0.49810791015625,0.6883544921875,-0.25970458984375,36.0625,58.0,72.5625,-8.73,0.97,-4.35,stop,4
9.63,1145248.752771346,29,3,3,3,0,-8.72,1.08,-4.37,0.01,0.1,-0.02,3.1875,-1.8125,0.0,0.4588623046875,0.49822998046875,0.688232421875,-0.25994873046875,36.0625,58.0,72.5625,-8.73,0.97,-4.35,stop,4
9.64,1145248.752771346,29,3,3,3,0,-8.73,1.08,-4.34,0.0,0.11,0.0,3.875,-1.625,-0.0625,0.45880126953125,0.49835205078125,0.68804931640625,-0.26025390625,36.0625,58.0,72.5625,-8.73,0.97,-4.34,stop,4
9.65,1145248.766190821,29,3,3,3,0,-8.73,1.1,-4.29,0.0,0.13,0.05,4.3125,-1.5,0.0,0.458740234375,0.49853515625,0.6878662109375,-0.26055908203125,36.0625,58.0,72.5625,-8.73,0.97,-4.34,stop,4
9.66,1145248.766190821,29,3,3,3,0,-8.68,1.1,-4.26,0.05,0.14,0.08,4.0,-1.6875,0.0,0.45867919921875,0.4986572265625,0.68768310546875,-0.2608642578125,36.0625,58.375,73.0,-8.73,0.96,-4.34,stop,4
9.67,1145248.841773828,29,3,3,3,0,-8.65,1.08,-4.31,0.08,0.11,0.03,3.8125,-2.0,0.125,0.45867919921875,0.498779296875,0.6875,-0.2611083984375,36.0625,58.375,73.0,-8.73,0.96,-4.34,stop,4
9.68,1145248.841773828,29,3,3,3,0,-8.64,1.07,-4.39,0.09,0.11,-0.05,3.8125,-2.4375,0.125,0.4586181640625,0.4989013671875,0.68731689453125,-0.26141357421875,36.0625,58.375,73.0,-8.74,0.96,-4.34,stop,4
9.69,1145248.855188216,29,3,3,3,0,-8.64,1.03,-4.39,0.09,0.07,-0.05,4.0,-2.375,0.5,0.4586181640625,0.4990234375,0.6871337890625,-0.26177978515625,36.0625,58.375,73.0,-8.74,0.96,-4.33,stop,4
9.7,1145248.855188216,29,3,3,3,0,-8.73,0.97,-4.3,0.0,0.01,0.02,4.0625,-2.125,0.6875,0.4586181640625,0.49920654296875,0.6868896484375,-0.26202392578125,36.0625,58.375,73.0,-8.74,0.95,-4.33,stop,4
9.71,1145248.916807194,29,3,3,3,0,-8.76,0.98,-4.31,-0.01,0.02,0.01,4.125,-2.125,0.8125,0.45855712890625,0.49932861328125,0.68670654296875,-0.2623291015625,36.75,59.0625,72.1875,-8.74,0.95,-4.33,stop,4
9.72,1145248.916807194,29,3,3,3,0,-8.77,0.98,-4.34,-0.03,0.03,-0.01,3.75,-2.625,0.875,0.45855712890625,0.49951171875,0.68646240234375,-0.26263427734375,36.75,59.0625,72.1875,-8.74,0.95,-4.32,stop,4
9.73,1145248.923378076,29,3,3,3,0,-8.75,0.98,-4.34,-0.01,0.02,-0.02,3.5,-2.875,0.875,0.4586181640625,0.4996337890625,0.68621826171875,-0.262939453125,36.75,59.0625,72.1875,-8.74,0.95,-4.32,stop,4
9.74,1145248.923378076,29,3,3,3,0,-8.73,0.94,-4.32,0.02,-0.01,0.0,3.0625,-2.8125,0.5,0.45867919921875,0.49969482421875,0.68603515625,-0.26324462890625,36.75,59.0625,72.1875,-8.75,0.95,-4.32,stop,4
9.75,1145248.928482243,29,3,3,3,0,-8.74,0.91,-4.33,0.01,-0.03,-0.01,2.5,-2.5,0.25,0.458740234375,0.499755859375,0.68585205078125,-0.26348876953125,36.75,59.0625,72.1875,-8.75,0.95,-4.31,stop,4
9.77,1145248.928482243,29,3,3,3,0,-8.76,0.89,-4.32,0.0,-0.05,-0.01,1.8125,-2.0,-0.1875,0.458740234375,0.499755859375,0.68572998046875,-0.26373291015625,37.5,58.6875,73.0,-8.75,0.95,-4.31,stop,4
9.77,1145248.934283269,29,3,3,3,0,-8.81,0.88,-4.33,-0.06,-0.06,-0.01,1.3125,-1.9375,-0.6875,0.45880126953125,0.499755859375,0.6856689453125,-0.263916015625,37.5,58.6875,73.0,-8.75,0.94,-4.31,stop,4
9.78,1145248.934283269,29,3,3,3,0,-8.84,0.89,-4.3,-0.08,-0.05,0.0,0.8125,-1.9375,-1.0,0.4588623046875,0.4996337890625,0.68560791015625,-0.26409912109375,37.5,58.6875,73.0,-8.75,0.94,-4.3,stop,4
9.79,1145248.938628321,29,3,3,3,0,-8.82,0.88,-4.3,-0.06,-0.05,0.0,0.125,-1.4375,-1.4375,0.45892333984375,0.49951171875,0.68560791015625,-0.26422119140625,37.5,58.6875,73.0,-8.75,0.94,-4.3,stop,4
9.8,1145248.938628321,29,3,3,3,0,-8.83,0.86,-4.31,-0.07,-0.07,-0.01,-0.25,-1.25,-1.625,0.458984375,0.4993896484375,0.68560791015625,-0.26434326171875,37.5,58.6875,73.0,-8.76,0.94,-4.3,stop,4
9.81,1145248.941553939,29,3,3,3,0,-8.81,0.89,-4.26,-0.05,-0.04,0.03,-0.5625,-0.875,-1.9375,0.458984375,0.49920654296875,0.6856689453125,-0.264404296875,37.0625,57.5625,72.5625,-8.76,0.93,-4.3,stop,4
9.82,1145248.941553939,29,3,3,3,0,-8.81,0.91,-4.25,-0.05,-0.02,0.04,-1.0,-0.3125,-2.0625,0.45904541015625,0.49908447265625,0.685791015625,-0.26446533203125,37.0625,57.5625,72.5625,-8.76,0.93,-4.3,stop,4
9.83,1145248.944370345,29,3,3,3,0,-8.78,0.94,-4.24,-0.02,0.01,0.05,-1.25,-0.1875,-2.25,0.45904541015625,0.4989013671875,0.6859130859375,-0.26446533203125,37.0625,57.5625,72.5625,-8.76,0.93,-4.3,stop,4
9.84,1145248.944370345,29,3,3,3,0,-8.75,0.94,-4.24,0.0,0.01,0.06,-1.5,-0.125,-2.3125,0.45904541015625,0.4986572265625,0.68603515625,-0.26446533203125,37.0625,57.5625,72.5625,-8.76,0.93,-4.3,stop,4
9.85,1145248.993193669,29,3,3,3,0,-8.74,0.97,-4.24,0.02,0.04,0.05,-1.625,0.0,-2.5,0.45904541015625,0.49847412109375,0.6861572265625,-0.26446533203125,37.0625,57.5625,72.5625,-8.76,0.92,-4.3,stop,4
9.86,1145248.993193669,29,3,3,3,0,-8.72,1.02,-4.22,0.04,0.09,0.07,-1.8125,0.0625,-2.5625,0.4591064453125,0.49822998046875,0.68634033203125,-0.26446533203125,37.0625,57.5625,72.0625,-8.76,0.92,-4.3,stop,4
9.87,1145248.999428125,29,3,3,3,0,-8.73,1.05,-4.18,0.03,0.12,0.11,-1.6875,0.0,-2.5,0.45916748046875,0.498046875,0.68646240234375,-0.264404296875,37.0625,57.5625,72.0625,-8.76,0.92,-4.3,stop,4
9.88,1145248.999428125,29,3,3,3,0,-8.75,1.06,-4.19,0.01,0.14,0.1,-1.9375,-0.375,-2.5625,0.45916748046875,0.497802734375,0.68658447265625,-0.264404296875,37.0625,57.5625,72.0625,-8.76,0.92,-4.29,stop,4
9.89,1145249.004773747,29,3,3,3,0,-8.74,1.06,-4.24,0.02,0.13,0.04,-1.75,-0.75,-2.5625,0.45928955078125,0.49755859375,0.68670654296875,-0.264404296875,37.0625,57.5625,72.0625,-8.76,0.92,-4.29,stop,4
9.9,1145249.004773747,29,3,3,3,0,-8.75,1.1,-4.24,0.01,0.18,0.04,-1.125,-1.1875,-2.75,0.4593505859375,0.497314453125,0.686767578125,-0.26446533203125,37.0625,57.5625,72.0625,-8.76,0.91,-4.29,stop,4
9.91,1145249.009975244,29,3,3,3,0,-8.76,1.13,-4.15,0.0,0.22,0.13,-0.75,-1.375,-2.5625,0.45947265625,0.49713134765625,0.68682861328125,-0.26458740234375,36.75,58.6875,73.25,-8.76,0.91,-4.29,stop,4
9.92,1145249.009975244,29,3,3,3,0,-8.8,1.16,-4.24,-0.03,0.25,0.04,-0.0625,-1.4375,-2.6875,0.45953369140625,0.4969482421875,0.68682861328125,-0.26470947265625,36.75,58.6875,73.25,-8.77,0.91,-4.29,stop,4
9.93,1145249.015118514,29,3,3,3,0,-8.79,1.18,-4.21,-0.02,0.27,0.07,0.5,-1.5,-2.8125,0.45965576171875,0.49676513671875,0.6868896484375,-0.26483154296875,36.75,58.6875,73.25,-8.77,0.91,-4.28,stop,4
9.94,1145249.015118514,29,3,3,3,0,-8.8,1.16,-4.13,-0.02,0.25,0.15,0.4375,-1.0,-2.8125,0.459716796875,0.49664306640625,0.6868896484375,-0.26495361328125,36.75,58.6875,73.25,-8.77,0.9,-4.28,stop,4
9.95,1145249.020222071,29,3,3,3,0,-8.77,1.13,-4.05,0.0,0.23,0.22,0.6875,0.4375,-2.625,0.459716796875,0.49652099609375,0.68695068359375,-0.2650146484375,36.75,58.6875,73.25,-8.77,0.9,-4.28,stop,4
9.96,1145249.020222071,29,3,3,3,0,-8.75,1.09,-4.22,0.01,0.19,0.05,1.0625,1.1875,-2.4375,0.4595947265625,0.4964599609375,0.68701171875,-0.26513671875,36.75,59.0625,71.0,-8.77,0.9,-4.28,stop,4
9.97,1145249.023629297,29,3,3,3,0,-8.74,1.08,-4.24,0.02,0.18,0.04,1.5,0.125,-2.25,0.45953369140625,0.49639892578125,0.68707275390625,-0.2652587890625,36.75,59.0625,71.0,-8.77,0.89,-4.28,stop,4
9.98,1145249.023629297,29,3,3,3,0,-8.72,1.07,-4.24,0.05,0.18,0.04,1.875,-0.5,-2.0625,0.45947265625,0.49639892578125,0.68707275390625,-0.265380859375,36.75,59.0625,71.0,-8.77,0.89,-4.28,stop,4
9.99,1145249.026496037,29,3,3,3,0,-8.65,1.06,-4.24,0.11,0.17,0.03,1.8125,-1.25,-1.875,0.45947265625,0.496337890625,0.68701171875,-0.265625,36.75,59.0625,71.0,-8.77,0.89,-4.28,stop,4
10.0,1145249.026496037,29,3,3,3,0,-8.63,1.02,-4.3,0.14,0.13,-0.02,0.875,-1.75,-1.5625,0.45947265625,0.49627685546875,0.68701171875,-0.2657470703125,36.75,59.0625,71.0,-8.77,0.89,-4.28,stop,4
10.01,1145249.029454086,29,3,3,3,0,-8.65,1.01,-4.29,0.12,0.12,-0.02,0.1875,-2.0,-1.25,0.4595947265625,0.49615478515625,0.68695068359375,-0.265869140625,36.75,58.375,72.5625,-8.77,0.89,-4.27,stop,4
10.02,1145249.029454086,29,3,3,3,0,-8.68,1.0,-4.26,0.09,0.11,0.0,0.1875,-1.9375,-0.5625,0.459716796875,0.49609375,0.6868896484375,-0.26593017578125,36.75,58.375,72.5625,-8.78,0.89,-4.27,stop,4
10.03,1145249.032504257,29,3,3,3,0,-8.7,1.01,-4.27,0.08,0.12,0.0,0.5625,-2.25,-0.0625,0.4598388671875,0.49609375,0.686767578125,-0.2659912109375,36.75,58.375,72.5625,-8.78,0.89,-4.27,stop,4
10.04,1145249.032504257,29,3,3,3,0,-8.77,0.97,-4.25,0.0,0.08,0.01,1.25,-1.75,0.625,0.45989990234375,0.49615478515625,0.6866455078125,-0.26611328125,36.75,58.375,72.5625,-8.78,0.89,-4.26,stop,4
10.05,1145249.037042546,29,3,3,3,0,-8.77,0.94,-4.22,0.0,0.05,0.04,1.5,-1.25,1.0625,0.4599609375,0.49627685546875,0.6865234375,-0.2662353515625,36.75,58.375,72.5625,-8.78,0.89,-4.26,stop,4
10.06,1145249.037042546,29,3,3,3,0,-8.79,0.94,-4.22,-0.01,0.04,0.04,1.625,-0.875,1.4375,0.46002197265625,0.49639892578125,0.68634033203125,-0.26629638671875,36.0625,58.6875,72.1875,-8.78,0.89,-4.26,stop,4
10.07,1145249.052728337,29,3,3,3,0,-8.79,0.91,-4.21,0.0,0.01,0.05,1.5,-0.75,1.9375,0.46002197265625,0.49658203125,0.68621826171875,-0.26629638671875,36.0625,58.6875,72.1875,-8.78,0.89,-4.26,stop,4
10.09,1145249.052728337,29,3,3,3,0,-8.77,0.9,-4.27,0.0,0.0,-0.01,1.3125,-0.9375,2.125,0.4600830078125,0.4967041015625,0.68603515625,-0.266357421875,36.0625,58.6875,72.1875,-8.78,0.89,-4.26,stop,4
10.09,1145249.143645451,29,3,3,3,0,-8.72,0.9,-4.27,0.05,0.0,-0.01,1.125,-0.9375,2.1875,0.46014404296875,0.49688720703125,0.68585205078125,-0.266357421875,36.0625,58.6875,72.1875,-8.78,0.9,-4.26,stop,4
10.1,1145249.143645451,29,3,3,3,0,-8.71,0.91,-4.25,0.07,0.0,0.0,1.25,-0.9375,2.1875,0.460205078125,0.4970703125,0.6856689453125,-0.26641845703125,36.0625,58.6875,72.1875,-8.78,0.9,-4.26,stop,4
10.11,1145249.149581527,29,3,3,3,0,-8.7,0.91,-4.28,0.07,0.0,-0.02,1.25,-0.9375,2.125,0.46026611328125,0.4971923828125,0.685546875,-0.26641845703125,36.75,58.375,71.375,-8.78,0.9,-4.25,stop,4
10.12,1145249.149581527,29,3,3,3,0,-8.7,0.9,-4.29,0.08,0.0,-0.03,1.375,-1.0625,2.125,0.4603271484375,0.49737548828125,0.68536376953125,-0.2664794921875,36.75,58.375,71.375,-8.78,0.9,-4.25,stop,4
10.13,1145249.155026026,29,3,3,3,0,-8.69,0.9,-4.27,0.09,0.0,-0.01,1.5625,-1.4375,2.125,0.46038818359375,0.49755859375,0.6851806640625,-0.26654052734375,36.75,58.375,71.375,-8.78,0.91,-4.25,stop,4
10.14,1145249.155026026,29,3,3,3,0,-8.7,0.89,-4.26,0.08,-0.01,-0.01,1.8125,-1.875,1.875,0.46044921875,0.4976806640625,0.68499755859375,-0.26666259765625,36.75,58.375,71.375,-8.78,0.91,-4.25,stop,4
10.15,1145249.160142196,29,3,3,3,0,-8.67,0.93,-4.25,0.11,0.02,0.0,2.0625,-2.0625,1.8125,0.4605712890625,0.497802734375,0.68475341796875,-0.26678466796875,36.75,58.375,71.375,-8.79,0.91,-4.25,stop,4
10.17,1145249.160142196,29,3,3,3,0,-8.64,0.94,-4.25,0.14,0.03,0.0,2.1875,-2.4375,1.75,0.46063232421875,0.49798583984375,0.68450927734375,-0.2669677734375,36.375,59.5,72.0625,-8.79,0.91,-4.24,stop,4
10.18,1145249.186435979,29,3,3,3,0,-8.62,0.93,-4.24,0.16,0.01,0.0,2.375,-2.75,1.6875,0.46075439453125,0.49810791015625,0.68426513671875,-0.26715087890625,36.375,59.5,72.0625,-8.79,0.91,-4.24,stop,4
10.18,1145249.186435979,29,3,3,3,0,-8.61,0.94,-4.24,0.18,0.03,-0.01,2.6875,-3.0625,1.625,0.4608154296875,0.49822998046875,0.68402099609375,-0.267333984375,36.375,59.5,72.0625,-8.79,0.91,-4.23,stop,4
10.19,1145249.191979273,29,3,3,3,0,-8.53,0.95,-4.2,0.26,0.03,0.03,2.75,-3.6875,1.5625,0.46099853515625,0.49835205078125,0.68377685546875,-0.267578125,36.375,59.5,72.0625,-8.79,0.91,-4.23,stop,4
10.2,1145249.191979273,29,3,3,3,0,-8.44,0.95,-4.13,0.35,0.04,0.08,2.6875,-4.1875,1.5,0.46112060546875,0.49847412109375,0.6834716796875,-0.26788330078125,36.375,59.5,72.0625,-8.8,0.91,-4.22,stop,4
10.21,1145249.197706853,29,3,3,3,0,-8.39,0.96,-4.08,0.4,0.04,0.13,2.4375,-4.8125,1.5625,0.46136474609375,0.49859619140625,0.68310546875,-0.26812744140625,37.0625,58.375,72.1875,-8.8,0.91,-4.22,stop,4
10.22,1145249.197706853,29,3,3,3,0,-8.32,0.94,-3.97,0.48,0.02,0.24,2.0625,-5.625,1.625,0.461669921875,0.4986572265625,0.68280029296875,-0.2684326171875,37.0625,58.375,72.1875,-8.8,0.92,-4.21,stop,4
10.23,1145249.230806747,29,3,3,3,0,-8.17,0.85,-4.01,0.63,-0.06,0.19,1.6875,-6.6875,1.5625,0.4620361328125,0.4986572265625,0.682373046875,-0.26873779296875,37.0625,58.375,72.1875,-8.81,0.92,-4.2,stop,4
10.24,1145249.230806747,29,3,3,3,0,-8.02,0.73,-4.04,0.79,-0.18,0.14,1.875,-8.8125,1.6875,0.4625244140625,0.49859619140625,0.681884765625,-0.2691650390625,37.0625,58.375,72.1875,-8.81,0.92,-4.18,stop,4
10.25,1145249.262320826,29,3,3,3,0,-7.87,0.66,-4.18,0.95,-0.26,-0.01,2.6875,-11.875,2.25,0.463134765625,0.49859619140625,0.6812744140625,-0.269775390625,37.0625,58.375,72.1875,-8.82,0.92,-4.17,stop,4
10.26,1145249.262320826,29,3,3,3,0,-7.87,0.66,-4.18,0.95,-0.26,-0.01,2.6875,-11.875,2.25,0.463134765625,0.49859619140625,0.6812744140625,-0.269775390625,37.0625,58.375,72.1875,-8.82,0.92,-4.17,stop,4
10.27,1145249.26781049,29,3,3,3,0,-7.41,0.56,-4.47,1.41,-0.36,-0.32,4.1875,-14.625,2.875,0.46392822265625,0.49859619140625,0.680419921875,-0.27056884765625,36.75,58.6875,72.0625,-8.83,0.92,-4.15,stop,4
10.27,1145249.26781049,29,3,3,3,0,-7.08,0.57,-4.54,1.75,-0.35,-0.41,5.75,-15.25,3.3125,0.46466064453125,0.4986572265625,0.6795654296875,-0.27142333984375,36.75,58.6875,72.0625,-8.84,0.92,-4.12,stop,4
10.28,1145249.291624333,29,3,3,3,0,-6.61,0.51,-4.5,2.23,-0.4,-0.39,7.0625,-13.5625,3.875,0.4652099609375,0.49884033203125,0.67864990234375,-0.27227783203125,36.75,58.6875,72.0625,-8.85,0.92,-4.1,stop,4
10.29,1145249.291624333,29,3,3,3,0,-6.12,0.41,-4.24,2.73,-0.51,-0.14,6.8125,-8.875,4.125,0.465576171875,0.4991455078125,0.677978515625,-0.27288818359375,36.75,58.6875,72.0625,-8.86,0.92,-4.09,stop,4
10.3,1145249.296902084,29,3,3,3,0,-5.12,0.27,-3.19,3.73,-0.65,0.9,4.375,-1.4375,3.6875,0.46551513671875,0.49951171875,0.6776123046875,-0.2730712890625,36.75,58.6875,72.0625,-8.86,0.93,-4.09,stop,4
10.31,1145249.296902084,29,3,3,3,0,-4.63,0.23,-2.67,4.22,-0.69,1.42,2.0625,8.0625,3.125,0.46502685546875,0.5,0.67779541015625,-0.272705078125,37.5,58.6875,71.375,-8.85,0.93,-4.1,stop,4
10.32,1145249.366158025,29,3,3,3,0,-4.29,0.12,-2.2,4.54,-0.81,1.92,0.625,18.125,2.875,0.4639892578125,0.50067138671875,0.6783447265625,-0.27178955078125,37.5,58.6875,71.375,-8.84,0.93,-4.13,stop,4
10.33,1145249.366158025,29,3,3,3,0,-4.07,0.06,-1.79,4.74,-0.88,2.37,0.1875,26.75,3.0625,0.46246337890625,0.50146484375,0.6793212890625,-0.2705078125,37.5,58.6875,71.375,-8.82,0.94,-4.17,stop,4
10.35,1145249.371604761,29,3,3,3,0,-3.74,-0.14,-1.16,5.05,-1.09,3.06,0.75,31.375,3.0,0.460693359375,0.50244140625,0.680419921875,-0.26904296875,37.5,58.6875,71.375,-8.79,0.94,-4.22,stop,4
10.35,1145249.371604761,29,3,3,3,0,-3.81,-0.29,-0.77,4.96,-1.25,3.49,1.125,29.0625,2.625,0.45892333984375,0.5032958984375,0.68145751953125,-0.26776123046875,37.5,58.6875,71.375,-8.77,0.95,-4.26,stop,4
10.36,1145249.377038477,29,3,3,3,0,-4.2,-0.41,-0.09,4.55,-1.37,4.2,0.5,20.5,2.25,0.457763671875,0.50390625,0.68218994140625,-0.2667236328125,38.5625,59.5,70.5625,-8.76,0.95,-4.3,stop,4
10.37,1145249.377038477,29,3,3,3,0,-5.1,-0.29,0.54,3.64,-1.24,4.86,1.9375,10.75,2.5625,0.45709228515625,0.50439453125,0.68243408203125,-0.26629638671875,38.5625,59.5,70.5625,-8.75,0.95,-4.31,stop,4
10.38,1145249.382490585,29,3,3,3,0,-8.81,0.16,0.38,-0.05,-0.78,4.69,7.875,-2.875,3.5625,0.45703125,0.5048828125,0.6820068359375,-0.2667236328125,38.5625,59.5,70.5625,-8.75,0.95,-4.31,stop,4
10.39,1145249.382490585,29,3,3,3,0,-11.38,0.64,-1.17,-2.61,-0.3,3.09,11.125,-31.6875,3.25,0.45849609375,0.5047607421875,0.6802978515625,-0.2686767578125,38.5625,59.5,70.5625,-8.77,0.95,-4.26,stop,4
10.4,1145249.395398747,29,3,3,3,0,-15.19,1.76,-3.58,-6.34,0.81,0.54,9.9375,-88.5,1.5,0.46331787109375,0.503173828125,0.67645263671875,-0.27313232421875,38.5625,59.5,70.5625,-8.84,0.94,-4.13,stop,4
10.41,1145249.395398747,29,3,3,3,0,-20.49,3.72,-8.8,-11.52,2.77,-4.96,1.1875,-184.375,2.1875,0.47418212890625,0.4989013671875,0.66876220703125,-0.2811279296875,36.375,58.375,71.375,-8.97,0.95,-3.84,stop,4
10.43,1145249.411147486,29,3,3,3,0,-30.61,6.02,-15.51,-21.44,5.05,-12.17,-35.3125,-320.5,-1.0,0.49420166015625,0.48931884765625,0.65618896484375,-0.29296875,36.375,58.375,71.375,-9.17,0.97,-3.33,stop,4
10.43,1145249.411147486,29,3,3,3,0,-38.01,7.01,-16.46,-28.7,6.02,-13.56,-76.125,-262.625,-13.25,0.511962890625,0.4783935546875,0.64715576171875,-0.30029296875,36.375,58.375,71.375,-9.31,0.99,-2.89,stop,4
10.44,1145249.425646876,29,3,3,3,0,-39.45,4.56,-11.83,-30.13,3.58,-8.95,-1.4375,-9.5,-5.875,0.512451171875,0.477783203125,0.64703369140625,-0.3009033203125,36.375,58.375,71.375,-9.32,0.98,-2.88,stop,4
10.45,1145249.425646876,29,3,3,3,0,-24.22,1.54,-4.24,-14.98,0.57,-1.07,62.5625,166.25,17.0625,0.5008544921875,0.48583984375,0.65203857421875,-0.29669189453125,36.375,58.375,71.375,-9.23,0.97,-3.16,stop,4
10.46,1145249.457350326,29,3,3,3,0,-20.51,2.24,-4.35,-11.36,1.24,-0.98,43.0625,128.6875,25.125,0.4923095703125,0.492431640625,0.6553955078125,-0.29254150390625,39.25,57.6875,70.5625,-9.15,0.99,-3.37,stop,4
10.47,1145249.457350326,29,3,3,3,0,-17.37,3.27,-5.53,-8.25,2.25,-2.08,15.6875,46.5625,19.9375,0.489501953125,0.49542236328125,0.6561279296875,-0.29058837890625,39.25,57.6875,70.5625,-9.12,1.01,-3.45,stop,4
10.49,1145249.462741358,29,3,3,3,0,-14.79,2.36,-7.36,-5.67,1.31,-3.9,-8.0,2.0625,18.5,0.49017333984375,0.4962158203125,0.6556396484375,-0.28924560546875,39.25,57.6875,70.5625,-9.11,1.05,-3.45,stop,4
10.49,1145249.462741358,29,3,3,3,0,-11.95,0.46,-8.18,-2.85,-0.61,-4.68,-9.5,26.9375,15.1875,0.48944091796875,0.497314453125,0.6563720703125,-0.286865234375,39.25,57.6875,70.5625,-9.09,1.08,-3.49,stop,4
10.51,1145249.501423406,29,3,3,3,0,-9.98,0.47,-5.81,-0.95,-0.61,-2.16,22.125,99.4375,13.3125,0.48309326171875,0.50152587890625,0.659423828125,-0.28326416015625,39.25,57.6875,70.5625,-9.03,1.08,-3.65,stop,4
10.52,1145249.501423406,29,3,3,3,0,-8.08,0.29,-3.55,0.84,-0.78,0.33,44.25,143.75,12.9375,0.47320556640625,0.50762939453125,0.66375732421875,-0.2789306640625,38.75,58.6875,70.0625,-8.93,1.07,-3.88,stop,4
10.52,1145249.532350733,29,3,3,3,0,-6.49,0.32,-1.91,2.33,-0.74,2.19,38.5625,138.5,12.4375,0.4637451171875,0.51324462890625,0.66790771484375,-0.2745361328125,38.75,58.6875,70.0625,-8.83,1.07,-4.11,stop,4
10.53,1145249.532350733,29,3,3,3,0,-4.06,0.41,-0.44,4.68,-0.65,3.85,19.875,120.0,9.875,0.4560546875,0.51751708984375,0.67181396484375,-0.2698974609375,38.75,58.6875,70.0625,-8.74,1.07,-4.29,stop,4
10.54,1145249.546127263,29,3,3,3,0,-4.06,0.41,-0.44,4.68,-0.65,3.85,19.875,120.0,9.875,0.4560546875,0.51751708984375,0.67181396484375,-0.2698974609375,38.75,58.6875,70.0625,-8.74,1.07,-4.29,stop,4
10.55,1145249.546127263,29,3,3,3,0,-2.97,0.3,-0.15,5.69,-0.77,4.3,-3.4375,106.8125,8.3125,0.45013427734375,0.52032470703125,0.67572021484375,-0.2645263671875,38.75,58.6875,70.0625,-8.66,1.08,-4.45,stop,4
10.55,1145249.551935735,29,3,3,3,0,-2.12,0.28,0.01,6.46,-0.82,4.61,-21.0625,101.125,6.0,0.44525146484375,0.52215576171875,0.67987060546875,-0.2584228515625,38.75,58.6875,70.0625,-8.58,1.11,-4.6,stop,4
10.57,1145249.551935735,29,3,3,3,0,-1.37,0.0,0.25,7.13,-1.14,4.99,-30.8125,94.375,3.375,0.441162109375,0.5233154296875,0.68408203125,-0.252197265625,38.1875,58.375,69.25,-8.5,1.14,-4.74,stop,4
10.58,1145249.556977808,29,3,3,3,0,0.51,-0.89,0.43,8.93,-2.07,5.31,-37.4375,94.875,3.3125,0.437255859375,0.52410888671875,0.6883544921875,-0.2454833984375,38.1875,58.375,69.25,-8.42,1.18,-4.87,stop,4
10.59,1145249.556977808,29,3,3,3,0,1.56,-0.98,0.26,9.91,-2.2,5.27,-35.625,97.25,3.4375,0.43310546875,0.5250244140625,0.692626953125,-0.23876953125,38.1875,58.375,69.25,-8.34,1.21,-5.0,stop,4
10.6,1145249.576245386,29,3,3,3,0,2.45,-0.98,-0.05,10.71,-2.23,5.07,-28.125,91.9375,4.5625,0.428955078125,0.526123046875,0.69647216796875,-0.232666015625,38.1875,58.375,69.25,-8.26,1.24,-5.13,stop,4
10.6,1145249.576245386,29,3,3,3,0,4.13,-0.79,0.4,12.32,-2.07,5.63,-20.8125,68.0625,4.8125,0.42584228515625,0.52703857421875,0.69921875,-0.22808837890625,38.1875,58.375,69.25,-8.19,1.27,-5.22,stop,4
10.61,1145249.591525334,29,3,3,3,0,4.66,-1.07,0.9,12.82,-2.36,6.17,-13.875,34.9375,3.5,0.4244384765625,0.52740478515625,0.70062255859375,-0.22552490234375,37.375,56.5625,70.875,-8.16,1.29,-5.27,stop,4
10.62,1145249.591525334,29,3,3,3,0,5.02,-1.42,1.79,13.18,-2.72,7.07,-10.75,2.0625,-0.625,0.4248046875,0.5269775390625,0.700927734375,-0.22479248046875,37.375,56.5625,70.875,-8.16,1.3,-5.27,stop,4
10.63,1145249.605850163,29,3,3,3,0,5.15,-1.39,2.88,13.34,-2.69,8.12,-7.8125,-30.3125,-4.5625,0.42694091796875,0.52581787109375,0.7001953125,-0.225830078125,37.375,56.5625,70.875,-8.19,1.3,-5.23,stop,4
10.64,1145249.605850163,29,3,3,3,0,4.91,-0.82,4.27,13.15,-2.12,9.43,-3.5,-51.5,-6.0,0.43011474609375,0.5242919921875,0.6986083984375,-0.22821044921875,37.375,56.5625,70.875,-8.24,1.29,-5.15,stop,4
10.66,1145249.63706517,29,3,3,3,0,3.82,-0.12,4.02,12.11,-1.4,9.1,-3.25,-56.0,-9.125,0.4334716796875,0.52252197265625,0.69696044921875,-0.23095703125,37.375,56.5625,70.875,-8.29,1.28,-5.07,stop,4
10.67,1145249.63706517,29,3,3,3,0,2.79,0.77,3.79,11.14,-0.5,8.78,-9.4375,-57.25,-11.125,0.43719482421875,0.52032470703125,0.69549560546875,-0.2333984375,38.1875,55.0625,72.0625,-8.34,1.27,-4.98,stop,4
10.68,1145249.650841049,29,3,3,3,0,1.53,1.5,3.14,9.93,0.23,8.03,-12.1875,-62.1875,-12.875,0.44122314453125,0.51776123046875,0.69390869140625,-0.2359619140625,38.1875,55.0625,72.0625,-8.4,1.26,-4.89,stop,4
10.68,1145249.650841049,29,3,3,3,0,0.01,2.23,1.51,8.47,0.97,6.31,-12.75,-64.125,-14.1875,0.44537353515625,0.51507568359375,0.69232177734375,-0.2386474609375,38.1875,55.0625,72.0625,-8.45,1.25,-4.79,stop,4
10.69,1145249.697776921,29,3,3,3,0,-1.01,2.39,0.83,7.49,1.14,5.54,-12.8125,-57.8125,-16.875,0.4490966796875,0.51239013671875,0.69110107421875,-0.2410888671875,38.1875,55.0625,72.0625,-8.51,1.24,-4.71,moving,4
10.7,1145249.697776921,29,3,3,3,0,-2.08,2.2,0.53,6.46,0.98,5.16,-9.5,-48.25,-20.3125,0.4520263671875,0.509765625,0.6903076171875,-0.24346923828125,38.1875,55.0625,72.0625,-8.55,1.22,-4.63,moving,4
10.71,1145249.726802271,29,3,3,3,0,-3.71,1.88,0.01,4.86,0.69,4.59,-8.9375,-31.5,-24.875,0.45379638671875,0.5072021484375,0.69036865234375,-0.245361328125,36.5,56.1875,72.0,-8.58,1.19,-4.58,moving,4
10.72,1145249.726802271,29,3,3,3,0,-8.17,2.12,-1.85,0.43,0.96,2.7,-14.625,-21.0625,-28.0,0.45513916015625,0.5045166015625,0.69110107421875,-0.24652099609375,36.5,56.1875,72.0,-8.6,1.16,-4.55,moving,4
10.73,1145249.73253156,29,3,3,3,0,-11.32,1.92,-2.83,-2.69,0.78,1.68,-30.8125,-20.8125,-32.6875,0.45703125,0.5008544921875,0.69232177734375,-0.246826171875,36.5,56.1875,72.0,-8.63,1.13,-4.51,moving,4
10.75,1145249.73253156,29,3,3,3,0,-18.74,1.28,-17.05,-10.07,0.18,-12.61,-21.25,-42.9375,-37.625,0.45977783203125,0.49676513671875,0.69268798828125,-0.24896240234375,36.5,56.1875,72.0,-8.67,1.09,-4.44,moving,4
10.76,1145249.73704043,29,3,3,3,0,-24.03,1.24,-26.93,-15.18,0.19,-22.83,-21.0625,-219.625,-42.1875,0.47296142578125,0.488525390625,0.68603515625,-0.25885009765625,36.5,56.1875,72.0,-8.84,1.04,-4.1,moving,4
10.77,1145249.73704043,29,3,3,3,0,-24.1,3.22,-3.32,-15.15,2.21,0.54,9.0625,-151.75,-21.375,0.48114013671875,0.484130859375,0.680419921875,-0.26666259765625,36.5,56.5625,73.1875,-8.95,1.0,-3.87,moving,4
10.77,1145249.771008651,29,3,3,3,0,-32.4,2.09,-4.54,-23.46,1.13,-0.62,41.75,24.75,-12.25,0.47760009765625,0.48577880859375,0.68096923828125,-0.26861572265625,36.5,56.5625,73.1875,-8.93,0.96,-3.91,moving,4
10.78,1145249.771008651,29,3,3,3,0,-34.02,2.12,-8.12,-25.05,1.18,-4.27,-13.5625,-40.0625,-19.625,0.4801025390625,0.48309326171875,0.68048095703125,-0.27032470703125,36.5,56.5625,73.1875,-8.96,0.94,-3.85,moving,4
10.79,1145249.782618962,29,3,3,3,0,-37.32,3.63,-17.44,-28.24,2.66,-13.86,-79.0625,-164.4375,-15.3125,0.4927978515625,0.47491455078125,0.676025390625,-0.273193359375,36.5,56.5625,73.1875,-9.07,0.96,-3.57,moving,4
10.8,1145249.782618962,29,3,3,3,0,-37.32,3.63,-17.44,-28.24,2.66,-13.86,-79.0625,-164.4375,-15.3125,0.4927978515625,0.47491455078125,0.676025390625,-0.273193359375,36.5,56.5625,73.1875,-9.07,0.96,-3.57,moving,4
10.81,1145249.791312851,29,3,3,3,0,-34.86,4.33,-12.58,-25.72,3.34,-9.16,-37.8125,-98.25,-1.9375,0.5001220703125,0.4708251953125,0.6727294921875,-0.27508544921875,36.5,56.5625,73.1875,-9.13,0.98,-3.41,moving,4
10.81,1145249.791312851,29,3,3,3,0,-31.95,4.18,-10.13,-22.83,3.2,-6.66,28.6875,28.0,1.8125,0.497314453125,0.47283935546875,0.67315673828125,-0.27557373046875,37.1875,57.5625,72.75,-9.12,0.97,-3.46,moving,4
10.83,1145249.800185491,29,3,3,3,0,-27.52,4.18,-9.79,-18.42,3.23,-6.26,29.8125,37.5,-5.0,0.4937744140625,0.4747314453125,0.67425537109375,-0.2760009765625,37.1875,57.5625,72.75,-9.09,0.94,-3.53,moving,4
10.84,1145249.800185491,29,3,3,3,0,-19.87,3.86,-7.87,-10.79,2.94,-4.29,24.75,30.75,-9.75,0.49072265625,0.4759521484375,0.6754150390625,-0.276611328125,37.1875,57.5625,72.75,-9.08,0.91,-3.58,moving,4
10.85,1145249.866573349,29,3,3,3,0,-16.99,2.79,-6.26,-7.95,1.91,-2.56,41.75,70.3125,-8.3125,0.48468017578125,0.47894287109375,0.677734375,-0.2764892578125,37.1875,57.5625,72.75,-9.03,0.87,-3.7,moving,4
10.85,1145249.866573349,29,3,3,3,0,-14.53,1.84,-4.25,-5.55,1.01,-0.4,53.3125,94.0,-5.4375,0.47674560546875,0.48309326171875,0.68060302734375,-0.27593994140625,37.1875,57.5625,72.75,-8.97,0.83,-3.85,moving,4
10.86,1145249.872672714,29,3,3,3,0,-12.61,1.19,-3.56,-3.7,0.4,0.45,55.0625,97.625,-0.5,0.4686279296875,0.48773193359375,0.68328857421875,-0.27508544921875,36.0625,56.875,72.375,-8.91,0.79,-4.01,moving,4
10.88,1145249.872672714,29,3,3,3,0,-9.28,0.77,-3.84,-0.44,0.0,0.34,48.875,107.875,5.25,0.460205078125,0.49261474609375,0.686279296875,-0.27313232421875,36.0625,56.875,72.375,-8.83,0.76,-4.18,moving,4
10.89,1145249.878227564,29,3,3,3,0,-7.43,0.69,-3.62,1.3,-0.07,0.75,37.4375,123.375,13.125,0.4515380859375,0.497802734375,0.689697265625,-0.26953125,36.0625,56.875,72.375,-8.73,0.76,-4.38,moving,4
10.89,1145249.878227564,29,3,3,3,0,-5.46,0.35,-2.83,3.16,-0.41,1.75,23.5625,137.5625,19.5625,0.44268798828125,0.50311279296875,0.69366455078125,-0.26422119140625,36.0625,56.875,72.375,-8.62,0.77,-4.59,moving,4
10.91,1145249.883702865,29,3,3,3,0,-3.76,0.06,-2.03,4.73,-0.73,2.79,9.125,156.25,27.125,0.43341064453125,0.5086669921875,0.69818115234375,-0.2568359375,36.0625,56.875,72.375,-8.49,0.8,-4.82,moving,4
10.92,1145249.883702865,29,3,3,3,0,-0.57,0.18,-0.64,7.77,-0.66,4.43,0.6875,167.875,34.125,0.42388916015625,0.51446533203125,0.70294189453125,-0.24810791015625,36.0625,58.0,70.75,-8.34,0.85,-5.07,moving,4
10.93,1145249.93687356,29,3,3,3,0,1.18,-0.09,-0.22,9.37,-1.0,5.08,1.25,164.875,39.5625,0.41455078125,0.52044677734375,0.7071533203125,-0.23931884765625,36.0625,58.0,70.75,-8.19,0.91,-5.31,moving,4
10.93,1145249.93687356,29,3,3,3,0,3.21,-0.77,0.14,11.25,-1.74,5.68,11.9375,156.75,44.3125,0.4052734375,0.52679443359375,0.71044921875,-0.2313232421875,36.0625,58.0,70.75,-8.03,0.96,-5.53,moving,4
10.94,1145249.983193181,29,3,3,3,0,6.39,-1.11,0.62,14.28,-2.12,6.36,27.1875,139.6875,48.1875,0.39630126953125,0.5335693359375,0.7125244140625,-0.224853515625,36.0625,58.0,70.75,-7.89,1.0,-5.73,moving,4
10.95,1145249.983193181,29,3,3,3,0,7.2,-0.65,0.86,14.98,-1.68,6.75,49.125,101.5625,51.125,0.388671875,0.5404052734375,0.712646484375,-0.22137451171875,36.0625,58.0,70.75,-7.77,1.02,-5.88,moving,4
10.97,1145249.989068507,29,3,3,3,0,7.94,-0.37,1.36,15.64,-1.39,7.34,59.6875,65.5,44.1875,0.38262939453125,0.54638671875,0.71160888671875,-0.22052001953125,36.0625,57.25,71.5625,-7.7,1.02,-5.98,moving,4
10.98,1145249.989068507,29,3,3,3,0,8.22,-0.61,2.87,15.9,-1.62,8.88,53.5625,17.875,28.6875,0.3795166015625,0.55029296875,0.70977783203125,-0.2220458984375,36.0625,57.25,71.5625,-7.68,1.0,-6.01,moving,4
10.99,1145249.997261825,29,3,3,3,0,8.16,-1.69,6.39,15.87,-2.67,12.37,33.1875,-32.0,11.0,0.380126953125,0.55145263671875,0.70758056640625,-0.2252197265625,36.0625,57.25,71.5625,-7.71,0.98,-5.97,moving,4
11.0,1145249.997261825,29,3,3,3,0,7.76,-1.48,7.07,15.53,-2.43,12.97,29.1875,-64.25,-3.5625,0.38262939453125,0.55096435546875,0.70501708984375,-0.230224609375,36.0625,57.25,71.5625,-7.77,0.95,-5.89,moving,4
11.01,1145250.002584701,29,3,3,3,0,5.75,-0.18,6.69,13.6,-1.1,12.49,20.9375,-73.8125,-9.8125,0.385986328125,0.549560546875,0.70257568359375,-0.23541259765625,36.0625,57.25,71.5625,-7.85,0.91,-5.79,moving,4
11.02,1145250.002584701,29,3,3,3,0,2.45,0.37,5.08,10.36,-0.53,10.8,-2.3125,-53.375,-4.25,0.3892822265625,0.548095703125,0.7010498046875,-0.23797607421875,35.875,57.375,72.1875,-7.91,0.91,-5.72,moving,4
11.02,1145250.007884872,29,3,3,3,0,0.83,0.62,2.37,8.77,-0.3,8.04,-22.75,-35.875,-7.75,0.39239501953125,0.54608154296875,0.70062255859375,-0.238525390625,35.875,57.375,72.1875,-7.94,0.92,-5.67,moving,4
11.03,1145250.007884872,29,3,3,3,0,0.72,0.63,0.91,8.69,-0.31,6.54,-41.6875,-25.6875,-11.9375,0.39569091796875,0.54339599609375,0.701171875,-0.23760986328125,35.875,57.375,72.1875,-7.97,0.94,-5.62,moving,4
11.04,1145250.025821274,29,3,3,3,0,0.5,0.25,-0.08,8.51,-0.73,5.48,-55.125,-31.75,-12.5,0.4000244140625,0.54010009765625,0.7017822265625,-0.2362060546875,35.875,57.375,72.1875,-8.0,0.98,-5.57,moving,4
11.06,1145250.025821274,29,3,3,3,0,-0.15,0.06,-1.08,7.9,-0.95,4.41,-59.6875,-45.25,-14.375,0.4052734375,0.5361328125,0.7021484375,-0.23516845703125,35.875,57.375,72.1875,-8.05,1.02,-5.5,moving,4
11.06,1145250.04193012,29,3,3,3,0,-0.15,0.06,-1.08,7.9,-0.95,4.41,-59.6875,-45.25,-14.375,0.4052734375,0.5361328125,0.7021484375,-0.23516845703125,35.875,57.375,72.1875,-8.05,1.02,-5.5,moving,4
11.07,1145250.04193012,29,3,3,3,0,-1.74,0.06,-2.84,6.36,-0.99,2.56,-58.0625,-55.5625,-14.9375,0.4111328125,0.53204345703125,0.7020263671875,-0.2347412109375,36.25,58.0625,72.1875,-8.1,1.05,-5.41,moving,4
11.08,1145250.05527273,29,3,3,3,0,-2.59,-0.02,-4.28,5.58,-1.11,1.02,-55.0625,-65.125,-15.5,0.41729736328125,0.52777099609375,0.7015380859375,-0.23492431640625,36.25,58.0625,72.1875,-8.17,1.08,-5.3,moving,4
11.09,1145250.05527273,29,3,3,3,0,-3.02,-0.23,-8.41,5.24,-1.32,-3.24,-34.8125,-97.4375,-17.8125,0.42449951171875,0.52337646484375,0.699462890625,-0.2379150390625,36.25,58.0625,72.1875,-8.26,1.09,-5.16,moving,4
11.1,1145250.087074976,29,3,3,3,0,-5.19,1.8,-5.81,3.21,0.75,-0.89,17.375,-165.25,-18.75,0.433349609375,0.5194091796875,0.69378662109375,-0.2471923828125,36.25,58.0625,72.1875,-8.41,1.05,-4.92,moving,4
11.1,1145250.087074976,29,3,3,3,0,-7.58,1.51,-4.81,0.93,0.51,-0.07,40.0,-127.0625,-9.6875,0.43902587890625,0.517578125,0.6884765625,-0.25567626953125,36.25,58.0625,72.1875,-8.52,1.0,-4.74,moving,4
11.11,1145250.092702825,29,3,3,3,0,-9.93,1.98,-5.83,-1.35,1.03,-1.19,52.875,-70.875,-4.6875,0.4407958984375,0.5177001953125,0.684814453125,-0.26220703125,35.75,56.6875,72.0625,-8.58,0.95,-4.64,moving,4
11.12,1145250.092702825,29,3,3,3,0,-12.22,2.58,-5.55,-3.56,1.68,-1.04,46.1875,-96.375,-6.25,0.44427490234375,0.51690673828125,0.6802978515625,-0.26959228515625,35.75,56.6875,72.0625,-8.66,0.9,-4.51,moving,4
11.13,1145250.115914454,29,3,3,3,0,-23.73,5.26,-6.32,-14.96,4.37,-2.02,26.5625,-144.875,-1.8125,0.45159912109375,0.51434326171875,0.674072265625,-0.2777099609375,35.75,56.6875,72.0625,-8.77,0.88,-4.29,moving,4
11.15,1145250.115914454,29,3,3,3,0,-37.92,7.48,-8.16,-29.01,6.58,-4.17,0.25,-193.0,13.6875,0.46319580078125,0.51043701171875,0.665771484375,-0.2857666015625,35.75,56.6875,72.0625,-8.9,0.9,-3.99,moving,4
11.16,1145250.163886174,29,3,3,3,0,-39.51,2.37,-13.92,-30.48,1.42,-10.21,-57.375,-173.625,7.75,0.47601318359375,0.504150390625,0.65972900390625,-0.289794921875,35.75,56.6875,72.0625,-9.02,0.95,-3.71,moving,4
11.17,1145250.163886174,29,3,3,3,0,-38.66,-1.95,-14.97,-29.61,-2.95,-11.34,-27.6875,-56.25,17.875,0.48089599609375,0.50262451171875,0.65728759765625,-0.28997802734375,36.1875,59.1875,70.5,-9.05,1.0,-3.62,moving,4
11.18,1145250.169523585,29,3,3,3,0,-32.92,2.33,-10.92,-23.87,1.3,-7.29,5.9375,5.5625,23.75,0.48095703125,0.50439453125,0.65631103515625,-0.2890625,36.1875,59.1875,70.5,-9.05,1.03,-3.63,moving,4
11.18,1145250.169523585,29,3,3,3,0,-31.22,3.56,-11.25,-22.16,2.49,-7.66,-19.875,-28.625,16.8125,0.48388671875,0.5037841796875,0.65484619140625,-0.2884521484375,36.1875,59.1875,70.5,-9.06,1.07,-3.58,moving,4
11.19,1145250.177813543,29,3,3,3,0,-28.85,3.47,-11.41,-19.77,2.36,-7.89,-30.4375,-34.8125,8.4375,0.4874267578125,0.5020751953125,0.65374755859375,-0.28790283203125,36.1875,59.1875,70.5,-9.08,1.1,-3.52,moving,4
11.2,1145250.177813543,29,3,3,3,0,-27.49,2.51,-10.88,-18.4,1.38,-7.37,-23.4375,-2.375,3.25,0.48870849609375,0.501220703125,0.65411376953125,-0.2864990234375,36.1875,59.1875,70.5,-9.08,1.12,-3.51,moving,4
11.22,1145250.205757512,29,3,3,3,0,-23.84,2.83,-9.63,-14.77,1.69,-6.08,-17.125,21.125,-0.875,0.48822021484375,0.5009765625,0.65545654296875,-0.28466796875,37.6875,61.0,69.25,-9.07,1.13,-3.54,moving,4
11.23,1145250.205757512,29,3,3,3,0,-22.11,3.41,-8.87,-13.06,2.27,-5.27,-10.6875,36.0625,-3.75,0.486572265625,0.50115966796875,0.65740966796875,-0.28265380859375,37.6875,61.0,69.25,-9.05,1.13,-3.59,moving,4
11.24,1145250.211117823,29,3,3,3,0,-20.28,3.08,-7.74,-11.25,1.95,-4.07,-2.6875,49.875,-4.75,0.48370361328125,0.50201416015625,0.6597900390625,-0.280517578125,37.6875,61.0,69.25,-9.02,1.13,-3.67,moving,4
11.25,1145250.211117823,29,3,3,3,0,-17.8,3.24,-6.46,-8.82,2.12,-2.67,4.625,68.3125,-5.4375,0.47943115234375,0.5035400390625,0.66278076171875,-0.27801513671875,37.6875,61.0,69.25,-8.97,1.12,-3.78,moving,4
11.26,1145250.236516098,29,3,3,3,0,-13.18,3.15,-4.13,-4.26,2.04,-0.2,13.4375,92.9375,-3.6875,0.473388671875,0.50616455078125,0.66650390625,-0.27484130859375,37.6875,61.0,69.25,-8.91,1.1,-3.93,moving,4
11.27,1145250.236516098,29,3,3,3,0,-10.98,3.07,-3.46,-2.15,1.97,0.65,16.9375,122.9375,1.1875,0.46551513671875,0.50982666015625,0.67108154296875,-0.27032470703125,39.0625,58.5,69.6875,-8.82,1.09,-4.12,moving,4
11.28,1145250.250380437,29,3,3,3,0,-8.54,3.11,-3.04,0.17,2.01,1.3,12.3125,148.125,8.1875,0.4564208984375,0.5142822265625,0.67633056640625,-0.26409912109375,39.0625,58.5,69.6875,-8.71,1.1,-4.35,moving,4
11.29,1145250.250380437,29,3,3,3,0,-4.45,2.64,-1.6,4.13,1.52,2.99,1.875,164.5,14.1875,0.44696044921875,0.5189208984375,0.68212890625,-0.2562255859375,39.0625,58.5,69.6875,-8.58,1.12,-4.6,moving,4
11.29,1145250.282213608,29,3,3,3,0,-3.09,1.9,-1.04,5.33,0.75,3.81,-8.0625,176.625,18.8125,0.43719482421875,0.52362060546875,0.688232421875,-0.24700927734375,39.0625,58.5,69.6875,-8.43,1.15,-4.86,moving,4
11.31,1145250.282213608,29,3,3,3,0,-1.95,1.26,-0.29,6.33,0.06,4.81,-12.25,174.25,21.0625,0.427734375,0.528076171875,0.694091796875,-0.23748779296875,39.0625,58.5,69.6875,-8.28,1.19,-5.11,moving,4
11.32,1145250.287070826,29,3,3,3,0,0.48,0.51,0.16,8.61,-0.72,5.5,-7.6875,162.0,22.5,0.418701171875,0.532470703125,0.69921875,-0.22869873046875,37.875,58.5,70.375,-8.13,1.23,-5.34,moving,4
11.32,1145250.287070826,29,3,3,3,0,0.48,0.51,0.16,8.61,-0.72,5.5,-7.6875,162.0,22.5,0.418701171875,0.532470703125,0.69921875,-0.22869873046875,37.875,58.5,70.375,-8.13,1.23,-5.34,moving,4
11.33,1145250.341958196,29,3,3,3,0,3.57,-0.88,0.19,11.55,-2.16,5.75,0.375,154.0,25.75,0.4097900390625,0.53704833984375,0.70355224609375,-0.2205810546875,37.875,58.5,70.375,-7.97,1.27,-5.55,moving,4
11.34,1145250.341958196,29,3,3,3,0,4.74,-1.16,-0.06,12.58,-2.45,5.68,13.9375,137.625,26.9375,0.40118408203125,0.54180908203125,0.70684814453125,-0.2139892578125,37.875,58.5,70.375,-7.83,1.29,-5.75,moving,4
11.35,1145250.347729965,29,3,3,3,0,5.45,-1.06,0.4,13.16,-2.37,6.31,19.25,116.5,24.125,0.3935546875,0.546142578125,0.70941162109375,-0.20880126953125,37.875,58.5,70.375,-7.71,1.31,-5.91,moving,4
11.35,1145250.347729965,29,3,3,3,0,6.15,-1.43,1.76,13.77,-2.75,7.79,22.4375,82.125,22.3125,0.3878173828125,0.54974365234375,0.710693359375,-0.20550537109375,37.875,58.5,70.375,-7.62,1.31,-6.02,moving,4
11.37,1145250.352933416,29,3,3,3,0,7.48,-1.84,2.9,15.05,-3.15,9.0,34.3125,48.25,23.25,0.38360595703125,0.55322265625,0.7105712890625,-0.20452880859375,36.0625,56.6875,73.5625,-7.56,1.31,-6.1,moving,4
11.38,1145250.352933416,29,3,3,3,0,8.03,-1.89,4.58,15.58,-3.2,10.71,36.25,13.1875,23.0625,0.3814697265625,0.55609130859375,0.70928955078125,-0.20538330078125,36.0625,56.6875,73.5625,-7.54,1.3,-6.12,moving,4
11.39,1145250.385769394,29,3,3,3,0,8.6,-1.75,5.95,16.16,-3.04,12.07,33.25,-14.0625,15.25,0.3809814453125,0.55792236328125,0.70745849609375,-0.20758056640625,36.0625,56.6875,73.5625,-7.55,1.28,-6.11,moving,4
11.4,1145250.385769394,29,3,3,3,0,7.87,-1.88,6.45,15.46,-3.13,12.53,38.375,-32.8125,-1.5625,0.381103515625,0.5584716796875,0.70574951171875,-0.21160888671875,36.0625,56.6875,73.5625,-7.59,1.24,-6.07,moving,4
11.41,1145250.400796982,29,3,3,3,0,3.48,0.09,5.22,11.1,-1.13,11.27,25.0,-29.6875,4.6875,0.3818359375,0.55908203125,0.70404052734375,-0.21441650390625,36.0625,56.6875,73.5625,-7.62,1.22,-6.04,moving,4
11.42,1145250.400796982,29,3,3,3,0,1.58,0.6,3.82,9.24,-0.63,9.82,4.375,-37.6875,15.0625,0.38421630859375,0.5594482421875,0.70196533203125,-0.21600341796875,36.25,56.75,73.0625,-7.66,1.24,-5.99,moving,4
11.43,1145250.416068222,29,3,3,3,0,0.45,0.68,2.02,8.15,-0.59,7.96,-16.0,-39.1875,16.125,0.3876953125,0.55914306640625,0.70013427734375,-0.2164306640625,36.25,56.75,73.0625,-7.69,1.28,-5.93,moving,4
11.43,1145250.416068222,29,3,3,3,0,-0.93,0.77,-0.91,6.8,-0.55,4.95,-31.4375,-43.5,15.125,0.3922119140625,0.55816650390625,0.69854736328125,-0.216064453125,36.25,56.75,73.0625,-7.73,1.33,-5.87,moving,4
11.44,1145250.421480047,29,3,3,3,0,-1.17,0.83,-1.37,6.61,-0.55,4.4,-46.75,-57.8125,12.1875,0.39825439453125,0.55621337890625,0.69683837890625,-0.21563720703125,36.25,56.75,73.0625,-7.79,1.39,-5.78,moving,4
11.46,1145250.421480047,29,3,3,3,0,-1.66,0.61,-1.13,6.2,-0.85,4.52,-64.1875,-77.3125,6.625,0.40618896484375,0.55291748046875,0.6949462890625,-0.2152099609375,36.25,56.75,73.0625,-7.87,1.47,-5.66,moving,4
11.47,1145250.465510279,29,3,3,3,0,-2.19,0.36,-1.25,5.75,-1.18,4.27,-72.3125,-86.8125,0.75,0.4149169921875,0.54876708984375,0.69317626953125,-0.2149658203125,36.25,57.0625,71.875,-7.95,1.54,-5.52,moving,4
11.48,1145250.465510279,29,3,3,3,0,-4.6,-0.29,-2.39,3.43,-1.89,2.98,-71.0625,-91.1875,-5.3125,0.4237060546875,0.54412841796875,0.69140625,-0.2152099609375,36.25,57.0625,71.875,-8.04,1.6,-5.37,moving,4
11.49,1145250.471211695,29,3,3,3,0,-5.91,-0.32,-3.56,2.22,-1.96,1.65,-65.25,-97.6875,-16.0,0.43243408203125,0.53887939453125,0.68975830078125,-0.21649169921875,36.25,57.0625,71.875,-8.13,1.64,-5.22,moving,4
11.5,1145250.471211695,29,3,3,3,0,-7.4,0.11,-5.55,0.81,-1.53,-0.47,-53.9375,-88.5,-27.875,0.43975830078125,0.533447265625,0.688720703125,-0.21844482421875,36.25,57.0625,71.875,-8.22,1.64,-5.07,moving,4
11.51,1145250.490684596,29,3,3,3,0,-9.77,0.13,-13.44,-1.47,-1.47,-8.46,-21.125,-64.25,-36.6875,0.44384765625,0.52923583984375,0.6883544921875,-0.2215576171875,36.25,57.0625,71.875,-8.29,1.61,-4.97,moving,4
11.52,1145250.490684596,29,3,3,3,0,-15.94,0.31,-11.68,-7.52,-1.2,-6.88,36.4375,-135.5625,-45.375,0.44940185546875,0.52520751953125,0.6844482421875,-0.23175048828125,37.25,56.75,71.375,-8.42,1.51,-4.79,moving,4
11.52,1145250.52132933,29,3,3,3,0,-16.56,0.69,-5.88,-7.99,-0.69,-1.32,64.5625,-165.125,-53.875,0.45513916015625,0.5211181640625,0.67901611328125,-0.2452392578125,37.25,56.75,71.375,-8.56,1.38,-4.56,moving,4
11.53,1145250.52132933,29,3,3,3,0,-26.68,3.89,-6.24,-18.03,2.62,-1.81,64.5,-99.4375,-40.75,0.45721435546875,0.51910400390625,0.675537109375,-0.25518798828125,37.25,56.75,71.375,-8.65,1.27,-4.42,moving,4
11.55,1145250.527338201,29,3,3,3,0,-36.0,4.7,-4.59,-27.29,3.5,-0.25,22.875,-60.625,-35.375,0.458984375,0.5166015625,0.6741943359375,-0.2607421875,37.25,56.75,71.375,-8.71,1.2,-4.34,moving,4
11.56,1145250.527338201,29,3,3,3,0,-28.91,5.85,-15.44,-20.12,4.71,-11.23,-7.6875,-87.4375,-45.9375,0.46343994140625,0.5115966796875,0.6728515625,-0.26605224609375,37.25,56.75,71.375,-8.78,1.13,-4.2,moving,4
11.57,1145250.552001531,29,3,3,3,0,-33.36,2.26,-17.18,-24.47,1.18,-13.17,-10.5,-125.375,-45.9375,0.47015380859375,0.5054931640625,0.6700439453125,-0.27288818359375,37.5625,58.5625,70.1875,-8.88,1.07,-4.01,moving,4
11.58,1145250.552001531,29,3,3,3,0,-35.4,2.99,-14.29,-26.46,1.98,-10.39,27.1875,-71.0,-30.125,0.47235107421875,0.50311279296875,0.66778564453125,-0.27880859375,37.5625,58.5625,70.1875,-8.93,1.0,-3.9,moving,4
11.58,1145250.557364812,29,3,3,3,0,-35.4,2.99,-14.29,-26.46,1.98,-10.39,27.1875,-71.0,-30.125,0.47235107421875,0.50311279296875,0.66778564453125,-0.27880859375,37.5625,58.5625,70.1875,-8.93,1.0,-3.9,moving,4
11.59,1145250.557364812,29,3,3,3,0,-32.94,3.56,-12.68,-23.99,2.59,-8.78,32.3125,-4.5625,-10.5625,0.470947265625,0.50372314453125,0.66729736328125,-0.2813720703125,37.5625,58.5625,70.1875,-8.94,0.97,-3.9,moving,4
11.6,1145250.565796534,29,3,3,3,0,-25.29,3.81,-12.53,-16.36,2.85,-8.61,15.375,10.625,-2.125,0.46966552734375,0.5045166015625,0.66741943359375,-0.2818603515625,37.5625,58.5625,70.1875,-8.93,0.95,-3.92,moving,4
11.6,1145250.565796534,29,3,3,3,0,-21.09,4.03,-10.73,-12.18,3.08,-6.76,15.875,28.25,5.25,0.4674072265625,0.50616455078125,0.66796875,-0.2813720703125,37.5625,58.5625,70.1875,-8.91,0.95,-3.96,moving,4
11.62,1145250.595649033,29,3,3,3,0,-17.24,3.44,-8.84,-8.37,2.49,-4.78,24.1875,57.4375,11.875,0.46331787109375,0.50921630859375,0.669189453125,-0.27972412109375,36.5,59.6875,69.0,-8.87,0.95,-4.06,moving,4
11.63,1145250.595649033,29,3,3,3,0,-12.17,2.08,-5.48,-3.35,1.13,-1.29,30.75,77.3125,12.4375,0.45770263671875,0.5130615234375,0.67095947265625,-0.277587890625,36.5,59.6875,69.0,-8.81,0.95,-4.18,moving,4
11.64,1145250.625500473,29,3,3,3,0,-10.3,1.82,-4.57,-1.55,0.87,-0.24,35.75,88.375,10.1875,0.451171875,0.5172119140625,0.67315673828125,-0.27532958984375,36.5,59.6875,69.0,-8.74,0.94,-4.32,moving,4
11.65,1145250.625500473,29,3,3,3,0,-8.42,1.55,-3.97,0.25,0.62,0.48,38.9375,83.5,8.6875,0.44476318359375,0.521240234375,0.675048828125,-0.27349853515625,36.5,59.6875,69.0,-8.68,0.92,-4.46,moving,4
11.66,1145250.631205592,29,3,3,3,0,-6.22,1.43,-3.38,2.4,0.51,1.19,31.0,74.75,9.4375,0.43914794921875,0.5247802734375,0.6767578125,-0.27154541015625,36.5,59.6875,69.0,-8.62,0.91,-4.57,moving,4
11.67,1145250.631205592,29,3,3,3,0,-3.46,0.78,-3.41,5.08,-0.12,1.29,19.5,87.8125,6.4375,0.4332275390625,0.5279541015625,0.6793212890625,-0.2684326171875,35.0625,60.0,69.0,-8.55,0.9,-4.71,moving,4
11.68,1145250.656623398,29,3,3,3,0,-2.5,0.3,-3.43,5.95,-0.59,1.44,16.5625,111.25,7.125,0.426025390625,0.5316162109375,0.68280029296875,-0.26397705078125,35.0625,60.0,69.0,-8.45,0.9,-4.87,moving,4
11.69,1145250.656623398,29,3,3,3,0,-1.18,-0.01,-3.15,7.15,-0.93,1.91,13.6875,126.1875,12.1875,0.41815185546875,0.53570556640625,0.6865234375,-0.25848388671875,35.0625,60.0,69.0,-8.34,0.91,-5.06,moving,4
11.7,1145250.67069546,29,3,3,3,0,0.28,-0.62,-2.74,8.51,-1.55,2.5,7.6875,124.9375,19.6875,0.41070556640625,0.53997802734375,0.68994140625,-0.25238037109375,35.0625,60.0,69.0,-8.23,0.93,-5.24,moving,4
11.71,1145250.67069546,29,3,3,3,0,3.58,-1.93,-1.13,11.72,-2.9,4.25,5.9375,103.0,24.625,0.40478515625,0.54388427734375,0.69232177734375,-0.24700927734375,35.0625,60.0,69.0,-8.13,0.96,-5.39,moving,4
11.72,1145250.686346827,29,3,3,3,0,4.85,-1.75,-0.97,12.89,-2.74,4.54,12.9375,87.0,29.9375,0.3995361328125,0.54803466796875,0.69366455078125,-0.2425537109375,35.375,59.6875,69.0,-8.04,0.99,-5.52,moving,4
