timestamp,android_nano_timestamp,temperature,calib_mag,calib_accel,calib_gyro,calib_sys,acc_x,acc_y,acc_z,lacc_x,lacc_y,lacc_z,gyro_x,gyro_y,gyro_z,quat_w,quat_x,quat_y,quat_z,mag_x,mag_y,mag_z,gravity_x,gravity_y,gravity_z,label,person
5.53,1663325.117542061,26,3,3,3,3,-1274.0,10.25,-0.72,-5.36,3.8,-0.8,-0.25,-7.8125,-10.5625,629.75,0.1368408203125,0.6910400390625,0.354248046875,0.0305,11.1875,8.0625,-46.125,6.45,0.07,moving,7
5.54,1663325.117542061,26,3,3,3,3,-1140.0,8.12,-1.19,-4.0,1.69,-1.28,-0.85,-3.9375,-14.125,630.5625,0.13580322265625,0.69085693359375,0.353759765625,0.0305,11.1875,8.0625,-46.25,6.43,0.08,moving,7
5.55,1663325.149597481,26,3,3,3,3,-1053.0,7.21,-1.68,-3.11,0.8,-1.77,-1.61,7.0,-17.9375,630.8125,0.13397216796875,0.69110107421875,0.353515625,0.0305,11.1875,8.0625,-46.375,6.41,0.08,moving,7
5.56,1663325.149597481,26,3,3,3,3,-926.0,6.54,-1.96,-1.82,0.16,-2.03,-2.3,22.8125,-21.4375,630.1875,0.1312255859375,0.692138671875,0.35345458984375,0.03,11.1875,6.5,-46.5,6.38,0.07,moving,7
5.57,1663325.163101631,26,3,3,3,3,-785.0,6.16,-1.78,-0.38,-0.18,-1.81,-2.43,39.625,-23.0,628.6875,0.12774658203125,0.694091796875,0.3536376953125,0.03,11.1875,6.5,-46.6875,6.35,0.03,moving,7
5.58,1663325.163101631,26,3,3,3,3,-575.0,4.4,-0.83,1.74,-1.91,-0.81,-2.76,58.125,-24.0,626.0,0.12359619140625,0.6968994140625,0.35400390625,0.03,11.1875,6.5,-46.8125,6.32,-0.01,moving,7
5.59,1663325.192342313,26,3,3,3,3,-477.0,3.05,-0.85,2.75,-3.23,-0.75,-4.26,80.8125,-25.125,622.0,0.1181640625,0.70062255859375,0.35516357421875,0.03,11.1875,6.5,-47.0,6.28,-0.09,moving,7
5.6,1663325.192342313,26,3,3,3,3,-411.0,1.68,-1.29,3.43,-4.57,-1.1,-4.82,99.9375,-25.125,616.875,0.1119384765625,0.70526123046875,0.356689453125,0.03,11.1875,6.5,-47.125,6.25,-0.19,moving,7
5.61,1663325.199228585,26,3,3,3,3,-411.0,1.68,-1.29,3.43,-4.57,-1.1,-4.82,99.9375,-25.125,616.875,0.1119384765625,0.70526123046875,0.356689453125,0.03,11.1875,6.5,-47.125,6.25,-0.19,moving,7
5.61,1663325.199228585,26,3,3,3,3,-315.0,0.52,-1.82,4.41,-5.7,-1.52,-5.07,109.3125,-23.75,611.0,0.10540771484375,0.710205078125,0.35845947265625,0.0303,11.0625,8.5,-47.3125,6.22,-0.3,moving,7
5.62,1663325.207594877,26,3,3,3,3,-250.0,-1.48,-1.2,5.08,-7.68,-0.8,-6.47,108.3125,-21.5,605.1875,0.09857177734375,0.7147216796875,0.36077880859375,0.0303,11.0625,8.5,-47.375,6.2,-0.4,moving,7
5.63,1663325.207594877,26,3,3,3,3,-236.0,-2.18,-0.37,5.23,-8.35,0.11,-7.93,101.375,-22.3125,599.8125,0.0914306640625,0.71856689453125,0.36358642578125,0.0303,11.0625,8.5,-47.5,6.17,-0.48,moving,7
5.64,1663325.237780912,26,3,3,3,3,-212.0,-2.8,0.31,5.49,-8.95,0.86,-8.76,94.75,-26.4375,595.0,0.08392333984375,0.72186279296875,0.36639404296875,0.0303,11.0625,8.5,-47.625,6.14,-0.55,moving,7
5.65,1663325.237780912,26,3,3,3,3,-84.0,-3.56,1.21,6.8,-9.67,1.82,-10.6,92.9375,-30.5,590.5,0.07568359375,0.72467041015625,0.36968994140625,0.0303,11.0625,8.5,-47.75,6.11,-0.6,moving,7
5.66,1663325.299651355,26,3,3,3,3,-82.0,-4.0,1.04,6.84,-10.07,1.7,-12.88,99.8125,-32.875,585.625,0.06634521484375,0.72723388671875,0.37371826171875,0.0285,11.0625,13.875,-47.9375,6.07,-0.65,moving,7
5.67,1663325.299651355,26,3,3,3,3,-68.0,-4.09,0.63,7.01,-10.13,1.33,-15.05,109.5,-35.3125,580.1875,0.0557861328125,0.72979736328125,0.3785400390625,0.0285,11.0625,13.875,-48.0625,6.03,-0.7,moving,7
5.68,1663325.304872709,26,3,3,3,3,-61.0,-4.07,0.66,7.11,-10.07,1.39,-16.13,105.125,-37.375,575.0625,0.04498291015625,0.73175048828125,0.383544921875,0.0285,11.0625,13.875,-48.25,6.0,-0.73,moving,7
5.69,1663325.304872709,26,3,3,3,3,-141.0,-3.64,0.89,6.33,-9.6,1.63,-17.01,87.8125,-37.4375,571.0,0.034423828125,0.73260498046875,0.3887939453125,0.0285,11.0625,13.875,-48.375,5.96,-0.74,moving,7
5.7,1663325.31123713,26,3,3,3,3,-175.0,-4.32,1.08,6.02,-10.25,1.79,-19.63,70.75,-34.1875,567.875,0.02386474609375,0.73193359375,0.3951416015625,0.0285,11.0625,13.875,-48.5625,5.93,-0.71,moving,7
5.71,1663325.31123713,26,3,3,3,3,-183.0,-4.57,1.9,5.95,-10.49,2.53,-24.09,57.9375,-25.3125,565.25,0.012939453125,0.72955322265625,0.40362548828125,0.03,11.75,18.0625,-48.6875,5.91,-0.63,moving,7
5.72,1663325.316621814,26,3,3,3,3,-191.0,-5.04,2.98,5.88,-10.97,3.53,-29.01,69.25,-5.0,561.0625,0.00140380859375,0.72637939453125,0.4149169921875,0.03,11.75,18.0625,-48.6875,5.92,-0.54,moving,7
5.73,1663325.316621814,26,3,3,3,3,-220.0,-3.8,3.42,5.55,-9.77,3.91,-32.51,115.3125,19.0625,552.8125,-0.01129150390625,0.72442626953125,0.4285888671875,0.03,11.75,18.0625,-48.5,5.96,-0.48,moving,7
5.74,1663325.359860909,26,3,3,3,3,-361.0,-2.02,3.44,4.09,-8.07,3.95,-32.81,172.875,41.3125,539.6875,-0.0247802734375,0.7247314453125,0.44317626953125,0.03,11.75,18.0625,-48.125,6.04,-0.5,moving,7
5.75,1663325.359860909,26,3,3,3,3,-811.0,2.08,3.24,-0.49,-4.04,3.84,-31.53,220.9375,58.5,522.4375,-0.0386962890625,0.72711181640625,0.4576416015625,0.03,11.75,18.0625,-47.625,6.13,-0.59,moving,7
5.76,1663325.365961495,26,3,3,3,3,-1635.0,13.61,5.61,-8.84,7.34,6.34,-29.91,254.375,81.1875,501.8125,-0.05206298828125,0.73095703125,0.4720458984375,0.0285,10.6875,25.5,-46.875,6.26,-0.72,moving,7
5.77,1663325.365961495,26,3,3,3,3,-2582.0,32.27,18.55,-18.47,25.84,19.44,-29.53,290.5625,105.5,477.3125,-0.065185546875,0.73590087890625,0.48675537109375,0.0285,10.6875,25.5,-45.875,6.42,-0.89,moving,7
5.78,1663325.373232043,26,3,3,3,3,-3916.0,38.69,6.13,-31.91,32.2,7.39,-5.98,315.9375,42.75,454.3125,-0.07733154296875,0.7470703125,0.4888916015625,0.0285,10.6875,25.5,-45.25,6.49,-1.25,moving,7
5.79,1663325.373232043,26,3,3,3,3,-2041.0,39.09,0.59,-13.26,32.57,2.21,22.2,161.4375,47.5625,442.375,-0.0758056640625,0.7593994140625,0.48052978515625,0.0285,10.6875,25.5,-44.625,6.51,-1.61,moving,7
5.8,1663325.432616239,26,3,3,3,3,-714.0,39.01,3.5,-0.09,32.32,4.82,-10.73,-176.5625,126.75,448.375,-0.0625,0.7506103515625,0.4908447265625,0.0285,10.6875,25.5,-44.0,6.68,-1.32,moving,7
5.81,1663325.432616239,26,3,3,3,3,-374.0,22.43,-15.96,3.09,15.46,-15.14,-27.25,-244.75,208.125,454.5,-0.04486083984375,0.73468017578125,0.51104736328125,0.0275,9.6875,38.1875,-42.75,6.97,-0.81,moving,7
5.82,1663325.454382597,26,3,3,3,3,-1045.0,10.84,-27.13,-3.77,3.68,-26.7,-17.79,-219.125,149.375,461.5,-0.02984619140625,0.72161865234375,0.524658203125,0.0275,9.6875,38.1875,-41.75,7.16,-0.42,moving,7
5.83,1663325.454382597,26,3,3,3,3,-1354.0,8.81,-10.3,-6.9,1.6,-10.31,-2.82,-351.625,43.3125,481.875,-0.01165771484375,0.70672607421875,0.52813720703125,0.0275,9.6875,38.1875,-41.5,7.21,0.0,moving,7
5.84,1663325.465356474,26,3,3,3,3,-737.0,10.61,-0.79,-0.75,3.37,-1.05,25.69,-394.5625,16.125,505.8125,0.01409912109375,0.69744873046875,0.51898193359375,0.0275,9.6875,38.1875,-41.3125,7.23,0.26,moving,7
5.85,1663325.465356474,26,3,3,3,3,-642.0,9.81,1.63,0.17,2.56,1.48,46.46,-219.75,5.375,518.625,0.036865234375,0.7008056640625,0.50103759765625,0.0275,9.6875,38.1875,-41.1875,7.25,0.14,moving,7
5.86,1663325.471960762,26,3,3,3,3,-599.0,7.28,3.74,0.6,0.03,3.76,46.0,-171.125,-8.0625,528.5,0.0565185546875,0.70550537109375,0.48236083984375,0.0285,8.25,39.75,-41.25,7.24,-0.01,moving,7
5.87,1663325.471960762,26,3,3,3,3,-599.0,7.28,3.74,0.6,0.03,3.76,46.0,-171.125,-8.0625,528.5,0.0565185546875,0.70550537109375,0.48236083984375,0.0285,8.25,39.75,-41.25,7.24,-0.01,moving,7
5.87,1663325.478761544,26,3,3,3,3,-493.0,4.65,3.57,1.68,-2.57,3.72,42.12,-174.0,-12.6875,538.5,0.07489013671875,0.70855712890625,0.46453857421875,0.0285,8.25,39.75,-41.375,7.22,-0.15,moving,7
5.88,1663325.478761544,26,3,3,3,3,-258.0,1.22,1.96,4.06,-5.97,2.29,45.98,-163.3125,-14.5,547.25,0.09381103515625,0.7125244140625,0.44488525390625,0.0285,8.25,39.75,-41.5625,7.2,-0.32,moving,7
5.89,1663325.482330676,26,3,3,3,3,-99.0,1.11,2.42,5.66,-6.06,2.92,46.1,-161.75,-0.125,554.875,0.11346435546875,0.7158203125,0.42547607421875,0.0285,8.25,39.75,-41.625,7.17,-0.49,moving,7
5.9,1663325.482330676,26,3,3,3,3,-52.0,1.42,2.27,6.12,-5.74,2.86,38.46,-177.5625,16.375,563.0,0.13238525390625,0.7159423828125,0.40936279296875,0.0285,8.25,39.75,-41.5625,7.17,-0.59,moving,7
5.91,1663325.507673775,26,3,3,3,3,9.0,1.51,2.38,6.74,-5.67,3.0,32.28,-188.125,27.875,571.4375,0.1505126953125,0.713623046875,0.39581298828125,0.0305,9.25,24.375,-41.5,7.18,-0.62,moving,7
5.92,1663325.507673775,26,3,3,3,3,93.0,-0.01,3.02,7.55,-7.22,3.66,30.4,-195.5,34.8125,579.9375,0.16864013671875,0.7099609375,0.383056640625,0.0305,9.25,24.375,-41.3125,7.2,-0.63,moving,7
5.93,1663325.537171212,26,3,3,3,3,81.0,-0.58,3.24,7.41,-7.8,3.88,29.2,-197.6875,33.1875,588.4375,0.186279296875,0.70562744140625,0.370361328125,0.0305,9.25,24.375,-41.1875,7.22,-0.63,moving,7
5.94,1663325.537171212,26,3,3,3,3,43.0,-1.49,3.54,7.01,-8.73,4.19,28.04,-186.3125,29.5,596.125,0.202880859375,0.7012939453125,0.35797119140625,0.0305,9.25,24.375,-41.125,7.23,-0.64,moving,7
5.95,1663325.540228748,26,3,3,3,3,15.0,-2.93,2.62,6.72,-10.18,3.28,26.32,-162.625,24.0,602.4375,0.21771240234375,0.69757080078125,0.34619140625,0.0305,9.25,24.375,-41.0625,7.24,-0.66,moving,7
5.96,1663325.540228748,26,3,3,3,3,5.0,-4.38,1.57,6.61,-11.63,2.26,23.88,-141.125,20.4375,607.625,0.2308349609375,0.6943359375,0.33544921875,0.0312,10.0,12.6875,-41.0,7.25,-0.69,moving,7
5.97,1663325.582396676,26,3,3,3,3,-65.0,-4.92,2.52,5.89,-12.18,3.21,20.64,-141.4375,18.3125,613.0625,0.24273681640625,0.6903076171875,0.32568359375,0.0312,10.0,12.6875,-40.9375,7.26,-0.69,moving,7
5.98,1663325.582396676,26,3,3,3,3,9.0,-5.27,3.53,6.65,-12.54,4.16,14.02,-156.5625,12.6875,620.375,0.25250244140625,0.68426513671875,0.3177490234375,0.0312,10.0,12.6875,-40.9375,7.26,-0.62,moving,7
5.99,1663325.590278634,26,3,3,3,3,17.0,-6.69,4.64,6.74,-13.96,5.11,3.46,-160.1875,7.1875,629.4375,0.25848388671875,0.6761474609375,0.31329345703125,0.0312,10.0,12.6875,-41.0,7.27,-0.47,moving,7
6.0,1663325.590278634,26,3,3,3,3,-47.0,-7.44,6.38,6.08,-14.72,6.6,-5.69,-180.5,6.3125,640.9375,0.2618408203125,0.665283203125,0.31158447265625,0.0312,10.0,12.6875,-41.0,7.28,-0.21,moving,7
6.01,1663325.59901838,26,3,3,3,3,-107.0,-8.46,3.57,5.48,-15.75,3.5,-11.03,-176.6875,6.75,652.75,0.26324462890625,0.6534423828125,0.3118896484375,0.0328,8.5625,2.6875,-40.9375,7.28,0.07,moving,7
6.02,1663325.59901838,26,3,3,3,3,-124.0,-8.63,0.37,5.28,-15.94,0.08,-11.37,-112.8125,15.875,660.5625,0.26324462890625,0.64483642578125,0.314208984375,0.0328,8.5625,2.6875,-40.8125,7.3,0.29,moving,7
6.03,1663325.628406726,26,3,3,3,3,-584.0,-1.42,0.19,0.65,-8.75,-0.29,-11.12,-97.125,22.3125,667.1875,0.26324462890625,0.63690185546875,0.317138671875,0.0328,8.5625,2.6875,-40.625,7.32,0.49,moving,7
6.04,1663325.628406726,26,3,3,3,3,-796.0,2.64,1.12,-1.48,-4.68,0.46,-5.08,-113.375,9.6875,674.0625,0.26507568359375,0.6292724609375,0.31683349609375,0.0328,8.5625,2.6875,-40.4375,7.33,0.66,moving,7
6.05,1663325.643137927,26,3,3,3,3,-1000.0,5.02,1.42,-3.54,-2.31,0.69,2.43,-74.375,5.625,677.75,0.26824951171875,0.62530517578125,0.31463623046875,0.0328,8.5625,2.6875,-40.375,7.34,0.72,moving,7
6.06,1663325.643137927,26,3,3,3,3,-2205.0,19.95,1.75,-15.58,12.6,1.2,21.28,2.625,-7.875,674.625,0.275390625,0.62921142578125,0.30694580078125,0.0331,8.5625,-1.1875,-40.4375,7.34,0.55,moving,7
6.07,1663325.673083525,26,3,3,3,3,-3842.0,33.54,-7.67,-31.85,26.27,-7.94,27.61,60.1875,-76.375,669.0,0.2794189453125,0.6390380859375,0.29449462890625,0.0331,8.5625,-1.1875,-41.0625,7.27,0.26,moving,7
6.08,1663325.673083525,26,3,3,3,3,-3954.0,39.05,-22.87,-32.81,31.91,-22.64,13.77,331.125,-115.6875,650.6875,0.26922607421875,0.66259765625,0.29095458984375,0.0331,8.5625,-1.1875,-42.0,7.13,-0.22,moving,7
6.09,1663325.703660307,26,3,3,3,3,-3390.0,30.66,-6.44,-27.13,23.58,-5.95,-14.5,325.625,-55.75,634.8125,0.2525634765625,0.67938232421875,0.30059814453125,0.0331,8.5625,-1.1875,-42.3125,7.07,-0.49,moving,7
6.1,1663325.703660307,26,3,3,3,3,-1918.0,25.49,-5.84,-12.36,18.45,-5.37,-28.15,163.0625,-43.9375,629.9375,0.23614501953125,0.68438720703125,0.3121337890625,0.0331,8.5625,-1.1875,-42.5625,7.03,-0.47,moving,7
6.11,1663325.709180855,26,3,3,3,3,-1337.0,21.17,-1.29,-6.52,14.16,-0.84,-26.61,149.8125,-39.5625,625.25,0.220703125,0.6885986328125,0.322998046875,0.0323,9.25,-3.875,-42.75,7.0,-0.44,moving,7
6.12,1663325.709180855,26,3,3,3,3,-1337.0,21.17,-1.29,-6.52,14.16,-0.84,-26.61,149.8125,-39.5625,625.25,0.220703125,0.6885986328125,0.322998046875,0.0323,9.25,-3.875,-42.75,7.0,-0.44,moving,7
6.12,1663325.717496041,26,3,3,3,3,-1202.0,19.25,0.06,-5.16,12.26,0.56,-21.62,179.9375,-23.5625,617.375,0.20697021484375,0.6947021484375,0.33319091796875,0.0323,9.25,-3.875,-42.875,6.98,-0.49,moving,7
6.13,1663325.717496041,26,3,3,3,3,-940.0,16.85,0.75,-2.54,9.87,1.37,-12.43,184.875,-11.0625,607.625,0.19677734375,0.7022705078125,0.340576171875,0.0323,9.25,-3.875,-42.8125,6.98,-0.62,moving,7
6.14,1663325.733083362,26,3,3,3,3,-716.0,9.66,-0.31,-0.32,2.68,0.47,-5.14,173.3125,-1.9375,597.3125,0.1898193359375,0.71026611328125,0.34539794921875,0.0323,9.25,-3.875,-42.6875,6.98,-0.79,moving,7
6.15,1663325.733083362,26,3,3,3,3,-586.0,6.44,-1.05,0.94,-0.54,-0.1,-3.42,152.3125,5.125,587.75,0.1844482421875,0.71722412109375,0.34942626953125,0.0323,9.25,-3.875,-42.5625,6.99,-0.94,moving,7
6.16,1663325.76382384,26,3,3,3,3,-443.0,4.16,-1.23,2.34,-2.84,-0.16,-4.08,129.5625,6.5,579.625,0.1795654296875,0.7227783203125,0.3533935546875,0.0326,10.375,7.25,-42.3125,7.0,-1.07,moving,7
6.17,1663325.76382384,26,3,3,3,3,-371.0,2.89,-1.26,3.02,-4.12,-0.09,-5.69,121.8125,10.8125,572.0,0.17474365234375,0.72747802734375,0.35809326171875,0.0326,10.375,7.25,-42.125,7.02,-1.17,moving,7
6.18,1663325.795674589,26,3,3,3,3,-290.0,1.28,-1.48,3.79,-5.76,-0.22,-7.97,127.5,17.4375,563.875,0.16943359375,0.73187255859375,0.364013671875,0.0326,10.375,7.25,-41.8125,7.05,-1.26,moving,7
6.19,1663325.795674589,26,3,3,3,3,-259.0,0.48,-1.72,4.04,-6.61,-0.38,-10.67,141.6875,20.5,554.875,0.16302490234375,0.73614501953125,0.37127685546875,0.0326,10.375,7.25,-41.4375,7.09,-1.34,moving,7
6.2,1663325.822781645,26,3,3,3,3,-224.0,-0.48,-1.77,4.33,-7.61,-0.36,-13.59,150.9375,15.25,545.625,0.155029296875,0.74029541015625,0.3795166015625,0.0326,10.375,7.25,-41.125,7.13,-1.41,moving,7
6.21,1663325.822781645,26,3,3,3,3,-195.0,-1.8,-1.51,4.58,-8.96,-0.04,-15.13,151.5,5.5,536.6875,0.14599609375,0.7440185546875,0.38787841796875,0.0324,10.375,16.5625,-40.8125,7.16,-1.46,moving,7
6.22,1663325.829070422,26,3,3,3,3,-79.0,-4.22,-1.31,5.71,-11.39,0.2,-15.36,154.9375,-7.5,527.8125,0.13580322265625,0.74786376953125,0.39569091796875,0.0324,10.375,16.5625,-40.625,7.17,-1.52,moving,7
6.23,1663325.829070422,26,3,3,3,3,-11.0,-5.1,-1.84,6.37,-12.27,-0.24,-14.96,168.5,-23.25,518.4375,0.124267578125,0.75238037109375,0.40264892578125,0.0324,10.375,16.5625,-40.5,7.17,-1.59,moving,7
6.24,1663325.838218087,26,3,3,3,3,16.0,-6.23,-1.89,6.65,-13.39,-0.2,-15.17,181.6875,-42.125,508.6875,0.11090087890625,0.7574462890625,0.40887451171875,0.0324,10.375,16.5625,-40.5625,7.15,-1.68,moving,7
6.25,1663325.838218087,26,3,3,3,3,36.0,-6.72,-1.64,6.88,-13.82,0.13,-15.61,183.8125,-66.9375,499.5625,0.09564208984375,0.762451171875,0.41412353515625,0.0324,10.375,16.5625,-40.6875,7.1,-1.77,moving,7
6.26,1663325.858413155,26,3,3,3,3,314.0,-5.49,1.26,9.72,-12.51,3.13,-13.15,174.5625,-93.8125,491.75,0.07958984375,0.767578125,0.41693115234375,0.0316,9.6875,27.875,-41.0625,7.02,-1.87,moving,7
6.27,1663325.858413155,26,3,3,3,3,361.0,-4.98,1.0,10.27,-11.9,2.97,-12.8,167.5,-111.5,484.9375,0.0626220703125,0.7723388671875,0.418701171875,0.0316,9.6875,27.875,-41.5625,6.92,-1.97,moving,7
6.28,1663325.883501697,26,3,3,3,3,359.0,-4.37,2.3,10.35,-11.19,4.33,-17.23,158.5,-127.9375,479.25,0.04376220703125,0.7755126953125,0.42138671875,0.0316,9.6875,27.875,-42.1875,6.81,-2.02,moving,7
6.29,1663325.883501697,26,3,3,3,3,457.0,-3.78,4.53,11.44,-10.47,6.58,-18.43,135.0,-137.0,475.4375,0.0247802734375,0.7772216796875,0.42401123046875,0.0316,9.6875,27.875,-42.9375,6.68,-2.05,moving,7
6.3,1663325.89757559,26,3,3,3,3,410.0,-1.34,6.23,11.11,-7.88,8.3,-16.0,111.125,-155.9375,473.75,0.00604248046875,0.7781982421875,0.42462158203125,0.0316,9.6875,27.875,-43.8125,6.53,-2.07,moving,7
6.31,1663325.89757559,26,3,3,3,3,457.0,0.04,7.37,11.74,-6.32,9.38,-17.02,39.25,-158.5625,477.0625,-0.01043701171875,0.77581787109375,0.42535400390625,0.03,10.25,36.0,-44.8125,6.37,-2.0,moving,7
6.32,1663325.91214985,26,3,3,3,3,329.0,1.73,7.34,10.62,-4.52,9.17,-17.96,-37.1875,-122.8125,484.125,-0.02197265625,0.76995849609375,0.42791748046875,0.03,10.25,36.0,-45.75,6.25,-1.83,moving,7
6.33,1663325.91214985,26,3,3,3,3,-50.0,4.67,5.37,6.91,-1.54,6.98,-18.9,-69.625,-62.3125,491.0,-0.0284423828125,0.76251220703125,0.43341064453125,0.03,10.25,36.0,-46.3125,6.21,-1.61,moving,7
6.34,1663325.942743315,26,3,3,3,3,-223.0,5.57,7.98,5.21,-0.64,9.4,-15.69,-71.0625,-21.875,496.4375,-0.03131103515625,0.7557373046875,0.43914794921875,0.03,10.25,36.0,-46.5625,6.21,-1.41,moving,7
6.35,1663325.942743315,26,3,3,3,3,-630.0,17.56,9.97,1.18,11.36,11.27,-1.32,-74.625,-17.125,502.125,-0.02996826171875,0.752197265625,0.43914794921875,0.03,10.25,36.0,-46.8125,6.19,-1.3,moving,7
6.36,1663325.973848255,26,3,3,3,3,-1011.0,20.4,8.76,-2.6,14.25,10.18,29.19,-66.5,-2.8125,507.125,-0.019775390625,0.7562255859375,0.42718505859375,0.0282,12.0625,36.0625,-46.9375,6.14,-1.41,moving,7
6.37,1663325.973848255,26,3,3,3,3,-2515.0,39.09,1.99,-17.75,32.84,3.52,42.3,-131.0625,132.625,511.1875,0.00531005859375,0.76031494140625,0.41558837890625,0.0282,12.0625,36.0625,-46.25,6.24,-1.53,moving,7
6.38,1663325.97959858,26,3,3,3,3,-2515.0,39.09,1.99,-17.75,32.84,3.52,42.3,-131.0625,132.625,511.1875,0.00531005859375,0.76031494140625,0.41558837890625,0.0282,12.0625,36.0625,-46.25,6.24,-1.53,moving,7
6.38,1663325.97959858,26,3,3,3,3,-2782.0,37.97,-4.6,-20.63,31.49,-3.01,22.95,-78.25,212.125,508.4375,0.0284423828125,0.76177978515625,0.4151611328125,0.0282,12.0625,36.0625,-44.875,6.48,-1.59,moving,7
6.39,1663325.987752674,26,3,3,3,3,-3507.0,32.35,-32.12,-28.03,25.64,-30.86,-25.73,-117.75,154.4375,511.0,0.0360107421875,0.750244140625,0.43218994140625,0.0282,12.0625,36.0625,-43.9375,6.71,-1.25,moving,7
6.4,1663325.987752674,26,3,3,3,3,-3903.0,19.57,-37.88,-32.12,12.63,-37.46,-84.51,-176.1875,124.375,519.0625,0.02777099609375,0.72137451171875,0.4710693359375,0.0282,12.0625,36.0625,-43.1875,6.94,-0.41,moving,7
6.41,1663326.018834623,26,3,3,3,3,-2171.0,17.91,0.64,-14.87,10.89,0.53,-21.81,-305.1875,63.9375,536.125,0.038330078125,0.70184326171875,0.48150634765625,0.0292,12.375,20.75,-42.75,7.02,0.11,moving,7
6.42,1663326.018834623,26,3,3,3,3,-2089.0,12.86,4.93,-14.06,5.82,4.84,40.63,-235.1875,13.0625,549.1875,0.06060791015625,0.701416015625,0.465576171875,0.0292,12.375,20.75,-42.625,7.04,0.08,moving,7
6.43,1663326.033111398,26,3,3,3,3,-1826.0,8.07,3.76,-11.43,1.04,3.83,38.87,-124.6875,-3.125,555.625,0.07684326171875,0.70526123046875,0.44976806640625,0.0292,12.375,20.75,-42.625,7.03,-0.06,moving,7
6.44,1663326.033111398,26,3,3,3,3,-1474.0,7.96,1.42,-7.9,0.93,1.64,33.75,-91.25,-6.4375,560.0625,0.0899658203125,0.7091064453125,0.435791015625,0.0292,12.375,20.75,-42.6875,7.02,-0.21,moving,7
6.45,1663326.047226998,26,3,3,3,3,-979.0,5.41,-2.15,-2.94,-1.58,-1.74,35.57,-65.625,-13.25,562.8125,0.10223388671875,0.71441650390625,0.4207763671875,0.0292,12.375,20.75,-42.8125,6.99,-0.4,moving,7
6.46,1663326.047226998,26,3,3,3,3,-694.0,3.9,-1.06,-0.05,-3.05,-0.45,32.92,-45.8125,-19.5,564.5,0.112548828125,0.7198486328125,0.40655517578125,0.0306,9.75,19.1875,-43.0,6.95,-0.6,moving,7
6.47,1663326.077055571,26,3,3,3,3,-417.0,2.48,-0.05,2.74,-4.42,0.69,27.43,-50.1875,-21.625,566.75,0.12115478515625,0.7236328125,0.3941650390625,0.0306,9.75,19.1875,-43.1875,6.9,-0.75,moving,7
6.48,1663326.077055571,26,3,3,3,3,-30.0,1.5,-0.4,6.64,-5.35,0.47,24.48,-41.5625,-20.625,568.4375,0.128662109375,0.72705078125,0.38299560546875,0.0306,9.75,19.1875,-43.375,6.86,-0.88,moving,7
6.49,1663326.082727283,26,3,3,3,3,98.0,1.27,-0.82,7.96,-5.54,0.2,23.5,-23.375,-16.0,568.75,0.13555908203125,0.73095703125,0.37261962890625,0.0306,9.75,19.1875,-43.5625,6.81,-1.03,moving,7
6.5,1663326.082727283,26,3,3,3,3,217.0,0.7,-1.32,9.16,-6.07,-0.14,21.98,-15.8125,-8.5,568.375,0.14215087890625,0.73468017578125,0.36322021484375,0.0306,9.75,19.1875,-43.625,6.78,-1.17,moving,7
6.51,1663326.106798043,26,3,3,3,3,298.0,0.43,-1.28,9.97,-6.31,0.01,20.31,-20.4375,0.375,568.0625,0.14892578125,0.7376708984375,0.35479736328125,0.032,9.6875,12.5,-43.625,6.75,-1.3,moving,7
6.52,1663326.106798043,26,3,3,3,3,370.0,0.41,0.73,10.69,-6.32,2.13,18.81,-31.5,10.5625,568.1875,0.15625,0.7396240234375,0.3472900390625,0.032,9.6875,12.5,-43.625,6.73,-1.4,moving,7
6.53,1663326.123167102,26,3,3,3,3,415.0,-0.13,1.58,11.12,-6.86,3.06,17.31,-41.125,17.625,568.8125,0.16387939453125,0.74066162109375,0.340576171875,0.032,9.6875,12.5,-43.5625,6.73,-1.47,moving,7
6.54,1663326.123167102,26,3,3,3,3,460.0,-0.86,1.81,11.56,-7.6,3.35,15.04,-44.5625,23.125,569.625,0.1712646484375,0.74090576171875,0.33502197265625,0.032,9.6875,12.5,-43.4375,6.73,-1.53,moving,7
6.55,1663326.138175891,26,3,3,3,3,438.0,-1.26,1.37,11.31,-8.01,2.95,12.76,-40.125,29.375,570.1875,0.17816162109375,0.7408447265625,0.33062744140625,0.032,9.6875,12.5,-43.3125,6.75,-1.58,moving,7
6.56,1663326.138175891,26,3,3,3,3,468.0,-1.65,0.99,11.58,-8.41,2.62,12.92,-34.0625,34.25,570.125,0.185302734375,0.740966796875,0.3265380859375,0.0303,10.0625,7.875,-43.125,6.76,-1.63,moving,7
6.57,1663326.212134428,26,3,3,3,3,463.0,-2.28,0.58,11.5,-9.07,2.28,15.36,-36.4375,37.8125,569.8125,0.1934814453125,0.74127197265625,0.32159423828125,0.0303,10.0625,7.875,-42.9375,6.78,-1.7,moving,7
6.58,1663326.212134428,26,3,3,3,3,428.0,-2.59,-0.39,11.12,-9.4,1.38,17.27,-43.6875,42.5625,569.5625,0.20263671875,0.741455078125,0.31591796875,0.0303,10.0625,7.875,-42.6875,6.8,-1.78,moving,7
6.59,1663326.228221871,26,3,3,3,3,400.0,-2.32,0.72,10.8,-9.15,2.55,18.27,-80.0625,48.1875,571.375,0.2135009765625,0.73980712890625,0.3094482421875,0.0303,10.0625,7.875,-42.5,6.82,-1.82,moving,7
6.6,1663326.228221871,26,3,3,3,3,106.0,-1.64,1.96,7.84,-8.49,3.77,18.79,-128.5625,51.0625,576.125,0.22601318359375,0.73565673828125,0.3018798828125,0.0303,10.0625,7.875,-42.375,6.84,-1.81,moving,7
6.61,1663326.233552478,26,3,3,3,3,-112.0,-1.03,1.99,5.63,-7.91,3.77,17.5,-137.8125,51.6875,581.5,0.23828125,0.730712890625,0.294677734375,0.0324,9.75,7.875,-42.25,6.87,-1.77,moving,7
6.62,1663326.233552478,26,3,3,3,3,-279.0,-0.48,2.54,3.95,-7.39,4.25,13.41,-146.6875,45.6875,588.0,0.24908447265625,0.72454833984375,0.28851318359375,0.0324,9.75,7.875,-42.1875,6.9,-1.7,moving,7
6.63,1663326.239234689,26,3,3,3,3,-359.0,0.15,2.64,3.15,-6.77,4.22,7.68,-159.5,38.1875,596.25,0.25787353515625,0.71685791015625,0.28387451171875,0.0324,9.75,7.875,-42.1875,6.93,-1.57,moving,7
6.64,1663326.239234689,26,3,3,3,3,-359.0,0.15,2.64,3.15,-6.77,4.22,7.68,-159.5,38.1875,596.25,0.25787353515625,0.71685791015625,0.28387451171875,0.0324,9.75,7.875,-42.1875,6.93,-1.57,moving,7
6.64,1663326.244445219,26,3,3,3,3,-967.0,3.91,1.73,-2.92,-3.05,3.13,1.22,-162.125,31.5625,605.5625,0.26422119140625,0.7080078125,0.2813720703125,0.0324,9.75,7.875,-42.1875,6.97,-1.39,moving,7
6.65,1663326.244445219,26,3,3,3,3,-1281.0,5.53,4.05,-6.03,-1.46,5.19,-6.91,-170.375,13.6875,616.9375,0.26702880859375,0.69775390625,0.28076171875,0.0324,9.75,7.875,-42.3125,6.99,-1.14,moving,7
6.66,1663326.257460519,26,3,3,3,3,-2026.0,10.57,6.03,-13.44,3.57,6.8,-16.5,-206.25,-7.875,632.3125,0.26611328125,0.6844482421875,0.28173828125,0.0328,9.5,-0.25,-42.5625,7.0,-0.77,moving,7
6.67,1663326.257460519,26,3,3,3,3,-2460.0,20.33,22.2,-17.68,13.39,22.62,-14.53,-205.5625,-62.375,648.5,0.262451171875,0.67242431640625,0.27899169921875,0.0328,9.5,-0.25,-43.1875,6.93,-0.41,moving,7
6.68,1663326.271913033,26,3,3,3,3,-3665.0,18.6,11.62,-29.59,11.8,11.88,-2.36,-109.75,-115.5625,658.3125,0.25750732421875,0.6685791015625,0.27093505859375,0.0328,9.5,-0.25,-44.125,6.79,-0.26,moving,7
6.69,1663326.271913033,26,3,3,3,3,-3954.0,17.2,1.83,-32.27,10.64,2.41,19.81,141.8125,-184.5,651.3125,0.250244140625,0.68341064453125,0.2564697265625,0.0328,9.5,-0.25,-45.375,6.55,-0.58,moving,7
6.7,1663326.287446969,26,3,3,3,3,-3680.0,23.21,9.03,-29.29,16.96,9.9,32.75,44.8125,-220.6875,648.875,0.247314453125,0.69500732421875,0.23291015625,0.0328,9.5,-0.25,-46.875,6.24,-0.86,moving,7
6.71,1663326.287446969,26,3,3,3,2,-2941.0,24.69,-13.04,-21.79,18.54,-12.48,-44.91,-7.25,-101.9375,657.5,0.22564697265625,0.69085693359375,0.2440185546875,0.0313,10.875,-14.5625,-47.625,6.14,-0.55,moving,7
6.72,1663326.316785918,26,3,3,3,2,-1313.0,25.76,-39.18,-5.4,19.73,-38.94,-44.91,-7.25,-101.9375,665.625,0.20379638671875,0.68621826171875,0.2550048828125,0.0313,10.875,-14.5625,-48.25,6.03,-0.24,moving,7
6.73,1663326.316785918,26,3,3,3,2,-1265.0,21.86,-27.29,-4.89,15.88,-27.68,-118.51,107.25,-30.5,671.8125,0.1572265625,0.6749267578125,0.298828125,0.0313,10.875,-14.5625,-48.5,5.97,0.38,moving,7
6.74,1663326.332279977,26,3,3,3,2,-1209.0,15.78,-13.39,-4.33,9.85,-14.19,-74.61,56.25,1.5625,674.375,0.12908935546875,0.66546630859375,0.32684326171875,0.0313,10.875,-14.5625,-48.5,5.93,0.79,moving,7
6.75,1663326.332279977,26,3,3,3,2,-786.0,12.34,2.51,-0.07,6.43,1.8,-16.25,145.5625,-6.9375,667.0,0.11865234375,0.67095947265625,0.33392333984375,0.0313,10.875,-14.5625,-48.6875,5.91,0.7,moving,7
6.76,1663326.362760323,26,3,3,3,2,-554.0,8.42,2.39,2.29,2.55,1.98,-0.49,213.25,-22.375,654.75,0.11090087890625,0.68310546875,0.3349609375,0.0288,14.0625,-18.5,-48.9375,5.87,0.41,moving,7
6.77,1663326.362760323,26,3,3,3,2,-379.0,4.96,2.24,4.08,-0.88,2.12,-0.49,213.25,-22.375,642.3125,0.1031494140625,0.69500732421875,0.33587646484375,0.0288,14.0625,-18.5,-49.1875,5.84,0.12,moving,7
6.78,1663326.422164417,26,3,3,3,2,-266.0,4.09,1.53,5.2,-1.74,1.65,1.5,167.875,-6.8125,631.9375,0.09832763671875,0.7044677734375,0.33642578125,0.0288,14.0625,-18.5,-49.1875,5.83,-0.11,moving,7
6.79,1663326.422164417,26,3,3,3,2,-121.0,0.87,-0.55,6.65,-4.96,-0.26,-2.62,137.5,4.8125,623.25,0.09368896484375,0.7113037109375,0.33880615234375,0.0288,14.0625,-18.5,-49.125,5.84,-0.28,moving,7
6.8,1663326.437654489,26,3,3,3,2,-148.0,-0.34,-0.2,6.36,-6.21,0.16,-10.72,114.1875,10.9375,616.125,0.08746337890625,0.71527099609375,0.344482421875,0.0288,14.0625,-18.5,-49.0625,5.86,-0.37,moving,7
6.81,1663326.437654489,26,3,3,3,2,-155.0,-1.45,0.19,6.29,-7.32,0.53,-24.99,90.0625,-5.0625,611.6875,0.07623291015625,0.71527099609375,0.35455322265625,0.0305,13.0625,-8.0,-49.0625,5.86,-0.34,moving,7
6.82,1663326.443060739,26,3,3,3,2,-100.0,-4.78,-0.31,6.84,-10.65,0.0,-24.99,90.0625,-5.0625,607.0625,0.06494140625,0.71514892578125,0.3646240234375,0.0305,13.0625,-8.0,-49.0625,5.86,-0.3,moving,7
6.83,1663326.443060739,26,3,3,3,2,-75.0,-5.86,-0.56,7.1,-11.71,-0.27,-27.0,111.375,-17.1875,601.375,0.0516357421875,0.71551513671875,0.37481689453125,0.0305,13.0625,-8.0,-49.125,5.85,-0.28,moving,7
6.84,1663326.448495268,26,3,3,3,2,-86.0,-6.1,-0.42,7.01,-11.93,-0.14,-27.06,115.6875,-25.9375,595.5,0.03753662109375,0.7159423828125,0.38446044921875,0.0305,13.0625,-8.0,-49.25,5.82,-0.27,moving,7
6.85,1663326.448495268,26,3,3,3,2,-79.0,-6.33,0.09,7.11,-12.12,0.35,-25.48,108.375,-35.4375,590.25,0.0235595703125,0.71612548828125,0.39288330078125,0.0305,13.0625,-8.0,-49.4375,5.78,-0.26,moving,7
6.86,1663326.453723133,26,3,3,3,1,26.0,-6.04,1.73,8.21,-11.77,2.05,-17.96,117.75,-43.9375,584.4375,0.01116943359375,0.71826171875,0.39788818359375,0.0293,14.1875,1.6875,-49.6875,5.72,-0.31,moving,7
6.87,1663326.453723133,26,3,3,3,1,64.0,-4.81,2.8,8.62,-10.49,3.22,-14.41,139.0625,-38.625,576.875,-0.0006103515625,0.72198486328125,0.40167236328125,0.0293,14.1875,1.6875,-49.875,5.68,-0.41,moving,7
6.88,1663326.467681303,26,3,3,3,1,126.0,-3.81,3.27,9.25,-9.46,3.84,-15.39,178.3125,-30.3125,566.375,-0.01348876953125,0.727294921875,0.4061279296875,0.0293,14.1875,1.6875,-49.9375,5.64,-0.57,moving,7
6.89,1663326.467681303,26,3,3,3,1,208.0,-2.85,3.24,10.08,-8.47,4.01,-17.0,213.25,-25.6875,553.1875,-0.02783203125,0.733642578125,0.4112548828125,0.0293,14.1875,1.6875,-49.9375,5.62,-0.76,moving,7
6.9,1663326.482912667,26,3,3,3,1,208.0,-2.85,3.24,10.08,-8.47,4.01,-17.0,213.25,-25.6875,553.1875,-0.02783203125,0.733642578125,0.4112548828125,0.0293,14.1875,1.6875,-49.9375,5.62,-0.76,moving,7
6.9,1663326.482912667,26,3,3,3,1,466.0,0.73,3.78,12.65,-4.86,4.74,-17.44,215.0625,-31.25,539.875,-0.04266357421875,0.7396240234375,0.4161376953125,0.0293,14.1875,1.6875,-49.9375,5.59,-0.95,moving,7
6.91,1663326.497296416,26,3,3,3,1,560.0,2.49,4.89,13.61,-3.05,6.0,-17.47,183.8125,-45.25,528.875,-0.05731201171875,0.74383544921875,0.4202880859375,0.0293,13.0625,10.0,-50.0,5.55,-1.1,moving,7
6.92,1663326.497296416,26,3,3,3,1,592.0,3.61,6.94,13.96,-1.87,8.11,-14.96,109.25,-58.1875,523.25,-0.06927490234375,0.7449951171875,0.42315673828125,0.0293,13.0625,10.0,-50.25,5.48,-1.17,moving,7
6.93,1663326.527306873,26,3,3,3,1,562.0,5.09,9.35,13.69,-0.37,10.45,-14.71,11.6875,-30.375,523.0625,-0.0758056640625,0.74188232421875,0.42767333984375,0.0293,13.0625,10.0,-50.375,5.46,-1.1,moving,7
6.94,1663326.527306873,26,3,3,3,1,-342.0,8.38,8.05,4.62,2.87,9.12,-13.68,37.875,16.4375,519.3125,-0.0799560546875,0.740478515625,0.43365478515625,0.0293,13.0625,10.0,-50.25,5.5,-1.07,moving,7
6.95,1663326.541872588,26,3,3,3,1,-939.0,9.24,6.93,-1.4,3.66,8.06,-3.48,55.875,52.6875,513.4375,-0.07965087890625,0.74249267578125,0.43701171875,0.0293,13.0625,10.0,-49.875,5.58,-1.12,moving,7
6.96,1663326.541872588,26,3,3,3,1,-1534.0,14.88,8.97,-7.46,9.18,10.24,14.44,34.6875,99.4375,507.875,-0.070556640625,0.748046875,0.435302734375,0.0275,12.75,18.0625,-49.1875,5.69,-1.26,moving,7
6.97,1663326.572065337,26,3,3,3,1,-2743.0,31.78,2.49,-19.68,25.92,3.8,6.39,3.6875,127.0625,502.875,-0.0606689453125,0.75042724609375,0.4381103515625,0.0275,12.75,18.0625,-48.375,5.86,-1.31,moving,7
6.98,1663326.572065337,26,3,3,3,1,-3095.0,34.3,-8.95,-23.3,28.25,-7.93,-22.3,-103.625,120.625,504.3125,-0.05474853515625,0.74114990234375,0.45294189453125,0.0275,12.75,18.0625,-47.75,6.05,-1.02,moving,7
6.99,1663326.586628732,26,3,3,3,1,-3453.0,31.07,-35.28,-26.97,24.82,-35.13,-66.23,-323.8125,111.125,518.625,-0.052490234375,0.71063232421875,0.4854736328125,0.0275,12.75,18.0625,-47.1875,6.24,-0.15,moving,7
7.0,1663326.586628732,26,3,3,3,1,-3572.0,25.37,-37.65,-28.24,19.05,-38.19,-27.46,-377.625,60.6875,538.8125,-0.040283203125,0.6865234375,0.500244140625,0.0275,12.75,18.0625,-46.6875,6.31,0.53,moving,7
7.01,1663326.60158088,26,3,3,3,1,-2251.0,12.94,-0.11,-15.06,6.57,-0.6,30.5,-130.5,21.375,546.375,-0.0245361328125,0.68878173828125,0.4901123046875,0.0278,13.0,21.5625,-46.5,6.36,0.48,moving,7
7.02,1663326.60158088,26,3,3,3,1,-1901.0,11.08,4.89,-11.57,4.69,4.62,31.23,1.4375,3.9375,546.4375,-0.0152587890625,0.6971435546875,0.478515625,0.0278,13.0,21.5625,-46.4375,6.38,0.26,moving,7
7.03,1663326.693765573,26,3,3,3,1,-1680.0,10.16,3.97,-9.37,3.77,3.85,23.11,-12.875,3.125,547.25,-0.0078125,0.70257568359375,0.4698486328125,0.0278,13.0,21.5625,-46.4375,6.39,0.12,moving,7
7.04,1663326.693765573,26,3,3,3,1,-1398.0,9.77,2.43,-6.54,3.38,2.45,24.23,-20.125,-0.125,548.5625,0.0001220703125,0.707763671875,0.46051025390625,0.0278,13.0,21.5625,-46.4375,6.39,-0.01,moving,7
7.05,1663326.699474638,26,3,3,3,1,-896.0,8.29,-2.1,-1.52,1.9,-1.91,23.96,4.625,-8.0625,548.5,0.00640869140625,0.7139892578125,0.45086669921875,0.0278,13.0,21.5625,-46.5,6.38,-0.19,moving,7
7.06,1663326.699474638,26,3,3,3,1,-660.0,7.65,-1.4,0.84,1.29,-1.07,21.25,-7.9375,-9.0625,549.25,0.01239013671875,0.71881103515625,0.44207763671875,0.0292,11.5625,22.25,-46.5625,6.36,-0.32,moving,7
7.07,1663326.704586821,26,3,3,3,1,-472.0,6.87,-0.69,2.74,0.53,-0.25,18.64,-19.9375,-9.5,550.75,0.01800537109375,0.72235107421875,0.434326171875,0.0292,11.5625,22.25,-46.625,6.34,-0.43,moving,7
7.08,1663326.704586821,26,3,3,3,1,-323.0,6.09,-0.53,4.23,-0.22,0.03,20.97,-5.875,-10.9375,551.3125,0.023681640625,0.72705078125,0.42547607421875,0.0292,11.5625,22.25,-46.6875,6.31,-0.57,moving,7
7.09,1663326.710343087,26,3,3,3,1,-33.0,4.45,-1.36,7.15,-1.83,-0.61,23.3,16.125,-8.6875,550.1875,0.02935791015625,0.733154296875,0.41583251953125,0.0292,11.5625,22.25,-46.75,6.28,-0.75,moving,7
7.1,1663326.710343087,26,3,3,3,1,86.0,3.89,-1.29,8.35,-2.37,-0.35,23.77,14.25,-1.6875,548.875,0.03570556640625,0.73919677734375,0.40625,0.0292,11.5625,22.25,-46.75,6.26,-0.93,moving,7
7.11,1663326.715624581,26,3,3,3,1,185.0,3.74,-0.74,9.33,-2.5,0.36,25.2,-4.875,8.875,548.25,0.0438232421875,0.74444580078125,0.39642333984375,0.0295,12.375,17.5625,-46.6875,6.24,-1.1,moving,7
7.12,1663326.715624581,26,3,3,3,1,259.0,3.55,0.12,10.05,-2.68,1.38,28.76,-25.25,21.3125,548.375,0.05450439453125,0.74932861328125,0.3856201171875,0.0295,12.375,17.5625,-46.5625,6.23,-1.26,moving,7
7.13,1663326.722216867,26,3,3,3,1,304.0,2.53,2.05,10.47,-3.69,3.48,32.34,-40.75,29.5,549.0,0.0672607421875,0.7540283203125,0.37353515625,0.0295,12.375,17.5625,-46.4375,6.23,-1.43,moving,7
7.14,1663326.722216867,26,3,3,3,1,308.0,1.8,2.22,10.49,-4.4,3.83,34.48,-45.4375,32.4375,549.5625,0.0809326171875,0.75860595703125,0.36053466796875,0.0295,12.375,17.5625,-46.3125,6.21,-1.6,moving,7
7.15,1663326.752992176,26,3,3,3,1,296.0,0.78,1.86,10.35,-5.41,3.63,35.28,-55.3125,32.6875,550.5,0.09515380859375,0.7625732421875,0.34698486328125,0.0295,12.375,17.5625,-46.1875,6.19,-1.77,moving,7
7.16,1663326.752992176,26,3,3,3,1,226.0,0.02,1.79,9.64,-6.14,3.71,35.27,-77.4375,35.1875,552.6875,0.11016845703125,0.76513671875,0.33331298828125,0.0295,12.0,11.375,-46.0625,6.16,-1.91,moving,7
7.17,1663326.783200387,26,3,3,3,1,218.0,0.14,2.14,9.55,-5.99,4.16,35.39,-99.5,35.625,556.125,0.1258544921875,0.76641845703125,0.31915283203125,0.0295,12.0,11.375,-46.0625,6.13,-2.02,moving,7
7.18,1663326.783200387,26,3,3,3,1,213.0,-0.46,3.26,9.51,-6.56,5.36,33.95,-114.4375,34.1875,560.4375,0.141357421875,0.766357421875,0.3052978515625,0.0295,12.0,11.375,-46.0625,6.1,-2.1,moving,7
7.19,1663326.790233387,26,3,3,3,1,213.0,-0.46,3.26,9.51,-6.56,5.36,33.95,-114.4375,34.1875,560.4375,0.141357421875,0.766357421875,0.3052978515625,0.0295,12.0,11.375,-46.0625,6.1,-2.1,moving,7
7.2,1663326.790233387,26,3,3,3,1,220.0,-1.94,4.51,9.59,-8.03,6.64,27.89,-124.1875,35.8125,565.625,0.1553955078125,0.7645263671875,0.29376220703125,0.0295,12.0,11.375,-46.125,6.08,-2.12,moving,7
7.2,1663326.797418567,26,3,3,3,1,297.0,-5.23,9.63,10.37,-11.33,11.7,16.31,-130.1875,37.0,572.0625,0.16607666015625,0.76025390625,0.2869873046875,0.0295,12.0,11.375,-46.1875,6.09,-2.07,moving,7
7.21,1663326.797418567,26,3,3,3,1,149.0,-7.67,8.57,8.89,-13.82,10.46,-2.8,-130.9375,33.375,580.25,0.17071533203125,0.7529296875,0.287841796875,0.0309,12.5,4.0,-46.25,6.14,-1.88,moving,7
7.22,1663326.812414051,26,3,3,3,1,110.0,-9.17,5.93,8.51,-15.39,7.51,-12.98,-168.0,36.75,591.75,0.17333984375,0.741943359375,0.29248046875,0.0309,12.5,4.0,-46.3125,6.22,-1.57,moving,7
7.23,1663326.812414051,26,3,3,3,1,135.0,-7.65,6.56,8.77,-13.94,7.82,-13.14,-177.5625,35.5,603.8125,0.176025390625,0.730224609375,0.296875,0.0309,12.5,4.0,-46.375,6.28,-1.25,moving,7
7.24,1663326.844274565,26,3,3,3,1,-319.0,-1.68,2.15,4.22,-8.02,3.18,-8.14,-137.0625,28.125,612.75,0.1787109375,0.72137451171875,0.2994384765625,0.0309,12.5,4.0,-46.3125,6.33,-1.02,moving,7
7.25,1663326.844274565,26,3,3,3,1,-640.0,-0.18,2.43,1.02,-6.53,3.24,-6.06,-134.375,10.4375,621.6875,0.180908203125,0.713134765625,0.30023193359375,0.0309,12.5,4.0,-46.375,6.35,-0.8,moving,7
7.26,1663326.857995472,26,3,3,3,1,-892.0,1.35,2.85,-1.47,-4.99,3.46,-5.31,-124.375,-6.0,630.25,0.1820068359375,0.70574951171875,0.29998779296875,0.0305,12.0625,-3.25,-46.5,6.34,-0.61,moving,7
7.27,1663326.857995472,26,3,3,3,1,-1493.0,3.2,2.68,-7.46,-3.13,3.15,0.5,-112.375,-8.1875,637.5,0.1845703125,0.6998291015625,0.29754638671875,0.0305,12.0625,-3.25,-46.625,6.33,-0.46,moving,7
7.28,1663326.888114612,26,3,3,3,1,-3634.0,16.51,4.55,-28.76,10.31,4.99,27.33,-166.4375,-89.9375,647.375,0.192626953125,0.696533203125,0.27947998046875,0.0305,12.0625,-3.25,-47.375,6.2,-0.43,moving,7
7.29,1663326.888114612,26,3,3,3,1,-3954.0,24.22,15.4,-31.81,18.21,16.06,46.19,-62.6875,-131.75,649.3125,0.20196533203125,0.7020263671875,0.2535400390625,0.0305,12.0625,-3.25,-48.25,6.0,-0.65,moving,7
7.3,1663326.893641264,26,3,3,3,1,-3954.0,30.93,-1.18,-31.63,25.18,-0.35,28.73,-9.5625,-168.25,650.375,0.20172119140625,0.708251953125,0.23297119140625,0.0305,12.0625,-3.25,-49.375,5.74,-0.82,moving,7
7.31,1663326.893641264,26,3,3,3,1,-3014.0,28.09,-35.97,-22.11,22.47,-35.45,-33.01,-77.625,-116.875,661.3125,0.1845703125,0.70159912109375,0.23785400390625,0.0309,12.25,-9.875,-50.125,5.61,-0.51,moving,7
7.32,1663326.93261327,26,3,3,3,1,-2029.0,21.28,-33.8,-12.24,15.67,-33.65,-91.42,135.75,-23.3125,661.875,0.14794921875,0.6968994140625,0.2733154296875,0.0309,12.25,-9.875,-50.25,5.61,-0.14,moving,7
7.33,1663326.93261327,26,3,3,3,1,-1514.0,18.18,-15.19,-7.07,12.61,-15.08,-42.42,158.1875,-30.8125,656.0625,0.1273193359375,0.69964599609375,0.28961181640625,0.0309,12.25,-9.875,-50.375,5.57,-0.11,moving,7
7.34,1663327.01184207,26,3,3,3,1,-1317.0,15.5,-2.28,-5.07,9.98,-2.03,-9.82,145.375,-40.625,648.625,0.11773681640625,0.70660400390625,0.29266357421875,0.0309,12.25,-9.875,-50.625,5.51,-0.25,moving,7
7.35,1663327.01184207,26,3,3,3,1,-728.0,11.8,3.96,0.83,6.3,4.41,-6.01,165.0,-20.75,639.0625,0.110107421875,0.71490478515625,0.29547119140625,0.0309,12.25,-9.875,-50.6875,5.49,-0.45,moving,7
7.36,1663327.017736764,26,3,3,3,1,-537.0,8.1,1.13,2.72,2.62,1.82,-2.76,177.4375,-6.125,627.9375,0.104248046875,0.72412109375,0.2978515625,0.0295,14.875,-20.0,-50.625,5.48,-0.69,moving,7
7.37,1663327.017736764,26,3,3,3,1,-394.0,6.76,-0.98,4.13,1.27,-0.05,1.9,158.125,4.375,617.4375,0.10101318359375,0.7327880859375,0.29876708984375,0.0295,14.875,-20.0,-50.4375,5.48,-0.92,moving,7
7.38,1663327.023478016,26,3,3,3,1,-288.0,5.03,-2.03,5.13,-0.47,-0.89,2.48,139.625,19.625,607.5625,0.0994873046875,0.7403564453125,0.29998779296875,0.0295,14.875,-20.0,-50.125,5.51,-1.13,moving,7
7.39,1663327.023478016,26,3,3,3,1,-316.0,1.1,-0.81,4.81,-4.45,0.47,-3.02,126.375,25.375,598.625,0.0968017578125,0.74615478515625,0.3035888671875,0.0295,14.875,-20.0,-49.8125,5.55,-1.29,moving,7
7.4,1663327.028815255,26,3,3,3,1,-325.0,-0.63,-0.31,4.67,-6.23,1.07,-10.26,105.8125,21.4375,591.4375,0.0921630859375,0.7496337890625,0.30975341796875,0.0295,14.875,-20.0,-49.5625,5.59,-1.38,moving,7
7.41,1663327.028815255,26,3,3,3,0,-307.0,-1.99,0.01,4.82,-7.63,1.4,-16.52,79.75,13.5625,586.5,0.085693359375,0.750732421875,0.31781005859375,0.0292,15.25,-11.0,-49.3125,5.64,-1.39,moving,7
7.42,1663327.033954334,26,3,3,3,0,-290.0,-3.18,0.44,4.97,-8.86,1.8,-20.66,72.6875,5.625,582.375,0.07757568359375,0.75067138671875,0.32708740234375,0.0292,15.25,-11.0,-49.1875,5.68,-1.36,moving,7
7.43,1663327.033954334,26,3,3,3,0,-318.0,-5.63,1.25,4.67,-11.34,2.6,-22.82,91.5,-3.75,577.25,0.06768798828125,0.7510986328125,0.3367919921875,0.0292,15.25,-11.0,-49.0625,5.7,-1.34,moving,7
7.44,1663327.039484648,26,3,3,3,0,-368.0,-7.03,1.83,4.15,-12.76,3.21,-22.94,124.6875,-9.125,569.9375,0.05633544921875,0.75299072265625,0.346435546875,0.0292,15.25,-11.0,-48.9375,5.73,-1.37,moving,7
7.45,1663327.039484648,26,3,3,3,0,-368.0,-7.03,1.83,4.15,-12.76,3.21,-22.94,124.6875,-9.125,569.9375,0.05633544921875,0.75299072265625,0.346435546875,0.0292,15.25,-11.0,-48.9375,5.73,-1.37,moving,7
7.46,1663327.042366769,26,3,3,3,0,-346.0,-7.86,2.41,4.34,-13.61,3.88,-21.44,160.375,-10.6875,560.0625,0.04425048828125,0.7567138671875,0.35540771484375,0.0292,15.25,-11.0,-48.75,5.74,-1.46,moving,7
7.46,1663327.042366769,26,3,3,3,0,-185.0,-7.85,2.51,5.91,-13.61,4.11,-18.96,186.6875,-14.3125,548.25,0.0318603515625,0.7618408203125,0.36322021484375,0.0289,14.5625,-1.6875,-48.5625,5.76,-1.59,moving,7
7.47,1663327.067692412,26,3,3,3,0,274.0,-4.92,2.32,10.47,-10.68,4.08,-17.1,204.3125,-22.0625,535.25,0.0189208984375,0.7679443359375,0.3697509765625,0.0289,14.5625,-1.6875,-48.3125,5.76,-1.76,moving,7
7.48,1663327.067692412,26,3,3,3,0,407.0,-4.84,2.62,11.78,-10.57,4.57,-14.87,205.5625,-42.1875,522.625,0.0052490234375,0.77423095703125,0.374267578125,0.0289,14.5625,-1.6875,-48.1875,5.73,-1.95,moving,7
7.49,1663327.083762765,26,3,3,3,0,488.0,-4.41,2.74,12.6,-10.07,4.87,-12.95,196.0,-78.0,511.5625,-0.01007080078125,0.78021240234375,0.37628173828125,0.0289,14.5625,-1.6875,-48.1875,5.65,-2.13,moving,7
7.5,1663327.083762765,26,3,3,3,0,590.0,-0.79,1.4,13.65,-6.34,3.71,-14.59,196.125,-108.375,501.375,-0.02783203125,0.7855224609375,0.37750244140625,0.0289,14.5625,-1.6875,-48.375,5.54,-2.31,moving,7
7.51,1663327.113844186,26,3,3,3,0,730.0,-0.57,1.08,15.11,-5.97,3.55,-17.75,193.6875,-138.6875,492.0625,-0.0484619140625,0.78955078125,0.37860107421875,0.0276,14.375,10.0,-48.75,5.4,-2.46,moving,7
7.52,1663327.113844186,26,3,3,3,0,786.0,-0.41,1.81,15.74,-5.65,4.4,-17.1,163.625,-152.3125,485.0625,-0.06884765625,0.7921142578125,0.3787841796875,0.0276,14.375,10.0,-49.1875,5.24,-2.59,moving,7
7.53,1663327.127888986,26,3,3,3,0,546.0,0.93,3.53,13.42,-4.19,6.1,-15.36,48.25,-120.5,485.0625,-0.08270263671875,0.79010009765625,0.38006591796875,0.0276,14.375,10.0,-49.6875,5.12,-2.57,moving,7
7.54,1663327.127888986,26,3,3,3,0,-622.0,9.54,12.59,1.8,4.41,14.91,-19.79,-97.9375,-31.0,492.0625,-0.08673095703125,0.78167724609375,0.38800048828125,0.0276,14.375,10.0,-50.125,5.13,-2.32,moving,7
7.55,1663327.144221261,26,3,3,3,0,-1279.0,15.53,15.69,-4.76,10.28,17.75,-29.34,-74.25,33.0,494.625,-0.08966064453125,0.7724609375,0.40234375,0.0276,14.375,10.0,-50.125,5.24,-2.05,moving,7
7.56,1663327.144221261,26,3,3,3,0,-1803.0,21.79,14.65,-10.1,16.42,16.73,-9.94,57.625,77.375,487.375,-0.08905029296875,0.7733154296875,0.40936279296875,0.0266,15.0625,14.5625,-49.5625,5.37,-2.07,moving,7
7.57,1663327.17446113,26,3,3,3,0,-1699.0,30.0,4.35,-9.25,24.33,6.38,-3.31,-19.4375,208.0625,480.875,-0.07513427734375,0.773193359375,0.41949462890625,0.0266,15.0625,14.5625,-48.3125,5.66,-2.02,moving,7
7.58,1663327.17446113,26,3,3,3,0,-3573.0,39.04,-23.06,-28.07,33.1,-21.59,-25.58,-301.5,163.375,494.25,-0.0595703125,0.75567626953125,0.438720703125,0.0266,15.0625,14.5625,-47.875,5.93,-1.46,moving,7
7.59,1663327.203755034,26,3,3,3,0,-3921.0,24.49,-39.18,-31.57,18.37,-38.63,-58.07,-398.8125,87.875,515.1875,-0.0537109375,0.724609375,0.46795654296875,0.0266,15.0625,14.5625,-47.75,6.11,-0.54,moving,7
7.6,1663327.203755034,26,3,3,3,0,-2624.0,20.76,-17.03,-18.62,14.6,-16.74,17.04,-274.75,37.125,531.75,-0.03546142578125,0.716796875,0.4639892578125,0.0266,15.0625,14.5625,-47.625,6.16,-0.29,moving,7
7.61,1663327.209304066,26,3,3,3,0,-2495.0,10.84,1.59,-17.34,4.68,2.14,37.5,5.875,8.4375,531.625,-0.0245361328125,0.7264404296875,0.4495849609375,0.0264,15.0625,18.5,-47.5625,6.15,-0.55,moving,7
7.62,1663327.209304066,26,3,3,3,0,-1894.0,8.3,5.53,-11.33,2.16,6.24,25.06,-6.0625,5.0,532.0625,-0.01690673828125,0.73223876953125,0.43988037109375,0.0264,15.0625,18.5,-47.5,6.14,-0.71,moving,7
7.63,1663327.294785104,26,3,3,3,0,-1564.0,7.23,2.14,-8.04,1.09,2.94,20.97,-42.375,8.625,534.6875,-0.00872802734375,0.7353515625,0.43194580078125,0.0264,15.0625,18.5,-47.5,6.14,-0.8,moving,7
7.64,1663327.294785104,26,3,3,3,0,-1238.0,6.69,-0.77,-4.77,0.57,0.12,19.8,-30.4375,1.3125,536.6875,-0.00189208984375,0.73858642578125,0.424072265625,0.0264,15.0625,18.5,-47.5,6.12,-0.89,moving,7
7.65,1663327.300696685,26,3,3,3,0,-902.0,5.58,-3.16,-1.41,-0.52,-2.19,17.85,-28.3125,-4.0625,538.6875,0.0040283203125,0.74139404296875,0.41668701171875,0.0264,15.0625,18.5,-47.5625,6.1,-0.97,moving,7
7.66,1663327.300696685,26,3,3,3,0,-700.0,5.02,-1.91,0.62,-1.05,-0.91,14.26,-48.75,-5.625,542.0625,0.009521484375,0.74237060546875,0.41064453125,0.0289,13.5625,16.5,-47.6875,6.07,-1.0,moving,7
7.67,1663327.305670358,26,3,3,3,0,-518.0,4.05,-1.24,2.45,-2.0,-0.21,13.07,-44.9375,-3.8125,545.0625,0.0146484375,0.74322509765625,0.40509033203125,0.0289,13.5625,16.5,-47.75,6.05,-1.03,moving,7
7.68,1663327.305670358,26,3,3,3,0,-382.0,3.68,-1.14,3.82,-2.35,-0.04,13.58,-15.75,-1.75,546.0625,0.01904296875,0.74542236328125,0.39947509765625,0.0289,13.5625,16.5,-47.75,6.04,-1.09,moving,7
7.69,1663327.311791452,26,3,3,3,0,-157.0,2.27,-1.7,6.06,-3.75,-0.5,14.11,8.1875,3.25,545.1875,0.0230712890625,0.7489013671875,0.3939208984375,0.0289,13.5625,16.5,-47.75,6.02,-1.2,moving,7
7.7,1663327.311791452,26,3,3,3,0,-69.0,1.52,-1.86,6.93,-4.49,-0.53,15.54,14.0625,11.9375,543.625,0.02789306640625,0.75286865234375,0.38812255859375,0.0289,13.5625,16.5,-47.625,6.02,-1.32,moving,7
7.71,1663327.316193918,26,3,3,3,0,-69.0,1.52,-1.86,6.93,-4.49,-0.53,15.54,14.0625,11.9375,543.625,0.02789306640625,0.75286865234375,0.38812255859375,0.0289,13.5625,16.5,-47.625,6.02,-1.32,moving,7
7.72,1663327.316193918,26,3,3,3,0,29.0,0.45,-1.61,7.9,-5.56,-0.16,18.03,9.75,21.3125,541.875,0.0341796875,0.75701904296875,0.3817138671875,0.0295,14.5,11.5,-47.5,6.02,-1.45,moving,7
7.72,1663327.320822336,26,3,3,3,0,140.0,-0.65,-1.16,8.97,-6.68,0.44,21.44,7.5,28.25,539.9375,0.0419921875,0.76171875,0.3741455078125,0.0295,14.5,11.5,-47.25,6.02,-1.6,moving,7
7.73,1663327.320822336,26,3,3,3,0,269.0,-1.2,0.34,10.23,-7.22,2.11,22.98,6.5625,32.0,537.8125,0.050537109375,0.76654052734375,0.3660888671875,0.0295,14.5,11.5,-47.0625,6.02,-1.76,moving,7
7.74,1663327.338236032,26,3,3,3,0,352.0,-1.85,1.62,11.01,-7.88,3.54,21.37,4.6875,34.1875,535.75,0.05877685546875,0.77081298828125,0.35870361328125,0.0295,14.5,11.5,-46.8125,6.02,-1.91,moving,7
7.75,1663327.338236032,26,3,3,3,0,318.0,-2.11,1.99,10.63,-8.15,4.05,18.71,12.125,37.375,533.0625,0.06622314453125,0.7747802734375,0.35260009765625,0.0295,14.5,11.5,-46.5625,6.03,-2.05,moving,7
7.76,1663327.353401152,26,3,3,3,0,350.0,-2.85,2.4,10.91,-8.9,4.58,16.73,7.75,40.3125,530.5625,0.073486328125,0.778076171875,0.347412109375,0.03,14.5,8.375,-46.25,6.04,-2.17,moving,7
7.78,1663327.353401152,26,3,3,3,0,280.0,-3.76,2.45,10.16,-9.83,4.72,15.71,-10.375,45.0625,529.25,0.081298828125,0.7802734375,0.3426513671875,0.03,14.5,8.375,-46.0,6.06,-2.26,moving,7
7.79,1663327.383804432,26,3,3,3,0,227.0,-4.18,2.36,9.59,-10.28,4.68,15.1,-33.875,49.875,529.375,0.0899658203125,0.78118896484375,0.3382568359375,0.03,14.5,8.375,-45.75,6.09,-2.32,moving,7
7.79,1663327.383804432,26,3,3,3,0,188.0,-4.16,2.51,9.18,-10.28,4.85,14.2,-59.375,51.5625,531.1875,0.0992431640625,0.78070068359375,0.33404541015625,0.03,14.5,8.375,-45.5625,6.12,-2.34,moving,7
7.81,1663327.399664173,26,3,3,3,0,116.0,-4.14,2.68,8.43,-10.29,5.0,10.91,-74.6875,48.9375,534.3125,0.10784912109375,0.77886962890625,0.3309326171875,0.03,14.5,8.375,-45.4375,6.15,-2.31,moving,7
7.81,1663327.399664173,26,3,3,3,0,-125.0,-2.83,1.93,5.99,-9.03,4.18,6.16,-84.0,44.6875,538.4375,0.11505126953125,0.77569580078125,0.32952880859375,0.0295,13.6875,6.5,-45.3125,6.2,-2.25,moving,7
7.82,1663327.414268096,26,3,3,3,0,-272.0,-0.69,1.9,4.52,-6.94,4.05,2.75,-93.9375,40.25,543.5625,0.12127685546875,0.77142333984375,0.32928466796875,0.0295,13.6875,6.5,-45.25,6.24,-2.15,moving,7
7.83,1663327.414268096,26,3,3,3,0,-547.0,3.03,2.55,1.76,-3.24,4.6,4.73,-106.625,42.625,549.3125,0.1285400390625,0.766845703125,0.328125,0.0295,13.6875,6.5,-45.25,6.28,-2.05,moving,7
7.84,1663327.458449777,26,3,3,3,0,-1692.0,15.12,7.02,-9.69,8.8,8.99,14.05,-134.0,52.375,555.875,0.13995361328125,0.762451171875,0.3231201171875,0.0295,13.6875,6.5,-45.1875,6.32,-1.97,moving,7
7.85,1663327.458449777,26,3,3,3,0,-2457.0,23.99,10.65,-17.34,17.64,12.55,13.28,-137.125,43.375,562.875,0.150634765625,0.7576904296875,0.3179931640625,0.0295,13.6875,6.5,-45.125,6.34,-1.89,moving,7
7.87,1663327.464022612,26,3,3,3,0,-2247.0,18.96,11.63,-15.23,12.6,13.43,-5.2,-49.6875,2.4375,566.625,0.150634765625,0.75433349609375,0.319580078125,0.0303,13.6875,4.875,-45.25,6.36,-1.79,moving,7
7.88,1663327.464022612,26,3,3,3,0,-2307.0,12.57,2.31,-15.82,6.17,3.95,-23.18,0.75,-4.0625,568.625,0.143310546875,0.75030517578125,0.32891845703125,0.0303,13.6875,4.875,-45.25,6.4,-1.63,moving,7
7.89,1663327.520711211,26,3,3,3,0,-1735.0,20.77,-31.44,-10.11,14.3,-30.09,-43.62,18.375,4.25,570.625,0.12982177734375,0.7430419921875,0.34710693359375,0.0303,13.6875,4.875,-45.1875,6.47,-1.35,moving,7
7.9,1663327.520711211,26,3,3,3,0,-1501.0,17.17,-16.64,-7.82,10.62,-15.42,-48.18,168.625,5.25,562.5,0.1103515625,0.74176025390625,0.36859130859375,0.0303,13.6875,4.875,-44.9375,6.55,-1.22,moving,7
7.9,1663327.525356109,26,3,3,3,0,-1269.0,15.54,-8.77,-5.51,8.97,-7.51,-21.18,150.375,-10.375,554.125,0.09844970703125,0.74468994140625,0.3780517578125,0.0303,13.6875,4.875,-44.8125,6.56,-1.25,moving,7
7.91,1663327.525356109,26,3,3,3,0,-977.0,15.26,-5.81,-2.6,8.7,-4.47,-3.55,82.125,-11.5625,549.25,0.09393310546875,0.74786376953125,0.37969970703125,0.0312,13.6875,-0.1875,-44.75,6.55,-1.33,moving,7
7.92,1663327.529926421,26,3,3,3,0,-937.0,13.06,-1.44,-2.22,6.51,-0.01,2.58,59.1875,-2.9375,545.25,0.092529296875,0.751220703125,0.37896728515625,0.0312,13.6875,-0.1875,-44.6875,6.55,-1.42,moving,7
7.93,1663327.529926421,26,3,3,3,0,-886.0,11.41,-2.13,-1.71,4.86,-0.61,4.41,44.75,0.5,542.0,0.09234619140625,0.75421142578125,0.37750244140625,0.0312,13.6875,-0.1875,-44.625,6.54,-1.51,stop,7
7.94,1663327.534855213,26,3,3,3,0,-828.0,9.33,-3.14,-1.14,2.79,-1.55,4.91,27.25,1.3125,539.875,0.09295654296875,0.7564697265625,0.37579345703125,0.0312,13.6875,-0.1875,-44.5625,6.53,-1.58,stop,7
7.96,1663327.534855213,26,3,3,3,0,-789.0,7.93,-4.03,-0.76,1.4,-2.39,4.06,22.125,-0.6875,538.1875,0.0933837890625,0.75830078125,0.374267578125,0.0312,13.6875,-0.1875,-44.5625,6.52,-1.64,stop,7
7.97,1663327.563831979,26,3,3,3,0,-642.0,6.68,-4.37,0.7,0.16,-2.66,3.1,33.625,-4.9375,535.875,0.09283447265625,0.760498046875,0.37298583984375,0.0309,13.375,8.375,-44.5,6.51,-1.7,stop,7
7.97,1663327.563831979,26,3,3,3,0,-642.0,6.68,-4.37,0.7,0.16,-2.66,3.1,33.625,-4.9375,535.875,0.09283447265625,0.760498046875,0.37298583984375,0.0309,13.375,8.375,-44.5,6.51,-1.7,stop,7
7.98,1663327.568920887,26,3,3,3,0,-571.0,5.95,-3.95,1.41,-0.54,-2.16,3.31,50.9375,-8.5625,532.5,0.091552734375,0.7635498046875,0.37164306640625,0.0309,13.375,8.375,-44.5,6.49,-1.79,stop,7
7.98,1663327.568920887,26,3,3,3,0,-524.0,4.98,-3.47,1.86,-1.49,-1.57,3.64,64.1875,-12.25,528.375,0.08966064453125,0.767333984375,0.37005615234375,0.0309,13.375,8.375,-44.4375,6.47,-1.89,stop,7
7.99,1663327.609118194,26,3,3,3,0,-427.0,3.31,-2.46,2.83,-3.13,-0.46,3.16,68.3125,-16.25,524.0,0.0872802734375,0.7711181640625,0.3685302734375,0.0309,13.375,8.375,-44.375,6.45,-2.0,stop,7
8.0,1663327.609118194,26,3,3,3,0,-404.0,2.86,-2.05,3.05,-3.55,0.04,1.91,65.3125,-19.0625,520.0625,0.08441162109375,0.77459716796875,0.36737060546875,0.0309,13.375,8.375,-44.375,6.42,-2.1,stop,7
8.01,1663327.616639678,26,3,3,3,0,-376.0,2.53,-1.84,3.34,-3.86,0.32,-0.12,56.5625,-21.25,516.8125,0.0811767578125,0.7772216796875,0.36688232421875,0.0303,13.375,9.0625,-44.375,6.39,-2.17,stop,7
8.02,1663327.616639678,26,3,3,3,0,-356.0,2.59,-1.75,3.55,-3.77,0.45,-2.22,44.3125,-23.5625,514.5625,0.0775146484375,0.77886962890625,0.36712646484375,0.0303,13.375,9.0625,-44.4375,6.37,-2.21,stop,7
8.04,1663327.653791533,26,3,3,3,0,-376.0,3.28,-1.45,3.36,-3.06,0.76,-4.07,32.0,-25.375,513.375,0.07366943359375,0.7796630859375,0.36798095703125,0.0303,13.375,9.0625,-44.5625,6.35,-2.22,stop,7
8.05,1663327.653791533,26,3,3,3,0,-386.0,4.03,-1.23,3.28,-2.29,0.97,-5.53,24.1875,-26.625,512.75,0.069580078125,0.77978515625,0.3692626953125,0.0303,13.375,9.0625,-44.6875,6.33,-2.21,stop,7
8.06,1663327.658776804,26,3,3,3,0,-434.0,4.7,-0.9,2.83,-1.6,1.28,-6.92,21.5,-25.6875,512.375,0.06524658203125,0.77947998046875,0.3712158203125,0.0303,13.375,9.0625,-44.8125,6.31,-2.19,stop,7
8.06,1663327.658776804,26,3,3,3,0,-488.0,4.98,-0.79,2.31,-1.31,1.37,-7.61,23.0,-24.1875,511.8125,0.060791015625,0.779052734375,0.37353515625,0.0291,13.375,11.5,-44.9375,6.3,-2.17,stop,7
8.07,1663327.668545602,26,3,3,3,0,-582.0,5.82,-0.91,1.38,-0.46,1.24,-7.15,27.0,-22.25,510.875,0.05645751953125,0.7789306640625,0.375732421875,0.0291,13.375,11.5,-45.0,6.29,-2.15,stop,7
8.08,1663327.668545602,26,3,3,3,0,-605.0,6.37,-1.24,1.16,0.09,0.9,-6.2,29.0625,-20.0625,509.75,0.05242919921875,0.77899169921875,0.37762451171875,0.0291,13.375,11.5,-45.0625,6.28,-2.14,stop,7
8.09,1663327.69876187,26,3,3,3,0,-620.0,6.83,-1.65,1.02,0.56,0.49,-5.36,27.4375,-18.0,508.5625,0.04888916015625,0.7791748046875,0.3792724609375,0.0291,13.375,11.5,-45.125,6.27,-2.14,stop,7
8.11,1663327.69876187,26,3,3,3,0,-639.0,7.17,-2.12,0.83,0.9,0.02,-4.71,23.4375,-15.75,507.5625,0.04571533203125,0.779296875,0.38067626953125,0.0291,13.375,11.5,-45.1875,6.26,-2.14,stop,7
8.12,1663327.744423858,26,3,3,3,0,-694.0,7.4,-2.84,0.3,1.14,-0.7,-4.07,17.1875,-13.8125,506.9375,0.04315185546875,0.77923583984375,0.38189697265625,0.0278,13.375,11.0625,-45.25,6.25,-2.13,stop,7
8.13,1663327.744423858,26,3,3,3,0,-712.0,7.46,-3.06,0.12,1.21,-0.93,-3.21,8.8125,-11.4375,506.8125,0.04119873046875,0.77899169921875,0.3828125,0.0278,13.375,11.0625,-45.3125,6.24,-2.12,stop,7
8.14,1663327.760151356,26,3,3,3,0,-719.0,7.59,-3.17,0.06,1.35,-1.06,-2.29,0.125,-9.25,507.1875,0.03997802734375,0.778564453125,0.38336181640625,0.0278,13.375,11.0625,-45.375,6.24,-2.11,stop,7
8.15,1663327.760151356,26,3,3,3,0,-716.0,7.61,-3.18,0.1,1.37,-1.09,-1.5,-8.25,-7.1875,508.0,0.03936767578125,0.77789306640625,0.3836669921875,0.0278,13.375,11.0625,-45.4375,6.23,-2.09,stop,7
8.15,1663327.765451201,26,3,3,3,0,-727.0,7.17,-2.99,0.0,0.94,-0.92,-0.77,-16.6875,-5.375,509.375,0.03936767578125,0.77703857421875,0.38372802734375,0.0278,13.375,11.0625,-45.5,6.23,-2.06,stop,7
8.16,1663327.765451201,26,3,3,3,0,-718.0,7.04,-2.75,0.11,0.81,-0.71,-0.1,-24.0,-3.875,511.125,0.03985595703125,0.7760009765625,0.38348388671875,0.0282,14.5,11.875,-45.5625,6.22,-2.03,stop,7
8.18,1663327.819834217,26,3,3,3,0,-723.0,7.02,-2.57,0.07,0.79,-0.57,0.43,-27.25,-2.4375,513.125,0.04071044921875,0.77490234375,0.38311767578125,0.0282,14.5,11.875,-45.625,6.22,-2.0,stop,7
8.19,1663327.819834217,26,3,3,3,0,-740.0,7.01,-2.38,-0.08,0.79,-0.41,1.01,-28.125,-1.0,515.0625,0.0418701171875,0.77392578125,0.382568359375,0.0282,14.5,11.875,-45.75,6.21,-1.97,stop,7
8.2,1663327.827005889,26,3,3,3,0,-742.0,6.93,-2.44,-0.09,0.71,-0.49,1.53,-26.625,-0.5,516.8125,0.043212890625,0.7730712890625,0.3818359375,0.0282,14.5,11.875,-45.75,6.21,-1.95,stop,7
8.21,1663327.827005889,26,3,3,3,0,-745.0,6.83,-2.56,-0.12,0.62,-0.63,1.89,-23.8125,-0.25,518.4375,0.0445556640625,0.77239990234375,0.38092041015625,0.0282,14.5,11.875,-45.8125,6.21,-1.93,stop,7
8.22,1663327.879208973,26,3,3,3,0,-750.0,6.71,-2.66,-0.16,0.5,-0.74,2.08,-20.8125,0.0625,519.8125,0.04583740234375,0.77191162109375,0.37994384765625,0.0292,14.0625,12.5625,-45.875,6.2,-1.92,stop,7
8.23,1663327.879208973,26,3,3,3,0,-766.0,6.46,-2.77,-0.31,0.26,-0.86,2.27,-17.75,0.125,520.9375,0.04705810546875,0.7716064453125,0.37896728515625,0.0292,14.0625,12.5625,-45.875,6.2,-1.91,stop,7
8.23,1663327.885507232,26,3,3,3,0,-773.0,6.41,-2.77,-0.37,0.21,-0.85,2.66,-14.9375,0.125,521.875,0.04827880859375,0.771484375,0.37774658203125,0.0292,14.0625,12.5625,-45.9375,6.19,-1.91,stop,7
8.24,1663327.885507232,26,3,3,3,0,-766.0,6.35,-2.68,-0.3,0.15,-0.76,3.12,-12.3125,0.375,522.625,0.049560546875,0.7716064453125,0.37640380859375,0.0292,14.0625,12.5625,-45.9375,6.19,-1.91,stop,7
8.25,1663327.925011586,26,3,3,3,0,-759.0,6.27,-2.58,-0.23,0.08,-0.66,3.42,-9.9375,0.75,523.1875,0.0509033203125,0.7718505859375,0.37493896484375,0.0292,14.0625,12.5625,-46.0,6.18,-1.92,stop,7
8.27,1663327.925011586,26,3,3,3,0,-748.0,6.03,-2.34,-0.12,-0.14,-0.4,3.32,-8.0,1.375,523.5625,0.05218505859375,0.772216796875,0.37359619140625,0.0282,13.375,11.0625,-46.0,6.18,-1.94,stop,7
8.28,1663327.971489857,26,3,3,3,0,-749.0,5.93,-2.23,-0.13,-0.23,-0.27,2.92,-6.5625,1.875,523.875,0.0533447265625,0.7724609375,0.3724365234375,0.0282,13.375,11.0625,-46.0,6.17,-1.95,stop,7
8.29,1663327.971489857,26,3,3,3,0,-750.0,5.78,-2.27,-0.14,-0.39,-0.31,2.41,-6.1875,2.0,524.125,0.05438232421875,0.772705078125,0.3714599609375,0.0282,13.375,11.0625,-46.0,6.17,-1.96,stop,7
8.3,1663327.9773662,26,3,3,3,0,-739.0,5.68,-2.35,-0.03,-0.48,-0.38,2.2,-6.875,2.25,524.4375,0.055419921875,0.7728271484375,0.37060546875,0.0282,13.375,11.0625,-46.0,6.17,-1.96,stop,7
8.31,1663327.9773662,26,3,3,3,0,-712.0,5.69,-2.29,0.23,-0.48,-0.32,2.04,-6.9375,2.8125,524.75,0.056396484375,0.77294921875,0.36981201171875,0.0282,13.375,11.0625,-45.9375,6.17,-1.97,stop,7
8.31,1663327.982802316,26,3,3,3,0,-706.0,5.68,-2.21,0.29,-0.49,-0.23,1.71,-5.4375,3.6875,524.9375,0.05731201171875,0.77301025390625,0.3692626953125,0.03,13.375,9.5,-45.9375,6.17,-1.97,stop,7
8.32,1663327.982802316,26,3,3,3,0,-697.0,5.7,-2.22,0.37,-0.47,-0.23,1.32,-4.375,4.5,525.0625,0.05810546875,0.7730712890625,0.368896484375,0.03,13.375,9.5,-45.9375,6.17,-1.98,stop,7
8.33,1663327.988729847,26,3,3,3,0,-685.0,5.73,-2.31,0.49,-0.44,-0.33,0.86,-3.8125,5.0625,525.125,0.058837890625,0.7730712890625,0.36871337890625,0.03,13.375,9.5,-45.875,6.18,-1.98,stop,7
8.35,1663327.988729847,26,3,3,3,0,-688.0,5.72,-2.32,0.46,-0.46,-0.34,0.43,-3.9375,5.3125,525.1875,0.0594482421875,0.77294921875,0.36871337890625,0.03,13.375,9.5,-45.875,6.18,-1.98,stop,7
8.36,1663327.993912098,26,3,3,3,0,-690.0,5.7,-2.27,0.43,-0.48,-0.3,0.09,-4.5625,5.125,525.3125,0.05999755859375,0.77276611328125,0.368896484375,0.03,13.375,9.5,-45.875,6.19,-1.97,stop,7
8.37,1663327.993912098,26,3,3,3,0,-697.0,5.69,-2.23,0.36,-0.5,-0.26,-0.08,-5.25,4.375,525.5,0.06048583984375,0.77252197265625,0.36907958984375,0.0289,13.375,9.0625,-45.8125,6.2,-1.96,stop,7
8.38,1663327.999177683,26,3,3,3,0,-697.0,5.7,-2.12,0.35,-0.5,-0.15,-0.18,-6.125,3.5625,525.8125,0.06085205078125,0.77215576171875,0.3692626953125,0.0289,13.375,9.0625,-45.8125,6.2,-1.96,stop,7
8.39,1663327.999177683,26,3,3,3,0,-699.0,5.77,-2.09,0.37,-0.28,0.18,-0.36,-6.4375,2.625,518.4375,0.0576171875,0.78265380859375,0.3575439453125,0.0289,13.375,9.0625,-46.0,6.06,-2.27,stop,7
8.4,1663328.002110096,26,3,3,3,0,-700.0,5.89,-2.1,0.35,-0.17,0.15,-0.49,-6.375,2.0625,518.8125,0.057861328125,0.7822265625,0.3577880859375,0.0289,13.375,9.0625,-46.0,6.06,-2.26,stop,7
8.4,1663328.002110096,26,3,3,3,0,-703.0,6.05,-2.12,0.33,0.0,0.11,-0.54,-6.75,1.3125,519.25,0.0579833984375,0.7818603515625,0.35809326171875,0.0289,13.375,9.0625,-46.0,6.06,-2.24,stop,7
8.41,1663328.045459746,26,3,3,3,1,-710.0,6.3,-2.23,0.26,0.23,0.0,-0.51,-7.6875,0.9375,519.75,0.05816650390625,0.78143310546875,0.3582763671875,0.0289,13.6875,9.875,-46.0625,6.07,-2.23,stop,7
8.43,1663328.045459746,26,3,3,3,1,-714.0,6.36,-2.29,0.23,0.28,-0.07,-0.46,-8.0625,0.5625,520.3125,0.058349609375,0.78094482421875,0.35845947265625,0.0289,13.6875,9.875,-46.0625,6.07,-2.22,stop,7
8.44,1663328.074302886,26,3,3,3,1,-718.0,6.37,-2.33,0.18,0.29,-0.12,-0.38,-8.5,0.25,520.9375,0.05853271484375,0.780517578125,0.35858154296875,0.0289,13.6875,9.875,-46.0625,6.07,-2.2,stop,7
8.45,1663328.074302886,26,3,3,3,1,-725.0,6.32,-2.37,0.12,0.24,-0.18,-0.26,-8.875,-0.3125,521.5625,0.0587158203125,0.78009033203125,0.358642578125,0.0289,13.6875,9.875,-46.0625,6.07,-2.19,stop,7
8.46,1663328.080167469,26,3,3,3,1,-739.0,6.25,-2.37,0.0,0.18,-0.19,-0.11,-9.3125,-0.75,522.1875,0.0589599609375,0.7796630859375,0.358642578125,0.0289,13.6875,9.875,-46.125,6.07,-2.18,stop,7
8.47,1663328.080167469,26,3,3,3,1,-749.0,6.26,-2.32,-0.1,0.19,-0.15,0.15,-9.375,-0.9375,522.875,0.0592041015625,0.779296875,0.35845947265625,0.0295,13.0,9.5,-46.125,6.07,-2.17,stop,7
8.48,1663328.08531375,26,3,3,3,1,-753.0,6.34,-2.22,-0.14,0.27,-0.06,0.31,-9.3125,-1.0,523.5,0.05950927734375,0.7789306640625,0.35821533203125,0.0295,13.0,9.5,-46.1875,6.06,-2.16,stop,7
8.49,1663328.08531375,26,3,3,3,1,-761.0,6.35,-2.27,-0.21,0.28,-0.11,0.28,-7.8125,-1.125,524.0625,0.059814453125,0.77862548828125,0.3580322265625,0.0295,13.0,9.5,-46.1875,6.06,-2.15,stop,7
8.49,1663328.091384307,26,3,3,3,1,-764.0,6.34,-2.36,-0.23,0.27,-0.21,0.29,-6.75,-1.25,524.5625,0.05999755859375,0.7784423828125,0.3577880859375,0.0295,13.0,9.5,-46.25,6.06,-2.14,stop,7
8.51,1663328.091384307,26,3,3,3,1,-765.0,6.3,-2.34,-0.25,0.24,-0.2,0.49,-5.75,-1.375,525.0,0.06024169921875,0.77825927734375,0.35748291015625,0.0295,13.0,9.5,-46.25,6.06,-2.14,stop,7
8.52,1663328.103927357,26,3,3,3,1,-758.0,6.24,-2.26,-0.17,0.18,-0.11,0.69,-3.6875,-1.4375,525.25,0.0604248046875,0.77825927734375,0.35711669921875,0.0298,14.0625,9.0625,-46.25,6.05,-2.14,stop,7
8.53,1663328.103927357,26,3,3,3,1,-759.0,6.16,-2.01,-0.18,0.1,0.13,0.64,-1.8125,-2.0,525.4375,0.060546875,0.7783203125,0.35675048828125,0.0298,14.0625,9.0625,-46.25,6.05,-2.14,stop,7
8.54,1663328.133605336,26,3,3,3,1,-754.0,6.09,-1.97,-0.13,0.04,0.17,0.42,-0.6875,-2.625,525.5625,0.060546875,0.77838134765625,0.3564453125,0.0298,14.0625,9.0625,-46.3125,6.05,-2.14,stop,7
8.55,1663328.133605336,26,3,3,3,1,-752.0,6.01,-1.99,-0.1,-0.03,0.15,0.03,0.0,-3.0625,525.625,0.060302734375,0.77838134765625,0.3563232421875,0.0298,14.0625,9.0625,-46.3125,6.04,-2.14,stop,7
8.56,1663328.14959614,26,3,3,3,1,-752.0,5.96,-2.07,-0.1,-0.07,0.07,-0.35,1.0,-3.4375,525.6875,0.0599365234375,0.77838134765625,0.3563232421875,0.0298,14.0625,9.0625,-46.3125,6.04,-2.14,stop,7
8.57,1663328.14959614,26,3,3,3,1,-756.0,6.03,-2.21,-0.14,0.0,-0.06,-0.59,1.875,-3.0,525.625,0.05950927734375,0.77838134765625,0.3564453125,0.0295,14.0625,8.375,-46.375,6.04,-2.14,stop,7
8.58,1663328.178706207,26,3,3,3,1,-754.0,6.06,-2.25,-0.12,0.02,-0.11,-0.67,2.875,-2.8125,525.5625,0.05908203125,0.7784423828125,0.35662841796875,0.0295,14.0625,8.375,-46.375,6.03,-2.14,stop,7
8.59,1663328.178706207,26,3,3,3,1,-752.0,6.03,-2.26,-0.1,0.0,-0.12,-0.65,4.125,-2.875,525.375,0.05853271484375,0.77850341796875,0.35675048828125,0.0295,14.0625,8.375,-46.375,6.03,-2.14,stop,7
8.6,1663328.194519439,26,3,3,3,1,-749.0,5.99,-2.25,-0.06,-0.03,-0.1,-0.65,5.3125,-2.8125,525.125,0.0579833984375,0.77862548828125,0.35693359375,0.0295,14.0625,8.375,-46.375,6.03,-2.15,stop,7
8.61,1663328.194519439,26,3,3,3,1,-734.0,5.92,-2.17,0.07,-0.1,-0.02,-0.67,6.1875,-2.875,524.75,0.05743408203125,0.77880859375,0.35711669921875,0.0295,14.0625,8.375,-46.375,6.03,-2.15,stop,7
8.62,1663328.207884877,26,3,3,3,1,-727.0,5.87,-2.1,0.15,-0.15,0.05,-0.77,6.6875,-2.9375,524.4375,0.0567626953125,0.77899169921875,0.35736083984375,0.0295,13.6875,8.75,-46.375,6.02,-2.15,stop,7
8.63,1663328.207884877,26,3,3,3,1,-723.0,5.89,-2.02,0.19,-0.13,0.13,-0.95,7.375,-3.125,524.0,0.05609130859375,0.7791748046875,0.357666015625,0.0295,13.6875,8.75,-46.375,6.02,-2.16,stop,7
8.64,1663328.222549102,26,3,3,3,1,-718.0,5.9,-1.98,0.24,-0.12,0.17,-1.14,7.8125,-3.125,523.625,0.0552978515625,0.779296875,0.3580322265625,0.0295,13.6875,8.75,-46.375,6.02,-2.16,stop,7
8.65,1663328.222549102,26,3,3,3,1,-722.0,5.99,-1.93,0.19,-0.03,0.22,-1.32,8.4375,-3.25,523.125,0.054443359375,0.7794189453125,0.35845947265625,0.0295,13.6875,8.75,-46.375,6.02,-2.16,stop,7
8.66,1663328.259152455,26,3,3,3,1,-727.0,6.01,-1.92,0.15,0.0,0.24,-1.45,8.8125,-3.4375,522.6875,0.05352783203125,0.779541015625,0.3590087890625,0.0295,13.6875,8.75,-46.375,6.02,-2.16,stop,7
8.67,1663328.259152455,26,3,3,3,1,-728.0,6.04,-1.92,0.14,0.02,0.24,-1.54,9.125,-3.375,522.25,0.0526123046875,0.7796630859375,0.35955810546875,0.0291,13.6875,9.0625,-46.375,6.02,-2.16,stop,7
8.68,1663328.267789418,26,3,3,3,1,-739.0,6.14,-2.01,0.03,0.12,0.14,-1.6,8.9375,-3.625,521.75,0.0516357421875,0.77972412109375,0.36016845703125,0.0291,13.6875,9.0625,-46.375,6.02,-2.16,stop,7
8.69,1663328.267789418,26,3,3,3,1,-741.0,6.18,-2.02,0.01,0.16,0.13,-1.64,8.4375,-4.0625,521.375,0.0506591796875,0.77978515625,0.36077880859375,0.0291,13.6875,9.0625,-46.375,6.02,-2.16,stop,7
8.7,1663328.282565012,26,3,3,3,1,-743.0,6.19,-2.11,0.0,0.17,0.05,-1.63,8.0625,-4.3125,521.0,0.0496826171875,0.77978515625,0.36138916015625,0.0291,13.6875,9.0625,-46.375,6.02,-2.16,stop,7
8.71,1663328.282565012,26,3,3,3,1,-740.0,6.17,-2.12,0.02,0.15,0.04,-1.59,7.625,-4.4375,520.625,0.04876708984375,0.77984619140625,0.3619384765625,0.0291,13.6875,9.0625,-46.4375,6.02,-2.16,stop,7
8.72,1663328.315457712,26,3,3,3,0,-743.0,6.21,-2.15,0.0,0.19,0.01,-1.51,8.0625,-4.4375,520.25,0.04779052734375,0.7799072265625,0.3624267578125,0.0291,13.375,10.0,-46.4375,6.01,-2.16,stop,7
8.73,1663328.315457712,26,3,3,3,0,-737.0,6.24,-2.15,0.06,0.22,0.01,-1.39,8.0,-4.3125,519.8125,0.046875,0.77996826171875,0.3629150390625,0.0291,13.375,10.0,-46.4375,6.01,-2.16,stop,7
8.74,1663328.344866973,26,3,3,3,0,-734.0,6.26,-2.19,0.08,0.24,-0.02,-1.22,7.375,-3.8125,519.4375,0.04608154296875,0.78009033203125,0.36334228515625,0.0291,13.375,10.0,-46.4375,6.01,-2.17,stop,7
8.75,1663328.344866973,26,3,3,3,0,-733.0,6.28,-2.19,0.09,0.26,-0.02,-1.08,6.9375,-3.625,519.0625,0.04541015625,0.78021240234375,0.36370849609375,0.0291,13.375,10.0,-46.4375,6.01,-2.17,stop,7
8.76,1663328.351993194,26,3,3,3,0,-727.0,6.27,-2.23,0.15,0.26,-0.05,-0.93,6.375,-3.125,518.6875,0.0447998046875,0.78033447265625,0.36407470703125,0.0291,13.375,10.0,-46.4375,6.01,-2.17,stop,7
8.77,1663328.351993194,26,3,3,3,0,-723.0,6.25,-2.2,0.19,0.23,-0.02,-0.78,6.0625,-2.6875,518.25,0.0443115234375,0.78045654296875,0.3643798828125,0.0295,14.0625,10.25,-46.4375,6.01,-2.17,stop,7
8.78,1663328.420558868,26,3,3,3,0,-722.0,6.21,-2.13,0.2,0.19,0.04,-0.7,6.375,-2.0625,517.8125,0.0438232421875,0.78057861328125,0.36474609375,0.0295,14.0625,10.25,-46.375,6.01,-2.18,stop,7
8.79,1663328.420558868,26,3,3,3,0,-718.0,6.15,-2.06,0.24,0.13,0.11,-0.72,7.0,-1.375,517.375,0.04339599609375,0.78076171875,0.3651123046875,0.0295,14.0625,10.25,-46.375,6.02,-2.18,stop,7
8.8,1663328.426178659,26,3,3,3,0,-720.0,6.03,-1.91,0.21,0.01,0.27,-0.75,7.0625,-0.75,516.875,0.04296875,0.7808837890625,0.365478515625,0.0295,14.0625,10.25,-46.375,6.02,-2.18,stop,7
8.81,1663328.426178659,26,3,3,3,0,-724.0,5.97,-1.92,0.17,-0.05,0.26,-0.77,6.125,-0.1875,516.5,0.0426025390625,0.78094482421875,0.36590576171875,0.0295,14.0625,10.25,-46.375,6.02,-2.19,stop,7
8.82,1663328.431311065,26,3,3,3,0,-725.0,5.93,-1.99,0.16,-0.08,0.19,-0.84,4.3125,0.3125,516.25,0.042236328125,0.78094482421875,0.3663330078125,0.0291,13.6875,10.6875,-46.3125,6.02,-2.18,stop,7
8.83,1663328.431311065,26,3,3,3,0,-728.0,5.88,-2.1,0.13,-0.14,0.08,-0.85,2.4375,0.6875,516.0625,0.0419921875,0.7808837890625,0.36669921875,0.0291,13.6875,10.6875,-46.3125,6.03,-2.18,stop,7
8.84,1663328.4368155,26,3,3,3,0,-730.0,5.89,-2.14,0.11,-0.14,0.03,-0.85,1.375,1.0,515.9375,0.04180908203125,0.78076171875,0.36712646484375,0.0291,13.6875,10.6875,-46.3125,6.03,-2.18,stop,7
8.85,1663328.4368155,26,3,3,3,0,-732.0,5.92,-2.16,0.08,-0.11,0.01,-0.87,1.625,1.0,515.8125,0.04156494140625,0.7806396484375,0.3675537109375,0.0291,13.6875,10.6875,-46.3125,6.03,-2.18,stop,7
8.86,1663328.462635284,26,3,3,3,0,-730.0,5.93,-2.14,0.1,-0.1,0.02,-0.89,2.625,1.0,515.625,0.04132080078125,0.78057861328125,0.3680419921875,0.0291,13.6875,10.6875,-46.3125,6.04,-2.17,stop,7
8.87,1663328.462635284,26,3,3,3,0,-725.0,6.0,-2.09,0.15,-0.04,0.08,-0.93,3.875,0.875,515.3125,0.041015625,0.78057861328125,0.36846923828125,0.0291,14.0625,10.25,-46.25,6.04,-2.17,stop,7
8.88,1663328.47955191,26,3,3,3,0,-728.0,6.01,-2.13,0.12,-0.03,0.03,-0.97,4.875,0.6875,514.9375,0.0406494140625,0.78057861328125,0.36895751953125,0.0291,14.0625,10.25,-46.25,6.04,-2.17,stop,7
8.89,1663328.47955191,26,3,3,3,0,-729.0,6.05,-2.15,0.1,0.0,0.02,-0.92,5.125,0.5625,514.625,0.040283203125,0.7806396484375,0.369384765625,0.0291,14.0625,10.25,-46.25,6.05,-2.17,stop,7
8.9,1663328.554211252,26,3,3,3,0,-733.0,6.05,-2.12,0.06,0.0,0.05,-0.81,4.5625,0.4375,514.3125,0.0399169921875,0.78070068359375,0.3697509765625,0.0291,14.0625,10.25,-46.25,6.05,-2.17,stop,7
8.91,1663328.554211252,26,3,3,3,0,-735.0,6.06,-2.17,0.04,0.0,0.0,-0.7,3.8125,0.125,514.0625,0.03961181640625,0.78070068359375,0.37005615234375,0.0291,14.0625,10.25,-46.1875,6.05,-2.17,stop,7
8.92,1663328.560216745,26,3,3,3,0,-737.0,6.07,-2.16,0.02,0.01,0.01,-0.58,3.0,0.0,513.8125,0.039306640625,0.78070068359375,0.37030029296875,0.0285,13.375,10.25,-46.1875,6.05,-2.17,stop,7
8.93,1663328.560216745,26,3,3,3,0,-734.0,6.12,-2.18,0.05,0.06,0.0,-0.45,2.625,0.0,513.625,0.03912353515625,0.78076171875,0.37054443359375,0.0285,13.375,10.25,-46.1875,6.05,-2.17,stop,7
8.94,1663328.567483917,26,3,3,3,0,-731.0,6.13,-2.17,0.08,0.07,0.0,-0.37,2.25,0.0,513.5,0.0389404296875,0.78076171875,0.3707275390625,0.0285,13.375,10.25,-46.1875,6.06,-2.17,stop,7
8.95,1663328.567483917,26,3,3,3,0,-727.0,6.24,-2.19,0.12,0.17,-0.01,-0.35,1.9375,0.0,513.3125,0.038818359375,0.78076171875,0.37091064453125,0.0285,13.375,10.25,-46.1875,6.06,-2.17,stop,7
8.96,1663328.573038848,26,3,3,3,0,-729.0,6.24,-2.12,0.1,0.18,0.05,-0.49,2.25,0.0,513.1875,0.03863525390625,0.78076171875,0.37115478515625,0.0285,13.375,10.25,-46.1875,6.06,-2.17,stop,7
8.97,1663328.573038848,26,3,3,3,0,-732.0,6.2,-2.17,0.06,0.13,0.0,-0.65,2.4375,0.0,513.0,0.0384521484375,0.78076171875,0.3714599609375,0.0291,13.0,10.25,-46.1875,6.06,-2.17,stop,7
8.98,1663328.578363677,26,3,3,3,0,-730.0,6.19,-2.34,0.08,0.12,-0.16,-0.53,1.1875,0.0625,512.875,0.03826904296875,0.78070068359375,0.3717041015625,0.0291,13.0,10.25,-46.1875,6.06,-2.17,stop,7
8.99,1663328.578363677,26,3,3,3,0,-732.0,6.06,-2.44,0.06,0.0,-0.26,-0.23,0.875,0.0625,512.75,0.0382080078125,0.78070068359375,0.371826171875,0.0291,13.0,10.25,-46.125,6.06,-2.17,stop,7
9.0,1663328.598466257,26,3,3,3,0,-733.0,6.08,-2.24,0.05,0.01,-0.07,0.05,1.0625,0.0,512.6875,0.0382080078125,0.78076171875,0.371826171875,0.0291,13.0,10.25,-46.125,6.06,-2.17,stop,7
9.01,1663328.598466257,26,3,3,3,0,-736.0,6.12,-2.15,0.02,0.05,0.02,0.11,1.1875,0.0625,512.5625,0.0382080078125,0.7808837890625,0.37176513671875,0.0291,13.0,10.25,-46.125,6.06,-2.18,stop,7
9.02,1663328.628334991,26,3,3,3,0,-730.0,6.18,-2.27,0.08,0.11,-0.09,0.06,0.375,0.0,512.5625,0.0382080078125,0.7808837890625,0.371826171875,0.0288,14.0625,12.5625,-46.125,6.06,-2.18,stop,7
9.03,1663328.628334991,26,3,3,3,0,-730.0,6.24,-2.4,0.07,0.17,-0.22,-0.05,-0.25,0.125,512.5,0.0382080078125,0.7808837890625,0.371826171875,0.0288,14.0625,12.5625,-46.125,6.06,-2.18,stop,7
9.04,1663328.630966664,26,3,3,3,0,-730.0,6.27,-2.45,0.07,0.2,-0.26,-0.07,0.25,0.1875,512.4375,0.03826904296875,0.78094482421875,0.371826171875,0.0288,14.0625,12.5625,-46.125,6.07,-2.18,stop,7
9.05,1663328.630966664,26,3,3,3,0,-733.0,6.26,-2.37,0.05,0.19,-0.19,0.0,1.25,0.25,512.25,0.03826904296875,0.78106689453125,0.371826171875,0.0288,14.0625,12.5625,-46.125,6.07,-2.18,stop,7
9.06,1663328.658260243,26,3,3,3,0,-731.0,6.19,-2.27,0.06,0.12,-0.08,0.0,1.875,0.4375,512.0625,0.03826904296875,0.7811279296875,0.37188720703125,0.0288,14.0625,12.5625,-46.125,6.07,-2.19,stop,7
9.07,1663328.658260243,26,3,3,3,0,-732.0,6.16,-2.24,0.05,0.09,-0.05,-0.04,1.5625,0.3125,511.875,0.0382080078125,0.78125,0.37188720703125,0.0288,13.0,11.875,-46.125,6.07,-2.19,stop,7
9.08,1663328.704183909,26,3,3,3,0,-731.0,6.12,-2.25,0.06,0.04,-0.06,-0.1,1.3125,0.5,511.8125,0.03814697265625,0.78131103515625,0.3719482421875,0.0288,13.0,11.875,-46.125,6.07,-2.19,stop,7
9.09,1663328.704183909,26,3,3,3,0,-727.0,6.11,-2.29,0.1,0.03,-0.09,-0.1,0.8125,0.5,511.6875,0.03814697265625,0.78131103515625,0.37200927734375,0.0288,13.0,11.875,-46.0625,6.07,-2.19,stop,7
9.1,1663328.710013783,26,3,3,3,0,-720.0,6.15,-2.25,0.16,0.07,-0.06,-0.09,0.375,0.5,511.6875,0.03814697265625,0.78131103515625,0.3720703125,0.0288,13.0,11.875,-46.0625,6.07,-2.19,stop,7
9.11,1663328.710013783,26,3,3,3,0,-720.0,6.18,-2.26,0.17,0.11,-0.06,-0.07,0.5625,0.5625,511.5625,0.0382080078125,0.7813720703125,0.3720703125,0.0288,13.0,11.875,-46.0625,6.07,-2.19,stop,7
9.12,1663328.715599151,26,3,3,3,0,-720.0,6.19,-2.23,0.17,0.11,-0.03,-0.1,0.75,0.5625,511.4375,0.0382080078125,0.7813720703125,0.3721923828125,0.0291,13.375,11.0625,-46.0625,6.07,-2.19,stop,7
9.13,1663328.715599151,26,3,3,3,0,-718.0,6.18,-2.18,0.18,0.1,0.01,-0.1,0.75,0.375,511.3125,0.0382080078125,0.78143310546875,0.372314453125,0.0291,13.375,11.0625,-46.0625,6.07,-2.19,stop,7
9.14,1663328.748293568,26,3,3,3,0,-717.0,6.11,-2.13,0.19,0.03,0.05,-0.13,0.375,0.4375,511.3125,0.0382080078125,0.7813720703125,0.37237548828125,0.0291,13.375,11.0625,-46.0625,6.08,-2.19,stop,7
9.15,1663328.748293568,26,3,3,3,0,-719.0,6.11,-2.12,0.17,0.02,0.07,-0.23,0.0,0.3125,511.3125,0.0382080078125,0.78131103515625,0.37249755859375,0.0291,13.375,11.0625,-46.0625,6.08,-2.19,stop,7
9.16,1663328.823888499,26,3,3,3,0,-717.0,6.11,-2.12,0.19,0.03,0.07,-0.31,-0.4375,0.1875,511.25,0.03814697265625,0.78125,0.3726806640625,0.0291,13.375,11.0625,-46.0625,6.08,-2.19,stop,7
9.17,1663328.823888499,26,3,3,3,0,-720.0,6.09,-2.11,0.16,0.01,0.07,-0.35,-0.875,0.3125,511.3125,0.0380859375,0.7811279296875,0.37286376953125,0.0288,12.5625,11.5,-46.0625,6.08,-2.18,stop,7
9.18,1663328.830000844,26,3,3,3,0,-719.0,6.09,-2.15,0.17,0.0,0.03,-0.36,-1.0625,0.1875,511.375,0.03802490234375,0.781005859375,0.373046875,0.0288,12.5625,11.5,-46.0625,6.08,-2.18,stop,7
9.19,1663328.830000844,26,3,3,3,0,-721.0,6.08,-2.12,0.15,0.0,0.05,-0.39,-1.3125,0.25,511.5,0.03802490234375,0.7808837890625,0.37322998046875,0.0288,12.5625,11.5,-46.0625,6.08,-2.18,stop,7
9.2,1663328.83532962,26,3,3,3,0,-722.0,6.11,-2.1,0.14,0.02,0.07,-0.39,-1.25,0.125,511.5625,0.0379638671875,0.78076171875,0.37335205078125,0.0288,12.5625,11.5,-46.0625,6.08,-2.17,stop,7
9.21,1663328.83532962,26,3,3,3,0,-720.0,6.11,-2.04,0.16,0.02,0.12,-0.42,-1.0625,0.1875,511.625,0.03790283203125,0.7806396484375,0.37359619140625,0.0288,12.5625,11.5,-46.0625,6.09,-2.17,stop,7
9.22,1663328.840567087,26,3,3,3,0,-718.0,6.08,-1.97,0.18,0.0,0.19,-0.49,-0.9375,0.25,511.75,0.03778076171875,0.78045654296875,0.37384033203125,0.0291,13.375,11.5,-46.0625,6.09,-2.16,stop,7
9.23,1663328.840567087,26,3,3,3,0,-718.0,6.08,-1.99,0.19,-0.01,0.17,-0.61,-0.8125,0.0,511.8125,0.03765869140625,0.7802734375,0.37408447265625,0.0291,13.375,11.5,-46.0625,6.09,-2.16,stop,7
9.24,1663328.84576415,26,3,3,3,0,-719.0,6.08,-2.05,0.17,-0.01,0.1,-0.72,-1.4375,0.0,511.875,0.03753662109375,0.780029296875,0.37445068359375,0.0291,13.375,11.5,-46.0625,6.09,-2.15,stop,7
9.25,1663328.84576415,26,3,3,3,0,-722.0,6.08,-2.11,0.14,-0.01,0.03,-0.87,-2.0625,0.125,512.0625,0.03741455078125,0.77978515625,0.37481689453125,0.0291,13.375,11.5,-46.0625,6.09,-2.14,stop,7
9.26,1663328.868268951,26,3,3,3,0,-724.0,6.1,-2.05,0.13,0.0,0.07,-0.95,-1.8125,0.25,512.1875,0.0372314453125,0.77947998046875,0.375244140625,0.0291,13.375,11.5,-46.0625,6.1,-2.13,stop,7
9.27,1663328.868268951,26,3,3,3,0,-722.0,6.1,-2.0,0.15,0.0,0.12,-0.98,-1.8125,0.375,512.375,0.0369873046875,0.77923583984375,0.37567138671875,0.0295,13.375,11.875,-46.0625,6.1,-2.12,stop,7
9.28,1663328.883480906,26,3,3,3,0,-721.0,6.12,-1.96,0.16,0.01,0.15,-0.96,-1.6875,0.1875,512.5,0.03680419921875,0.7789306640625,0.3760986328125,0.0295,13.375,11.875,-46.0625,6.1,-2.11,stop,7
9.29,1663328.883480906,26,3,3,3,0,-720.0,6.14,-2.03,0.16,0.03,0.07,-0.98,-2.375,0.1875,512.6875,0.03662109375,0.77862548828125,0.37652587890625,0.0295,13.375,11.875,-46.0625,6.1,-2.11,stop,7
9.3,1663328.889286366,26,3,3,3,0,-720.0,6.13,-2.05,0.17,0.01,0.04,-0.99,-3.0625,0.5,512.875,0.0364990234375,0.77825927734375,0.376953125,0.0295,13.375,11.875,-46.0625,6.11,-2.09,stop,7
9.31,1663328.889286366,26,3,3,3,0,-721.0,6.15,-2.06,0.16,0.04,0.02,-0.98,-3.5625,0.25,513.125,0.036376953125,0.77789306640625,0.37738037109375,0.0295,13.375,11.875,-46.0625,6.11,-2.08,stop,7
9.32,1663328.914439117,26,3,3,3,0,-723.0,6.21,-2.03,0.13,0.09,0.03,-0.94,-3.25,0.375,513.375,0.0362548828125,0.777587890625,0.3778076171875,0.0295,13.0,12.25,-46.0625,6.11,-2.07,stop,7
9.33,1663328.914439117,26,3,3,3,0,-727.0,6.32,-1.99,0.1,0.2,0.07,-0.9,-2.625,0.3125,513.5625,0.0361328125,0.77728271484375,0.37823486328125,0.0295,13.0,12.25,-46.0625,6.12,-2.06,stop,7
9.34,1663328.927840281,26,3,3,3,0,-730.0,6.35,-1.98,0.07,0.22,0.07,-0.91,-2.125,0.5625,513.6875,0.0360107421875,0.7769775390625,0.37872314453125,0.0295,13.0,12.25,-46.0625,6.12,-2.05,stop,7
9.35,1663328.927840281,26,3,3,3,0,-734.0,6.37,-1.97,0.03,0.24,0.07,-0.95,-2.0,0.6875,513.8125,0.03594970703125,0.77667236328125,0.379150390625,0.0295,13.0,12.25,-46.0625,6.12,-2.04,stop,7
9.36,1663328.958017364,26,3,3,3,0,-745.0,6.37,-1.99,-0.07,0.24,0.04,-0.93,-2.25,0.75,513.9375,0.03582763671875,0.7763671875,0.379638671875,0.0295,13.0,12.25,-46.0625,6.13,-2.03,stop,7
9.37,1663328.958017364,26,3,3,3,0,-744.0,6.37,-2.02,-0.06,0.24,0.0,-0.87,-2.3125,0.6875,514.0625,0.0357666015625,0.77606201171875,0.38006591796875,0.0285,13.375,12.25,-46.0625,6.13,-2.03,stop,7
9.38,1663328.972805531,26,3,3,3,0,-745.0,6.34,-2.04,-0.07,0.2,-0.02,-0.83,-2.5625,0.8125,514.1875,0.03570556640625,0.7757568359375,0.3804931640625,0.0285,13.375,12.25,-46.0625,6.14,-2.02,stop,7
9.39,1663328.972805531,26,3,3,3,0,-741.0,6.29,-2.06,-0.04,0.15,-0.05,-0.8,-2.75,0.5625,514.375,0.03564453125,0.77545166015625,0.380859375,0.0285,13.375,12.25,-46.0625,6.14,-2.01,stop,7
9.4,1663329.019431549,26,3,3,3,0,-733.0,6.26,-2.03,0.03,0.12,-0.03,-0.74,-2.875,0.5,514.5625,0.0355224609375,0.77520751953125,0.38116455078125,0.0285,13.375,12.25,-46.0625,6.14,-2.0,stop,7
9.41,1663329.019431549,26,3,3,3,0,-730.0,6.23,-1.97,0.07,0.08,0.02,-0.72,-2.8125,0.5,514.8125,0.03546142578125,0.77490234375,0.3814697265625,0.0285,13.375,12.25,-46.0625,6.14,-1.99,stop,7
9.42,1663329.024894032,26,3,3,3,0,-728.0,6.2,-1.93,0.09,0.05,0.04,-0.7,-2.6875,0.375,515.0,0.03533935546875,0.774658203125,0.38177490234375,0.0288,13.6875,13.0,-46.0625,6.14,-1.98,stop,7
9.43,1663329.024894032,26,3,3,3,0,-724.0,6.2,-1.97,0.12,0.05,0.0,-0.7,-2.9375,0.375,515.1875,0.0352783203125,0.77435302734375,0.382080078125,0.0288,13.6875,13.0,-46.0625,6.15,-1.97,stop,7
9.44,1663329.079652293,26,3,3,3,0,-720.0,6.27,-1.84,0.17,0.12,0.12,-0.84,-2.625,0.375,515.375,0.03515625,0.7740478515625,0.38250732421875,0.0288,13.6875,13.0,-46.0625,6.15,-1.96,stop,7
9.45,1663329.079652293,26,3,3,3,0,-717.0,6.24,-1.84,0.2,0.08,0.11,-1.03,-1.5625,0.4375,515.5,0.03497314453125,0.77374267578125,0.3829345703125,0.0288,13.6875,13.0,-46.0625,6.15,-1.95,stop,7
9.46,1663329.084696319,26,3,3,3,0,-711.0,6.22,-1.91,0.25,0.06,0.03,-0.99,-2.375,0.5,515.625,0.03485107421875,0.7734375,0.3834228515625,0.0288,13.6875,13.0,-46.0625,6.16,-1.95,stop,7
9.47,1663329.084696319,26,3,3,3,0,-714.0,6.18,-2.03,0.23,0.01,-0.09,-0.76,-4.0,0.8125,515.875,0.03485107421875,0.77313232421875,0.3837890625,0.0295,13.375,12.5625,-46.0625,6.16,-1.94,stop,7
9.5,1663329.093984039,26,3,3,3,0,-712.0,6.2,-1.61,0.24,0.03,0.29,-0.64,-3.375,0.4375,516.625,0.03497314453125,0.77215576171875,0.3846435546875,0.0295,13.375,12.5625,-46.0625,6.17,-1.91,stop,7
9.51,1663329.093984039,26,3,3,3,0,-717.0,6.34,-1.74,0.2,0.17,0.15,-0.78,-4.125,0.5625,516.875,0.03497314453125,0.77178955078125,0.38507080078125,0.0295,13.375,12.5625,-46.0625,6.17,-1.9,stop,7
9.52,1663329.12405309,26,3,3,3,0,-721.0,6.46,-1.78,0.15,0.28,0.1,-0.91,-4.4375,0.6875,517.1875,0.03497314453125,0.7713623046875,0.3856201171875,0.0291,13.375,12.25,-46.0625,6.18,-1.88,stop,7
9.53,1663329.12405309,26,3,3,3,0,-729.0,6.51,-1.83,0.08,0.33,0.04,-0.94,-4.25,0.9375,517.4375,0.0350341796875,0.77093505859375,0.3861083984375,0.0291,13.375,12.25,-46.0625,6.18,-1.87,stop,7
9.54,1663329.129590484,26,3,3,3,0,-734.0,6.53,-1.81,0.03,0.34,0.04,-0.83,-3.9375,1.0625,517.6875,0.0350341796875,0.77056884765625,0.38653564453125,0.0291,13.375,12.25,-46.0625,6.18,-1.86,stop,7
9.55,1663329.129590484,26,3,3,3,0,-741.0,6.52,-1.7,-0.03,0.33,0.14,-0.63,-3.1875,1.0625,517.875,0.0350341796875,0.77032470703125,0.3868408203125,0.0291,13.375,12.25,-46.0625,6.19,-1.85,stop,7
9.56,1663329.201567698,26,3,3,3,0,-738.0,6.5,-1.68,0.0,0.31,0.15,-0.44,-2.875,1.1875,518.0,0.03509521484375,0.77008056640625,0.3870849609375,0.0291,13.375,12.25,-46.0625,6.19,-1.84,stop,7
9.57,1663329.201567698,26,3,3,3,0,-736.0,6.48,-1.69,0.0,0.28,0.14,-0.3,-3.1875,1.4375,518.1875,0.0352783203125,0.76983642578125,0.3873291015625,0.0295,14.0625,12.5625,-46.0625,6.19,-1.84,stop,7
9.58,1663329.228876821,26,3,3,3,0,-733.0,6.51,-1.75,0.03,0.31,0.08,-0.2,-3.5625,1.625,518.375,0.0355224609375,0.76959228515625,0.3875732421875,0.0295,14.0625,12.5625,-46.0625,6.2,-1.83,stop,7
9.59,1663329.228876821,26,3,3,3,0,-730.0,6.52,-1.77,0.06,0.32,0.05,-0.08,-3.625,1.625,518.5625,0.03582763671875,0.7694091796875,0.3876953125,0.0295,14.0625,12.5625,-46.0,6.2,-1.82,stop,7
9.6,1663329.243842478,26,3,3,3,0,-728.0,6.49,-1.77,0.08,0.28,0.04,0.06,-3.25,1.5625,518.6875,0.0361328125,0.76922607421875,0.38787841796875,0.0295,14.0625,12.5625,-46.0,6.21,-1.82,stop,7
9.61,1663329.243842478,26,3,3,3,0,-728.0,6.46,-1.7,0.07,0.25,0.11,0.25,-2.9375,1.625,518.8125,0.0364990234375,0.76910400390625,0.387939453125,0.0295,14.0625,12.5625,-46.0,6.21,-1.82,stop,7
9.62,1663329.24919164,26,3,3,3,1,-727.0,6.43,-1.67,0.09,0.21,0.14,0.34,-3.0,1.6875,518.9375,0.036865234375,0.76898193359375,0.387939453125,0.0288,14.0625,12.25,-46.0,6.21,-1.81,stop,7
9.63,1663329.24919164,26,3,3,3,1,-723.0,6.37,-1.68,0.12,0.15,0.13,0.37,-3.5,1.8125,519.0625,0.0372314453125,0.76885986328125,0.387939453125,0.0288,14.0625,12.25,-46.0,6.22,-1.81,stop,7
9.64,1663329.275371205,26,3,3,3,1,-720.0,6.32,-1.69,0.15,0.1,0.11,0.41,-3.8125,1.8125,519.25,0.03765869140625,0.76873779296875,0.38787841796875,0.0288,14.0625,12.25,-45.9375,6.22,-1.81,stop,7
9.65,1663329.275371205,26,3,3,3,1,-720.0,6.31,-1.72,0.15,0.08,0.08,0.5,-3.4375,1.75,519.4375,0.0380859375,0.7686767578125,0.38775634765625,0.0288,14.0625,12.25,-45.9375,6.22,-1.81,stop,7
9.66,1663329.280890574,26,3,3,3,1,-719.0,6.3,-1.7,0.15,0.08,0.1,0.55,-3.375,1.8125,519.5625,0.03851318359375,0.76861572265625,0.3876953125,0.0288,14.0625,12.25,-45.9375,6.22,-1.8,stop,7
9.67,1663329.280890574,26,3,3,3,1,-724.0,6.25,-1.7,0.1,0.02,0.1,0.58,-2.9375,1.8125,519.6875,0.03887939453125,0.76861572265625,0.38751220703125,0.0285,13.0,11.875,-45.9375,6.22,-1.8,stop,7
9.68,1663329.28608666,26,3,3,3,1,-728.0,6.26,-1.69,0.07,0.03,0.11,0.53,-2.625,1.875,519.8125,0.039306640625,0.7685546875,0.38739013671875,0.0285,13.0,11.875,-45.9375,6.23,-1.8,stop,7
9.69,1663329.28608666,26,3,3,3,1,-730.0,6.25,-1.7,0.04,0.02,0.1,0.51,-2.4375,1.75,519.875,0.0396728515625,0.7685546875,0.38726806640625,0.0285,13.0,11.875,-45.9375,6.23,-1.8,stop,7
9.7,1663329.302736562,26,3,3,3,1,-730.0,6.25,-1.71,0.05,0.01,0.09,0.37,-2.3125,1.75,520.0,0.03997802734375,0.76849365234375,0.38720703125,0.0285,13.0,11.875,-45.9375,6.23,-1.8,stop,7
9.71,1663329.302736562,26,3,3,3,1,-729.0,6.25,-1.7,0.05,0.01,0.1,0.29,-2.0,1.8125,520.0625,0.04022216796875,0.76849365234375,0.38720703125,0.0285,13.0,11.875,-45.875,6.23,-1.8,stop,7
9.72,1663329.308206817,26,3,3,3,1,-729.0,6.23,-1.71,0.05,0.0,0.09,0.21,-2.125,1.5625,520.125,0.04046630859375,0.76837158203125,0.38720703125,0.0291,13.0,11.5,-45.875,6.23,-1.8,stop,7
9.73,1663329.308206817,26,3,3,3,1,-726.0,6.25,-1.69,0.08,0.0,0.1,0.15,-2.5625,1.625,520.25,0.040771484375,0.768310546875,0.38720703125,0.0291,13.0,11.5,-45.875,6.24,-1.8,stop,7
9.74,1663329.348854604,26,3,3,3,1,-725.0,6.25,-1.7,0.08,0.0,0.09,0.09,-2.0625,1.5,520.375,0.04095458984375,0.7681884765625,0.38720703125,0.0291,13.0,11.5,-45.875,6.24,-1.8,stop,7
9.75,1663329.348854604,26,3,3,3,1,-727.0,6.27,-1.68,0.07,0.03,0.11,0.02,-1.4375,1.5,520.375,0.0411376953125,0.76812744140625,0.3873291015625,0.0291,13.0,11.5,-45.875,6.24,-1.79,stop,7
9.76,1663329.364149485,26,3,3,3,1,-726.0,6.33,-1.65,0.07,0.08,0.14,0.07,-1.125,1.375,520.4375,0.041259765625,0.76806640625,0.38739013671875,0.0291,13.0,11.5,-45.875,6.24,-1.79,stop,7
9.77,1663329.364149485,26,3,3,3,1,-729.0,6.34,-1.67,0.04,0.09,0.11,0.11,-1.0,1.375,520.4375,0.04144287109375,0.76800537109375,0.387451171875,0.0298,12.5625,12.5625,-45.875,6.24,-1.79,stop,7
9.78,1663329.369678456,26,3,3,3,1,-731.0,6.41,-1.69,0.02,0.16,0.09,0.15,-1.0,1.25,520.5,0.0416259765625,0.7679443359375,0.387451171875,0.0298,12.5625,12.5625,-45.8125,6.25,-1.79,stop,7
9.79,1663329.369678456,26,3,3,3,1,-733.0,6.45,-1.73,0.0,0.19,0.06,0.19,-1.0,1.375,520.5,0.04180908203125,0.7679443359375,0.387451171875,0.0298,12.5625,12.5625,-45.8125,6.25,-1.79,stop,7
9.8,1663329.409375356,26,3,3,3,1,-734.0,6.45,-1.75,-0.01,0.19,0.04,0.22,-1.1875,1.375,520.5,0.04205322265625,0.7679443359375,0.387451171875,0.0298,12.5625,12.5625,-45.8125,6.25,-1.79,stop,7
9.81,1663329.409375356,26,3,3,3,1,-736.0,6.47,-1.74,-0.02,0.21,0.04,0.26,-1.0625,1.3125,520.5625,0.04229736328125,0.76788330078125,0.387451171875,0.0298,12.5625,12.5625,-45.8125,6.25,-1.79,stop,7
9.82,1663329.437697581,26,3,3,3,1,-733.0,6.46,-1.69,0.0,0.2,0.09,0.26,-0.6875,1.4375,520.5,0.04248046875,0.76788330078125,0.387451171875,0.0281,12.5625,11.875,-45.8125,6.25,-1.79,stop,7
9.83,1663329.437697581,26,3,3,3,1,-731.0,6.47,-1.7,0.01,0.2,0.08,0.21,-0.25,1.375,520.5,0.04266357421875,0.7679443359375,0.387451171875,0.0281,12.5625,11.875,-45.8125,6.26,-1.79,stop,7
9.84,1663329.45235143,26,3,3,3,1,-728.0,6.4,-1.7,0.04,0.14,0.08,0.17,0.0,1.125,520.4375,0.0428466796875,0.7679443359375,0.387451171875,0.0281,12.5625,11.875,-45.75,6.26,-1.79,stop,7
9.85,1663329.45235143,26,3,3,3,1,-730.0,6.34,-1.67,0.02,0.08,0.11,0.18,0.0,1.0625,520.375,0.04296875,0.7679443359375,0.387451171875,0.0281,12.5625,11.875,-45.75,6.26,-1.79,stop,7
9.86,1663329.5294617,26,3,3,3,1,-731.0,6.34,-1.66,0.01,0.07,0.13,0.17,0.0625,0.9375,520.375,0.0430908203125,0.7679443359375,0.387451171875,0.0281,12.5625,11.875,-45.75,6.26,-1.79,stop,7
9.87,1663329.5294617,26,3,3,3,1,-729.0,6.28,-1.69,0.02,0.02,0.1,0.14,0.3125,0.8125,520.3125,0.043212890625,0.76800537109375,0.387451171875,0.0285,12.5625,11.5,-45.75,6.26,-1.79,stop,7
9.88,1663329.534800283,26,3,3,3,1,-727.0,6.29,-1.68,0.04,0.02,0.1,0.1,0.625,0.8125,520.25,0.04327392578125,0.76800537109375,0.38751220703125,0.0285,12.5625,11.5,-45.75,6.26,-1.79,stop,7
9.89,1663329.534800283,26,3,3,3,1,-719.0,6.29,-1.72,0.12,0.02,0.07,0.06,0.8125,0.5625,520.1875,0.0433349609375,0.76800537109375,0.3875732421875,0.0285,12.5625,11.5,-45.75,6.26,-1.79,stop,7
9.9,1663329.540356883,26,3,3,3,1,-716.0,6.3,-1.68,0.15,0.03,0.11,0.01,1.125,0.625,520.0625,0.0433349609375,0.76806640625,0.38763427734375,0.0285,12.5625,11.5,-45.75,6.27,-1.8,stop,7
9.91,1663329.540356883,26,3,3,3,1,-718.0,6.28,-1.67,0.13,0.01,0.12,-0.03,1.0,0.75,520.0,0.04339599609375,0.76806640625,0.3876953125,0.0285,12.5625,11.5,-45.6875,6.27,-1.8,stop,7
9.92,1663329.545647288,26,3,3,3,1,-715.0,6.24,-1.63,0.16,-0.02,0.16,-0.08,1.0,0.75,519.875,0.04339599609375,0.76812744140625,0.38775634765625,0.0288,12.25,11.5,-45.6875,6.27,-1.8,stop,7
9.93,1663329.545647288,26,3,3,3,1,-716.0,6.26,-1.6,0.15,0.0,0.19,-0.07,0.6875,0.625,519.8125,0.04345703125,0.76812744140625,0.3878173828125,0.0288,12.25,11.5,-45.6875,6.27,-1.8,stop,7
9.94,1663329.551282786,26,3,3,3,1,-715.0,6.32,-1.57,0.16,0.05,0.22,-0.07,0.375,0.6875,519.8125,0.04351806640625,0.76806640625,0.387939453125,0.0288,12.25,11.5,-45.6875,6.27,-1.8,stop,7
9.95,1663329.551282786,26,3,3,3,1,-718.0,6.37,-1.48,0.12,0.09,0.31,-0.31,0.875,0.5,519.8125,0.04345703125,0.7679443359375,0.38812255859375,0.0288,12.25,11.5,-45.6875,6.27,-1.79,stop,7
9.96,1663329.558363474,26,3,3,3,1,-721.0,6.36,-1.51,0.09,0.08,0.28,-0.46,1.5,0.5625,519.75,0.0433349609375,0.76788330078125,0.38848876953125,0.0288,12.25,11.5,-45.6875,6.28,-1.79,stop,7
9.97,1663329.558363474,26,3,3,3,1,-724.0,6.37,-1.78,0.06,0.09,0.0,-0.41,0.9375,0.375,519.6875,0.043212890625,0.76776123046875,0.388671875,0.0285,13.6875,12.25,-45.6875,6.28,-1.79,stop,7
9.98,1663329.572579213,26,3,3,3,1,-723.0,6.43,-1.8,0.07,0.14,-0.01,-0.21,0.0625,0.5,519.6875,0.043212890625,0.7677001953125,0.3887939453125,0.0285,13.6875,12.25,-45.6875,6.28,-1.78,stop,7
9.99,1663329.572579213,26,3,3,3,1,-727.0,6.42,-1.68,0.04,0.13,0.1,-0.12,0.5625,0.4375,519.625,0.04315185546875,0.7677001953125,0.388916015625,0.0285,13.6875,12.25,-45.6875,6.28,-1.78,stop,7
10.0,1663329.619495758,26,3,3,3,1,-730.0,6.36,-1.54,0.01,0.07,0.24,-0.25,1.875,0.375,519.5,0.04302978515625,0.7677001953125,0.38909912109375,0.0285,13.6875,12.25,-45.6875,6.28,-1.78,stop,7
10.01,1663329.619495758,26,3,3,3,1,-727.0,6.37,-1.53,0.03,0.09,0.25,-0.37,2.125,0.3125,519.4375,0.04290771484375,0.76763916015625,0.3892822265625,0.0285,13.6875,12.25,-45.625,6.28,-1.78,stop,7
10.02,1663329.624974925,26,3,3,3,1,-726.0,6.44,-1.65,0.04,0.15,0.13,-0.48,1.6875,0.5,519.3125,0.042724609375,0.767578125,0.38958740234375,0.0285,13.0,12.25,-45.625,6.29,-1.78,stop,7
10.03,1663329.624974925,26,3,3,3,1,-730.0,6.49,-1.77,0.0,0.2,0.0,-0.58,1.6875,0.5,519.25,0.04254150390625,0.76751708984375,0.389892578125,0.0285,13.0,12.25,-45.625,6.29,-1.78,stop,7
10.04,1663329.843912262,26,3,3,3,1,-731.0,6.54,-1.81,0.0,0.24,-0.03,-0.55,2.25,0.5,519.0625,0.0423583984375,0.76751708984375,0.39013671875,0.0285,13.0,12.25,-45.625,6.29,-1.78,stop,7
10.05,1663329.843912262,26,3,3,3,1,-731.0,6.49,-1.75,-0.01,0.2,0.02,-0.41,2.6875,0.75,518.875,0.042236328125,0.76751708984375,0.390380859375,0.0285,13.0,12.25,-45.625,6.29,-1.78,stop,7
10.06,1663329.849868276,26,3,3,3,1,-729.0,6.45,-1.68,0.0,0.15,0.09,-0.31,3.1875,0.5,518.625,0.04205322265625,0.767578125,0.39056396484375,0.0285,13.0,12.25,-45.625,6.29,-1.78,stop,7
10.07,1663329.849868276,26,3,3,3,1,-725.0,6.43,-1.66,0.04,0.13,0.12,-0.26,3.0,0.625,518.4375,0.04193115234375,0.76763916015625,0.3907470703125,0.0291,13.0,13.0,-45.625,6.29,-1.78,stop,7
10.08,1663329.855227977,26,3,3,3,1,-715.0,6.39,-1.76,0.14,0.09,0.02,-0.28,2.625,0.5625,518.1875,0.04180908203125,0.76763916015625,0.39093017578125,0.0291,13.0,13.0,-45.5625,6.3,-1.78,stop,7
10.09,1663329.855227977,26,3,3,3,1,-711.0,6.38,-1.76,0.17,0.08,0.02,-0.31,2.625,0.8125,518.0,0.041748046875,0.7677001953125,0.39117431640625,0.0291,13.0,13.0,-45.5625,6.3,-1.78,stop,7
10.1,1663329.86042097,26,3,3,3,1,-709.0,6.33,-1.74,0.19,0.03,0.04,-0.3,2.5,0.8125,517.75,0.04168701171875,0.76776123046875,0.391357421875,0.0291,13.0,13.0,-45.5625,6.3,-1.78,stop,7
10.11,1663329.86042097,26,3,3,3,1,-707.0,6.27,-1.7,0.21,-0.02,0.08,-0.28,2.75,0.625,517.5625,0.04156494140625,0.76776123046875,0.39154052734375,0.0291,13.0,13.0,-45.5625,6.3,-1.78,stop,7
10.12,1663329.875534495,26,3,3,3,1,-715.0,6.12,-1.63,0.13,-0.18,0.15,-0.33,2.875,0.5625,517.375,0.04144287109375,0.767822265625,0.39178466796875,0.0295,13.6875,12.5625,-45.5625,6.31,-1.79,stop,7
10.13,1663329.875534495,26,3,3,3,1,-716.0,6.08,-1.61,0.12,-0.22,0.17,-0.4,2.8125,0.3125,517.1875,0.04119873046875,0.76788330078125,0.3919677734375,0.0295,13.6875,12.5625,-45.5,6.31,-1.79,stop,7
10.14,1663329.881129181,26,3,3,3,1,-718.0,6.03,-1.66,0.1,-0.27,0.13,-0.4,2.1875,0.3125,517.0,0.041015625,0.76788330078125,0.39215087890625,0.0295,13.6875,12.5625,-45.5,6.31,-1.79,stop,7
10.15,1663329.881129181,26,3,3,3,1,-720.0,5.99,-1.65,0.08,-0.31,0.13,-0.46,1.1875,0.0,516.9375,0.0408935546875,0.767822265625,0.392333984375,0.0295,13.6875,12.5625,-45.5,6.31,-1.78,stop,7
10.16,1663329.885707184,26,3,3,3,1,-703.0,5.69,-1.67,0.25,-0.61,0.1,-0.59,1.375,-0.5625,516.875,0.0406494140625,0.76776123046875,0.392578125,0.0295,13.6875,12.5625,-45.5,6.31,-1.78,stop,7
10.17,1663329.885707184,26,3,3,3,1,-693.0,5.53,-1.7,0.35,-0.78,0.08,-0.84,2.75,-0.9375,516.75,0.04022216796875,0.7677001953125,0.39288330078125,0.0291,12.5625,13.0,-45.5,6.31,-1.78,stop,7
10.18,1663329.89049055,26,3,3,3,1,-686.0,5.41,-1.74,0.41,-0.9,0.03,-1.31,3.75,-1.0625,516.5625,0.0396728515625,0.767578125,0.3934326171875,0.0291,12.5625,13.0,-45.5,6.31,-1.77,stop,7
10.19,1663329.89049055,26,3,3,3,1,-659.0,5.19,-1.83,0.69,-1.12,-0.06,-2.08,3.375,-1.0,516.4375,0.0389404296875,0.76727294921875,0.39422607421875,0.0291,12.5625,13.0,-45.5,6.31,-1.76,stop,7
10.2,1663329.895226268,26,3,3,3,1,-653.0,5.02,-1.87,0.75,-1.29,-0.12,-3.06,1.875,-0.875,516.375,0.0379638671875,0.7667236328125,0.3955078125,0.0291,12.5625,13.0,-45.5,6.32,-1.75,stop,7
10.21,1663329.895226268,26,3,3,3,1,-653.0,4.83,-1.94,0.75,-1.49,-0.22,-4.09,-0.375,-1.0,516.5,0.0367431640625,0.76580810546875,0.39715576171875,0.0291,12.5625,13.0,-45.5,6.32,-1.72,stop,7
10.22,1663329.900006297,26,3,3,3,1,-647.0,4.6,-2.0,0.81,-1.72,-0.31,-4.73,-4.25,-0.9375,516.9375,0.0355224609375,0.76458740234375,0.39910888671875,0.0295,13.5,13.75,-45.5625,6.33,-1.68,stop,7
10.23,1663329.900006297,26,3,3,3,1,-625.0,4.47,-1.93,1.04,-1.86,-0.29,-4.47,-10.5625,-0.375,517.75,0.03466796875,0.76318359375,0.40093994140625,0.0295,13.5,13.75,-45.5625,6.34,-1.64,stop,7
10.24,1663329.903240265,26,3,3,3,1,-614.0,4.64,-1.67,1.15,-1.71,-0.08,-3.42,-19.875,0.6875,519.125,0.03448486328125,0.76153564453125,0.40234375,0.0295,13.5,13.75,-45.625,6.35,-1.59,stop,7
10.25,1663329.903240265,26,3,3,3,1,-609.0,5.02,-1.41,1.21,-1.33,0.11,-2.22,-31.125,3.1875,521.1875,0.03515625,0.7596435546875,0.4033203125,0.0295,13.5,13.75,-45.625,6.35,-1.53,stop,7
10.26,1663329.906632599,26,3,3,3,1,-587.0,5.36,-1.32,1.43,-1.0,0.14,-1.35,-41.125,7.0625,523.75,0.03668212890625,0.75750732421875,0.404052734375,0.0295,13.5,13.75,-45.625,6.37,-1.47,stop,7
10.27,1663329.906632599,26,3,3,3,1,-587.0,5.36,-1.32,1.43,-1.0,0.14,-1.35,-41.125,7.0625,523.75,0.03668212890625,0.75750732421875,0.404052734375,0.0295,13.5,13.75,-45.625,6.37,-1.47,stop,7
10.27,1663329.909911896,26,3,3,3,1,-478.0,5.08,-1.55,2.52,-1.29,-0.14,-0.87,-48.0625,9.5,526.625,0.03875732421875,0.755126953125,0.4046630859375,0.0288,12.6875,13.0,-45.625,6.38,-1.4,stop,7
10.28,1663329.909911896,26,3,3,3,1,-409.0,4.81,-1.68,3.21,-1.58,-0.35,-0.12,-53.4375,11.9375,529.8125,0.04144287109375,0.75262451171875,0.40509033203125,0.0288,12.6875,13.0,-45.625,6.4,-1.33,stop,7
10.29,1663329.912803619,26,3,3,3,1,-321.0,4.85,-1.59,4.08,-1.56,-0.32,1.21,-60.4375,15.1875,533.3125,0.044921875,0.7501220703125,0.405029296875,0.0288,12.6875,13.0,-45.625,6.41,-1.26,stop,7
10.3,1663329.912803619,26,3,3,3,1,-230.0,5.16,-1.37,4.99,-1.26,-0.17,2.87,-68.0625,19.0,537.0625,0.04937744140625,0.74755859375,0.40447998046875,0.0288,12.6875,13.0,-45.5625,6.43,-1.2,stop,7
10.31,1663329.915805003,26,3,3,3,1,-125.0,6.2,-0.77,6.03,-0.25,0.36,4.63,-77.875,23.4375,541.3125,0.05499267578125,0.74493408203125,0.4033203125,0.0288,12.6875,13.0,-45.5,6.46,-1.13,stop,7
10.32,1663329.915805003,26,3,3,3,1,-148.0,7.24,0.06,5.78,0.75,1.13,6.68,-89.875,27.125,546.0625,0.06182861328125,0.7420654296875,0.40142822265625,0.0295,13.0625,12.5625,-45.4375,6.48,-1.06,stop,7
10.33,1663329.918538483,26,3,3,3,1,-230.0,8.91,0.81,4.95,2.39,1.81,8.96,-102.4375,32.625,551.3125,0.07012939453125,0.73907470703125,0.39874267578125,0.0295,13.0625,12.5625,-45.3125,6.52,-1.0,moving,7
10.34,1663329.918538483,26,3,3,3,1,-531.0,12.24,2.33,1.91,5.68,3.26,11.58,-120.3125,39.0625,557.375,0.08026123046875,0.735595703125,0.3951416015625,0.0295,13.0625,12.5625,-45.1875,6.55,-0.93,moving,7
10.35,1663329.964612579,26,3,3,3,1,-772.0,13.59,2.97,-0.52,6.99,3.85,16.3,-136.0625,44.875,563.9375,0.0926513671875,0.7322998046875,0.3897705078125,0.0295,13.0625,12.5625,-45.0,6.59,-0.87,moving,7
10.36,1663329.964612579,26,3,3,3,1,-1109.0,14.65,2.77,-3.93,8.01,3.62,20.27,-139.4375,48.0625,570.25,0.1065673828125,0.7293701171875,0.3828125,0.0295,13.0625,12.5625,-44.75,6.64,-0.85,moving,7
10.37,1663329.97038443,26,3,3,3,1,-1529.0,15.98,2.01,-8.15,9.3,2.84,21.77,-147.6875,42.1875,577.0,0.12078857421875,0.72625732421875,0.37481689453125,0.0291,13.0625,8.375,-44.5625,6.67,-0.82,moving,7
10.38,1663329.97038443,26,3,3,3,1,-1884.0,13.74,0.15,-11.71,7.05,0.91,18.1,-159.6875,21.375,585.375,0.1329345703125,0.72174072265625,0.366943359375,0.0291,13.0625,8.375,-44.5625,6.68,-0.75,moving,7
10.39,1663330.082792186,26,3,3,3,1,-1929.0,12.24,-1.49,-12.14,5.56,-0.85,9.24,-149.0625,-0.6875,594.25,0.14056396484375,0.716064453125,0.36151123046875,0.0291,13.0625,8.375,-44.6875,6.67,-0.63,moving,7
10.4,1663330.082792186,26,3,3,3,1,-2065.0,12.5,-3.91,-13.47,5.85,-3.39,1.23,-102.9375,-15.4375,601.1875,0.14324951171875,0.71124267578125,0.3590087890625,0.0291,13.0625,8.375,-44.875,6.65,-0.51,moving,7
10.41,1663330.089022899,26,3,3,3,1,-2230.0,12.49,-5.28,-15.09,5.86,-4.84,-3.38,-41.8125,-22.6875,604.8125,0.14202880859375,0.708740234375,0.358642578125,0.0291,13.0625,8.375,-45.0625,6.63,-0.44,moving,7
10.42,1663330.089022899,26,3,3,3,1,-1878.0,12.43,-5.65,-11.54,5.83,-5.25,-4.08,-7.0625,-27.0625,606.5,0.1392822265625,0.7078857421875,0.3587646484375,0.0305,12.375,1.375,-45.25,6.59,-0.4,moving,7
10.43,1663330.094195587,26,3,3,3,1,-1529.0,12.22,-5.15,-8.01,5.66,-4.75,-2.21,10.0,-30.3125,607.0,0.13641357421875,0.7083740234375,0.358154296875,0.0305,12.375,1.375,-45.4375,6.56,-0.39,moving,7
10.44,1663330.094195587,26,3,3,3,1,-1283.0,11.13,-3.71,-5.52,4.61,-3.26,-0.86,39.3125,-30.875,605.5625,0.13299560546875,0.7105712890625,0.35736083984375,0.0305,12.375,1.375,-45.625,6.52,-0.44,moving,7
10.45,1663330.099483388,26,3,3,3,1,-1132.0,10.22,-2.68,-3.99,3.74,-2.14,-1.95,81.6875,-29.75,601.4375,0.1279296875,0.7147216796875,0.3575439453125,0.0305,12.375,1.375,-45.8125,6.48,-0.53,moving,7
10.46,1663330.099483388,26,3,3,3,1,-890.0,7.56,-1.89,-1.54,1.11,-1.22,-3.31,117.0625,-30.5625,595.125,0.121337890625,0.72039794921875,0.3585205078125,0.0305,12.375,1.375,-45.9375,6.44,-0.66,moving,7
10.47,1663330.104648346,26,3,3,3,1,-730.0,5.83,-2.1,0.06,-0.57,-1.29,-4.05,141.3125,-31.0,587.25,0.11370849609375,0.72705078125,0.36004638671875,0.0303,12.0,-2.375,-46.0625,6.41,-0.81,moving,7
10.48,1663330.104648346,26,3,3,3,1,-570.0,4.4,-2.71,1.68,-1.97,-1.74,-5.33,150.5625,-30.625,578.6875,0.1053466796875,0.7337646484375,0.362060546875,0.0303,12.0,-2.375,-46.125,6.37,-0.97,moving,7
10.49,1663330.109973989,26,3,3,3,1,-421.0,3.35,-3.08,3.17,-2.99,-1.98,-7.57,145.75,-30.4375,570.5625,0.096435546875,0.73968505859375,0.36492919921875,0.0303,12.0,-2.375,-46.1875,6.34,-1.1,moving,7
10.5,1663330.109973989,26,3,3,3,1,-246.0,2.18,-2.87,4.92,-4.14,-1.66,-10.72,138.5,-30.5625,562.875,0.0867919921875,0.74444580078125,0.368896484375,0.0303,12.0,-2.375,-46.1875,6.32,-1.21,moving,7
10.51,1663330.115555776,26,3,3,3,1,-192.0,1.62,-2.25,5.47,-4.67,-0.96,-13.48,132.5625,-30.8125,555.6875,0.07647705078125,0.748291015625,0.37384033203125,0.0303,12.0,-2.375,-46.25,6.3,-1.29,moving,7
10.52,1663330.115555776,26,3,3,3,1,-159.0,0.83,-1.51,5.81,-5.45,-0.16,-15.26,127.125,-32.0,548.8125,0.06573486328125,0.7513427734375,0.37933349609375,0.0305,13.0,3.25,-46.25,6.28,-1.35,moving,7
10.53,1663330.118621002,26,3,3,3,1,-159.0,0.83,-1.51,5.81,-5.45,-0.16,-15.26,127.125,-32.0,548.8125,0.06573486328125,0.7513427734375,0.37933349609375,0.0305,13.0,3.25,-46.25,6.28,-1.35,moving,7
10.53,1663330.118621002,26,3,3,3,1,-119.0,-0.97,-0.16,6.22,-7.23,1.23,-16.22,123.3125,-34.4375,542.25,0.0546875,0.75390625,0.38507080078125,0.0305,13.0,3.25,-46.3125,6.26,-1.39,moving,7
10.54,1663330.128508209,26,3,3,3,1,-83.0,-1.71,0.47,6.59,-7.95,1.92,-16.66,121.625,-37.625,535.8125,0.04327392578125,0.756103515625,0.39068603515625,0.0305,13.0,3.25,-46.375,6.23,-1.44,moving,7
10.55,1663330.128508209,26,3,3,3,1,-36.0,-2.36,0.96,7.07,-8.57,2.45,-16.55,121.4375,-40.1875,529.3125,0.03179931640625,0.75823974609375,0.3961181640625,0.0305,13.0,3.25,-46.5,6.21,-1.48,moving,7
10.56,1663330.159707469,26,3,3,3,1,4.0,-2.83,1.38,7.49,-9.01,2.92,-16.28,120.8125,-42.4375,522.875,0.02020263671875,0.76019287109375,0.40118408203125,0.0305,13.0,3.25,-46.5625,6.18,-1.53,moving,7
10.57,1663330.159707469,26,3,3,3,1,32.0,-3.39,1.79,7.79,-9.54,3.36,-16.31,116.1875,-44.625,516.6875,0.0086669921875,0.7618408203125,0.4061279296875,0.0293,13.0,11.0625,-46.6875,6.15,-1.57,moving,7
10.58,1663330.173629954,26,3,3,3,1,34.0,-3.55,2.0,7.83,-9.67,3.61,-16.92,109.875,-46.0,510.9375,-0.00299072265625,0.76287841796875,0.41119384765625,0.0293,13.0,11.0625,-46.75,6.12,-1.6,moving,7
10.59,1663330.173629954,26,3,3,3,1,34.0,-3.39,2.09,7.85,-9.48,3.71,-17.97,103.6875,-48.25,505.5625,-0.0147705078125,0.7633056640625,0.41644287109375,0.0293,13.0,11.0625,-46.9375,6.09,-1.62,moving,7
10.6,1663330.1880065,26,3,3,3,1,25.0,-3.19,2.2,7.79,-9.25,3.81,-19.56,90.75,-50.8125,501.0,-0.0267333984375,0.76263427734375,0.4222412109375,0.0293,13.0,11.0625,-47.0625,6.05,-1.61,moving,7
10.61,1663330.1880065,26,3,3,3,1,57.0,-2.62,2.52,8.14,-8.65,4.09,-21.22,74.8125,-53.5625,497.5625,-0.0386962890625,0.7607421875,0.4285888671875,0.0293,13.0,11.0625,-47.3125,6.02,-1.57,moving,7
10.62,1663330.219165029,26,3,3,3,1,120.0,-1.49,2.19,8.82,-7.47,3.7,-22.71,57.8125,-57.3125,495.3125,-0.05072021484375,0.75762939453125,0.435302734375,0.029,12.5625,17.6875,-47.625,5.98,-1.5,moving,7
10.63,1663330.219165029,26,3,3,3,1,135.0,0.21,1.16,9.02,-5.72,2.57,-22.58,36.0625,-61.625,494.5625,-0.0621337890625,0.75341796875,0.44183349609375,0.029,12.5625,17.6875,-47.9375,5.94,-1.4,moving,7
10.64,1663330.232946727,26,3,3,3,1,284.0,0.1,1.91,10.57,-5.78,3.19,-20.65,8.1875,-61.75,495.6875,-0.0718994140625,0.7484130859375,0.4476318359375,0.029,12.5625,17.6875,-48.3125,5.88,-1.28,moving,7
10.65,1663330.232946727,26,3,3,3,1,141.0,2.64,2.32,9.2,-3.2,3.5,-17.6,7.1875,-43.875,496.25,-0.0797119140625,0.74407958984375,0.452880859375,0.029,12.5625,17.6875,-48.625,5.85,-1.17,moving,7
10.66,1663330.247800649,26,3,3,3,1,-114.0,3.61,2.45,6.66,-2.2,3.58,-13.56,23.75,-30.875,495.3125,-0.08624267578125,0.74151611328125,0.4569091796875,0.029,12.5625,17.6875,-48.75,5.82,-1.12,moving,7
10.67,1663330.247800649,26,3,3,3,1,-631.0,4.63,4.07,1.49,-1.17,5.2,-10.49,54.25,-19.3125,492.0,-0.0924072265625,0.74102783203125,0.45989990234375,0.0287,13.375,21.5625,-48.8125,5.81,-1.13,moving,7
10.68,1663330.278677358,26,3,3,3,1,-1979.0,17.1,9.75,-12.0,11.28,11.04,-0.03,111.375,6.3125,484.3125,-0.09649658203125,0.7457275390625,0.459228515625,0.0287,13.375,21.5625,-48.625,5.82,-1.28,moving,7
10.69,1663330.278677358,26,3,3,3,1,-2859.0,26.51,6.24,-20.86,20.69,7.84,17.67,159.375,19.3125,473.8125,-0.0970458984375,0.7567138671875,0.45147705078125,0.0287,13.375,21.5625,-48.25,5.82,-1.6,moving,7
10.7,1663330.293036204,26,3,3,3,1,-2935.0,31.11,-0.18,-21.63,25.32,1.56,5.81,72.9375,-15.875,469.875,-0.0994873046875,0.76092529296875,0.44781494140625,0.0287,13.375,21.5625,-48.25,5.78,-1.74,moving,7
10.71,1663330.293036204,26,3,3,3,1,-2672.0,29.95,-9.83,-18.92,24.17,-8.45,-19.88,-172.6875,-34.0,481.75,-0.09991455078125,0.74871826171875,0.45611572265625,0.0287,13.375,21.5625,-48.75,5.77,-1.38,moving,7
10.72,1663330.338752065,26,3,3,3,1,-2979.0,28.08,-18.16,-21.93,22.25,-17.43,-25.93,-356.3125,10.5,503.4375,-0.0916748046875,0.727294921875,0.47003173828125,0.0272,13.0,22.6875,-49.0625,5.82,-0.73,moving,7
10.73,1663330.338752065,26,3,3,3,1,-2364.0,19.69,-6.22,-15.78,13.84,-5.77,9.82,-251.9375,26.5625,519.0625,-0.07696533203125,0.71905517578125,0.46917724609375,0.0272,13.0,22.6875,-49.0625,5.85,-0.44,moving,7
10.74,1663330.398417308,26,3,3,3,1,-2197.0,15.19,-2.41,-14.13,9.33,-1.85,28.78,-54.75,21.375,522.8125,-0.0654296875,0.7239990234375,0.45916748046875,0.0272,13.0,22.6875,-48.9375,5.86,-0.55,moving,7
10.75,1663330.398417308,26,3,3,3,1,-2095.0,12.06,0.0,-13.13,6.19,0.7,29.57,-30.5625,20.875,524.9375,-0.05462646484375,0.73004150390625,0.44854736328125,0.0272,13.0,22.6875,-48.875,5.87,-0.7,moving,7
10.76,1663330.404147126,26,3,3,3,1,-1708.0,6.88,-1.42,-9.28,1.0,-0.6,29.19,-56.8125,27.0625,528.375,-0.04248046875,0.73468017578125,0.4383544921875,0.0272,13.0,22.6875,-48.75,5.88,-0.81,moving,7
10.77,1663330.404147126,26,3,3,3,1,-1489.0,5.91,-2.96,-7.11,0.01,-2.06,27.47,-67.3125,24.5,532.4375,-0.03057861328125,0.73822021484375,0.4287109375,0.0283,14.0625,20.0,-48.625,5.89,-0.89,moving,7
10.78,1663330.409662873,26,3,3,3,1,-1146.0,6.15,-2.66,-3.68,0.25,-1.71,26.68,-86.125,23.6875,537.5625,-0.01824951171875,0.740478515625,0.419189453125,0.0283,14.0625,20.0,-48.5625,5.9,-0.95,moving,7
10.79,1663330.409662873,26,3,3,3,1,-1146.0,6.15,-2.66,-3.68,0.25,-1.71,26.68,-86.125,23.6875,537.5625,-0.01824951171875,0.740478515625,0.419189453125,0.0283,14.0625,20.0,-48.5625,5.9,-0.95,moving,7
10.79,1663330.428862905,26,3,3,3,1,-825.0,6.34,-1.72,-0.48,0.43,-0.73,26.03,-98.4375,25.5625,543.3125,-0.00555419921875,0.74188232421875,0.40997314453125,0.0283,14.0625,20.0,-48.5,5.9,-0.98,moving,7
10.8,1663330.428862905,26,3,3,3,1,-363.0,4.17,-0.7,4.11,-1.74,0.34,26.25,-84.1875,26.4375,547.9375,0.00677490234375,0.74371337890625,0.40057373046875,0.0283,14.0625,20.0,-48.4375,5.91,-1.04,moving,7
10.81,1663330.434493968,26,3,3,3,1,-229.0,3.0,-1.37,5.44,-2.92,-0.24,25.54,-56.75,30.3125,550.5,0.0181884765625,0.74658203125,0.3916015625,0.0283,14.0625,20.0,-48.3125,5.92,-1.13,moving,7
10.82,1663330.434493968,26,3,3,3,1,-202.0,2.99,-1.55,5.67,-2.95,-0.32,24.23,-50.25,37.625,552.1875,0.02947998046875,0.749267578125,0.38336181640625,0.0283,13.0625,12.1875,-48.125,5.94,-1.22,moving,7
10.83,1663330.439808096,26,3,3,3,1,-200.0,2.94,-1.09,5.66,-3.02,0.2,24.51,-64.8125,41.875,554.625,0.04156494140625,0.7510986328125,0.3751220703125,0.0283,13.0625,12.1875,-47.9375,5.96,-1.29,moving,7
10.84,1663330.439808096,26,3,3,3,1,-14.0,2.27,0.46,7.49,-3.71,1.83,27.37,-79.0625,48.4375,557.5625,0.055419921875,0.752685546875,0.36590576171875,0.0283,13.0625,12.1875,-47.75,5.99,-1.36,moving,7
10.85,1663330.445473338,26,3,3,3,1,163.0,1.98,1.13,9.23,-4.03,2.57,29.77,-89.1875,56.75,560.6875,0.07086181640625,0.75396728515625,0.35589599609375,0.0283,13.0625,12.1875,-47.5,6.02,-1.44,moving,7
10.86,1663330.445473338,26,3,3,3,1,304.0,1.36,2.18,10.61,-4.68,3.7,29.48,-91.1875,59.0625,563.6875,0.08636474609375,0.7548828125,0.34600830078125,0.0283,13.0625,12.1875,-47.25,6.05,-1.51,moving,7
10.87,1663330.45787849,26,3,3,3,1,476.0,-0.06,2.71,12.28,-6.15,4.3,27.11,-76.1875,58.4375,565.625,0.10064697265625,0.7557373046875,0.3370361328125,0.0297,14.1875,6.375,-47.0,6.08,-1.59,moving,7
10.88,1663330.45787849,26,3,3,3,1,486.0,-1.51,2.35,12.34,-7.64,4.01,22.61,-64.0625,60.0,566.8125,0.11328125,0.7562255859375,0.33001708984375,0.0297,14.1875,6.375,-46.6875,6.12,-1.66,moving,7
10.89,1663330.48857783,26,3,3,3,1,493.0,-2.13,0.96,12.38,-8.29,2.63,17.85,-84.1875,46.3125,569.9375,0.12420654296875,0.75482177734375,0.32403564453125,0.0297,14.1875,6.375,-46.5625,6.15,-1.67,moving,7
10.9,1663330.48857783,26,3,3,3,1,540.0,-2.25,1.66,12.87,-8.4,3.26,16.8,-141.625,19.5625,577.6875,0.13458251953125,0.7506103515625,0.3165283203125,0.0297,14.1875,6.375,-46.625,6.14,-1.59,moving,7
10.91,1663330.503366811,26,3,3,3,1,717.0,-4.12,1.08,14.69,-10.23,2.57,16.08,-164.625,-13.625,587.8125,0.1431884765625,0.745361328125,0.30731201171875,0.0297,14.1875,6.375,-47.0,6.1,-1.49,moving,7
10.92,1663330.503366811,26,3,3,3,1,683.0,-4.14,0.15,14.42,-10.19,1.55,17.41,-156.4375,-20.0,597.3125,0.1514892578125,0.74053955078125,0.29730224609375,0.0308,12.6875,2.0,-47.375,6.05,-1.4,moving,7
10.93,1663330.518084992,26,3,3,3,1,607.0,-4.13,0.8,13.71,-10.15,2.09,19.44,-177.125,-2.625,607.3125,0.162109375,0.734619140625,0.28692626953125,0.0308,12.6875,2.0,-47.6875,6.01,-1.29,moving,7
10.94,1663330.518084992,26,3,3,3,1,489.0,-3.38,2.44,12.53,-9.41,3.59,19.92,-205.6875,26.8125,618.1875,0.1754150390625,0.7265625,0.27740478515625,0.0308,12.6875,2.0,-47.75,6.02,-1.14,moving,7
10.95,1663330.547968659,26,3,3,3,1,-129.0,-0.08,4.67,6.34,-6.15,5.69,18.29,-193.4375,45.8125,627.6875,0.18896484375,0.71826171875,0.26953125,0.0308,12.6875,2.0,-47.6875,6.06,-1.01,moving,7
10.96,1663330.547968659,26,3,3,3,1,-222.0,-0.06,3.96,5.39,-6.16,4.84,13.87,-169.75,32.875,636.1875,0.19964599609375,0.7105712890625,0.2630615234375,0.0308,12.6875,2.0,-47.625,6.09,-0.87,moving,7
10.97,1663330.638537384,26,3,3,3,1,-411.0,-0.11,1.76,3.51,-6.22,2.49,9.18,-157.8125,16.125,644.75,0.2073974609375,0.70294189453125,0.25762939453125,0.0325,12.6875,-6.0,-47.6875,6.11,-0.72,moving,7
10.98,1663330.638537384,26,3,3,3,1,-584.0,0.13,0.24,1.78,-5.99,0.76,6.72,-189.75,14.9375,655.4375,0.21484375,0.693115234375,0.25244140625,0.0325,12.6875,-6.0,-47.6875,6.12,-0.52,moving,7
10.99,1663330.644116527,26,3,3,3,1,-1377.0,0.83,7.94,-6.16,-5.34,8.15,4.19,-249.0625,42.4375,669.25,0.22430419921875,0.6788330078125,0.24847412109375,0.0325,12.6875,-6.0,-47.5,6.18,-0.21,moving,7
11.0,1663330.644116527,26,3,3,3,1,-2853.0,13.12,22.41,-21.01,6.83,22.52,7.86,-119.4375,85.8125,673.5625,0.23480224609375,0.67132568359375,0.24810791015625,0.0325,12.6875,-6.0,-46.9375,6.29,-0.11,moving,7
11.01,1663330.65000764,26,3,3,3,1,-3954.0,22.32,17.64,-32.16,15.88,18.17,11.55,258.4375,113.375,653.8125,0.2398681640625,0.68511962890625,0.255615234375,0.0325,12.6875,-6.0,-46.0625,6.43,-0.52,moving,7
11.02,1663330.65000764,26,3,3,3,0,-3894.0,10.84,7.48,-31.45,4.59,8.44,14.48,250.625,-132.5625,639.4375,0.2313232421875,0.70361328125,0.24798583984375,0.0319,11.375,-16.0625,-46.8125,6.25,-0.95,moving,7
11.03,1663330.655235464,26,3,3,3,0,-3334.0,14.33,-0.13,-25.71,8.27,0.94,8.51,56.6875,-137.125,637.75,0.22454833984375,0.71051025390625,0.2384033203125,0.0319,11.375,-16.0625,-47.625,6.06,-1.08,moving,7
11.04,1663330.655235464,26,3,3,3,0,-2595.0,20.76,-22.7,-18.23,14.77,-21.8,-33.35,26.125,-83.375,642.0,0.2073974609375,0.70904541015625,0.24725341796875,0.0319,11.375,-16.0625,-48.1875,5.98,-0.89,moving,7
11.05,1663330.660476797,26,3,3,3,0,-1753.0,32.09,-36.23,-9.83,26.03,-35.91,-97.13,48.125,8.625,649.125,0.1734619140625,0.69744873046875,0.28570556640625,0.0319,11.375,-16.0625,-48.0625,6.06,-0.32,moving,7
11.06,1663330.660476797,26,3,3,3,0,-1753.0,32.09,-36.23,-9.83,26.03,-35.91,-97.13,48.125,8.625,649.125,0.1734619140625,0.69744873046875,0.28570556640625,0.0319,11.375,-16.0625,-48.0625,6.06,-0.32,moving,7
11.06,1663330.665972769,26,3,3,3,0,-1182.0,19.14,-8.35,-4.15,13.02,-8.36,-78.7,138.9375,26.1875,646.8125,0.14422607421875,0.6917724609375,0.31884765625,0.0319,11.375,-16.0625,-47.875,6.11,0.01,moving,7
11.07,1663330.665972769,26,3,3,3,0,-1319.0,16.54,-1.48,-5.53,10.41,-1.32,-24.68,252.0625,9.125,632.75,0.12921142578125,0.7010498046875,0.33172607421875,0.0308,14.25,-23.875,-47.8125,6.12,-0.15,moving,7
11.08,1663330.669590526,26,3,3,3,0,-1331.0,15.97,2.29,-5.67,9.85,2.81,-5.88,299.1875,-3.1875,614.3125,0.11834716796875,0.71588134765625,0.3370361328125,0.0308,14.25,-23.875,-47.75,6.12,-0.51,moving,7
11.09,1663330.669590526,26,3,3,3,0,-1137.0,12.73,4.34,-3.76,6.62,5.26,-2.57,313.75,-8.1875,594.4375,0.10772705078125,0.73162841796875,0.34075927734375,0.0308,14.25,-23.875,-47.5625,6.11,-0.91,moving,7
11.1,1663330.698335236,26,3,3,3,0,-557.0,7.0,2.33,1.98,0.89,3.64,-3.05,309.125,-6.5,574.4375,0.09710693359375,0.74652099609375,0.34442138671875,0.0308,14.25,-23.875,-47.1875,6.11,-1.3,moving,7
11.11,1663330.698335236,26,3,3,3,0,-273.0,5.95,1.39,4.75,-0.16,3.02,-5.06,271.125,-0.3125,556.5,0.08734130859375,0.75860595703125,0.3486328125,0.0308,14.25,-23.875,-46.75,6.11,-1.62,moving,7
11.12,1663330.713639761,26,3,3,3,0,-41.0,5.36,1.02,7.0,-0.77,2.89,-9.73,230.625,1.3125,541.1875,0.0775146484375,0.76751708984375,0.35443115234375,0.0297,14.0,-7.0,-46.3125,6.13,-1.86,moving,7
11.13,1663330.713639761,26,3,3,3,0,82.0,5.26,0.6,8.17,-0.89,2.65,-14.82,217.9375,-10.0625,527.125,0.06585693359375,0.77459716796875,0.361572265625,0.0297,14.0,-7.0,-45.9375,6.15,-2.04,moving,7
11.14,1663330.727476756,26,3,3,3,0,303.0,1.77,-0.38,10.33,-4.38,1.82,-19.41,232.8125,-31.0,512.5625,0.05096435546875,0.78118896484375,0.36962890625,0.0297,14.0,-7.0,-45.5625,6.16,-2.21,moving,7
11.15,1663330.727476756,26,3,3,3,0,360.0,0.13,-1.27,10.85,-6.01,1.11,-22.08,256.0,-51.0,496.875,0.033203125,0.787841796875,0.3778076171875,0.0297,14.0,-7.0,-45.3125,6.15,-2.38,moving,7
11.16,1663330.758268667,26,3,3,3,0,387.0,-2.15,-1.5,11.09,-8.29,1.03,-23.44,244.375,-63.9375,482.125,0.0145263671875,0.79327392578125,0.38580322265625,0.0297,14.0,-7.0,-45.0625,6.13,-2.54,moving,7
11.17,1663330.758268667,26,3,3,3,0,282.0,-4.46,-1.25,10.02,-10.56,1.37,-23.25,195.375,-74.9375,470.9375,-0.003173828125,0.79632568359375,0.3929443359375,0.0291,13.5625,6.875,-45.0,6.1,-2.63,moving,7
11.18,1663330.772910309,26,3,3,3,0,214.0,-4.59,0.56,9.38,-10.65,3.23,-20.31,136.625,-88.375,464.1875,-0.01910400390625,0.79730224609375,0.39813232421875,0.0291,13.5625,6.875,-45.1875,6.05,-2.66,moving,7
11.19,1663330.772910309,26,3,3,3,0,263.0,-2.73,1.77,9.93,-8.7,4.45,-15.12,86.8125,-100.25,461.375,-0.0328369140625,0.79718017578125,0.4005126953125,0.0291,13.5625,6.875,-45.625,5.97,-2.67,moving,7
11.2,1663330.802990225,26,3,3,3,0,358.0,-1.34,2.77,10.97,-7.2,5.46,-10.72,65.5625,-114.75,460.5625,-0.04571533203125,0.7969970703125,0.4005126953125,0.0291,13.5625,6.875,-46.125,5.85,-2.69,moving,7
11.21,1663330.802990225,26,3,3,3,0,380.0,-1.51,4.55,11.3,-7.22,7.26,-7.24,48.25,-127.875,461.5,-0.05804443359375,0.7967529296875,0.39837646484375,0.0291,13.5625,6.875,-46.8125,5.71,-2.71,moving,7
11.22,1663330.832582917,26,3,3,3,0,323.0,-1.86,5.45,10.84,-7.42,8.15,-4.18,15.375,-127.375,464.75,-0.0684814453125,0.79571533203125,0.3951416015625,0.0291,14.25,17.0,-47.5625,5.55,-2.7,moving,7
11.23,1663330.832582917,26,3,3,3,0,322.0,-2.63,5.63,10.96,-8.04,8.29,-1.94,-19.5625,-118.5,470.25,-0.07647705078125,0.79376220703125,0.391357421875,0.0291,14.25,17.0,-48.3125,5.4,-2.66,moving,7
11.24,1663330.838091584,26,3,3,3,0,347.0,-3.03,5.02,11.33,-8.3,7.6,-3.08,-53.625,-109.375,477.75,-0.0830078125,0.7901611328125,0.388671875,0.0291,14.25,17.0,-49.125,5.26,-2.57,moving,7
11.25,1663330.838091584,26,3,3,3,0,333.0,-2.51,3.97,11.3,-7.67,6.39,-8.69,-71.9375,-93.9375,485.625,-0.0892333984375,0.78466796875,0.38909912109375,0.0291,14.25,17.0,-49.8125,5.15,-2.42,moving,7
11.26,1663330.847977814,26,3,3,3,0,197.0,-1.25,3.38,10.04,-6.35,5.63,-15.72,-65.8125,-69.625,491.875,-0.0958251953125,0.77801513671875,0.3934326171875,0.0291,14.25,17.0,-50.375,5.1,-2.24,moving,7
11.27,1663330.847977814,26,3,3,3,0,9.0,0.77,2.39,8.22,-4.31,4.46,-20.57,-39.3125,-44.875,495.0625,-0.10284423828125,0.771484375,0.400634765625,0.0266,15.0625,14.25,-50.75,5.08,-2.07,moving,7
11.28,1663330.879566315,26,3,3,3,0,-133.0,2.48,1.44,6.82,-2.6,3.36,-22.37,-20.375,-30.375,496.25,-0.110107421875,0.765380859375,0.408935546875,0.0266,15.0625,14.25,-50.9375,5.09,-1.92,moving,7
11.29,1663330.879566315,26,3,3,3,0,-571.0,6.38,0.57,2.46,1.28,2.35,-20.62,-14.9375,-19.75,496.6875,-0.1163330078125,0.7598876953125,0.41680908203125,0.0266,15.0625,14.25,-51.125,5.1,-1.78,moving,7
11.3,1663330.893354361,26,3,3,3,0,-1002.0,9.07,2.05,-1.83,3.93,3.72,-14.28,-28.875,2.875,497.625,-0.11883544921875,0.75543212890625,0.42315673828125,0.0266,15.0625,14.25,-51.125,5.13,-1.66,moving,7
11.31,1663330.893354361,26,3,3,3,0,-1650.0,14.97,6.55,-8.35,9.75,8.12,-2.78,-56.3125,58.875,499.0,-0.11358642578125,0.7529296875,0.42742919921875,0.0266,15.0625,14.25,-50.875,5.22,-1.56,moving,7
11.32,1663330.90788736,26,3,3,3,0,-1650.0,14.97,6.55,-8.35,9.75,8.12,-2.78,-56.3125,58.875,499.0,-0.11358642578125,0.7529296875,0.42742919921875,0.0266,15.0625,14.25,-50.875,5.22,-1.56,moving,7
11.32,1663330.90788736,26,3,3,3,0,-1998.0,23.86,9.52,-11.95,18.47,11.12,12.87,-33.0,132.6875,496.9375,-0.1002197265625,0.7557373046875,0.4281005859375,0.0261,14.25,15.5,-50.1875,5.39,-1.59,moving,7
11.33,1663330.938228628,26,3,3,3,0,-3319.0,34.89,3.45,-25.33,29.26,5.1,7.81,5.75,182.9375,489.9375,-0.08624267578125,0.75927734375,0.43255615234375,0.0261,14.25,15.5,-49.0625,5.63,-1.64,moving,7
11.34,1663330.938228628,26,3,3,3,0,-3030.0,30.33,-7.77,-22.57,24.48,-6.28,-19.24,-31.5,134.75,485.9375,-0.08111572265625,0.75433349609375,0.44635009765625,0.0261,14.25,15.5,-48.3125,5.84,-1.48,moving,7
11.35,1663330.943934154,26,3,3,3,0,-3648.0,23.5,-33.31,-28.8,17.46,-32.42,-48.27,-203.75,95.3125,493.4375,-0.079345703125,0.734375,0.47137451171875,0.0261,14.25,15.5,-47.9375,6.04,-0.89,moving,7
11.36,1663330.943934154,26,3,3,3,0,-2080.0,18.42,-10.2,-13.16,12.28,-9.89,-31.49,-283.3125,57.4375,507.9375,-0.07220458984375,0.71441650390625,0.48822021484375,0.0261,14.25,15.5,-47.75,6.13,-0.3,moving,7
11.37,1663330.968468781,26,3,3,3,0,-1833.0,13.04,1.13,-10.7,6.88,1.36,25.79,-183.8125,21.5,519.6875,-0.0560302734375,0.7132568359375,0.48016357421875,0.0269,15.0625,18.875,-47.625,6.15,-0.23,moving,7
11.38,1663330.968468781,26,3,3,3,0,-1623.0,10.61,2.78,-8.61,4.44,3.07,27.35,-94.6875,14.375,525.875,-0.0435791015625,0.7161865234375,0.4705810546875,0.0269,15.0625,18.875,-47.5625,6.17,-0.29,moving,7
11.39,1663331.044201325,26,3,3,3,0,-1445.0,9.35,2.04,-6.85,3.17,2.36,21.48,-88.1875,12.3125,531.4375,-0.03314208984375,0.71771240234375,0.46307373046875,0.0269,15.0625,18.875,-47.5,6.18,-0.31,moving,7
11.4,1663331.044201325,26,3,3,3,0,-1132.0,7.65,-2.18,-3.71,1.47,-1.81,26.4,-88.625,5.8125,537.3125,-0.02166748046875,0.72027587890625,0.4532470703125,0.0269,15.0625,18.875,-47.5,6.17,-0.37,moving,7
11.41,1663331.050348664,26,3,3,3,0,-968.0,6.15,-3.27,-2.08,-0.01,-2.83,26.59,-84.5,1.5,542.9375,-0.0106201171875,0.72283935546875,0.4429931640625,0.0269,15.0625,18.875,-47.5,6.17,-0.44,moving,7
11.42,1663331.050348664,26,3,3,3,0,-772.0,4.63,-2.0,-0.1,-1.51,-1.52,23.74,-93.125,-2.375,549.125,-0.00030517578125,0.72418212890625,0.43359375,0.0278,13.5625,18.5625,-47.5625,6.15,-0.47,moving,7
11.43,1663331.055593049,26,3,3,3,0,-610.0,3.08,-0.34,1.53,-3.05,0.16,21.47,-82.5,-6.75,554.6875,0.0086669921875,0.72528076171875,0.4248046875,0.0278,13.5625,18.5625,-47.6875,6.13,-0.51,moving,7
11.44,1663331.055593049,26,3,3,3,0,-380.0,1.18,-0.19,3.84,-4.92,0.37,19.56,-53.5625,-10.8125,558.4375,0.01580810546875,0.72723388671875,0.41650390625,0.0278,13.5625,18.5625,-47.75,6.1,-0.57,moving,7
11.45,1663331.060818187,26,3,3,3,0,-294.0,1.05,-0.69,4.71,-5.03,-0.06,17.78,-38.4375,-12.75,561.1875,0.02166748046875,0.72943115234375,0.40875244140625,0.0278,13.5625,18.5625,-47.875,6.08,-0.63,moving,7
11.46,1663331.060818187,26,3,3,3,0,-167.0,1.06,-0.75,6.0,-4.98,-0.05,17.47,-41.375,-11.25,564.0625,0.02764892578125,0.7313232421875,0.40118408203125,0.0278,13.5625,18.5625,-48.0,6.05,-0.69,moving,7
11.47,1663331.066082998,26,3,3,3,0,-38.0,1.19,-0.84,7.31,-4.82,-0.07,19.19,-45.8125,-7.6875,567.0,0.0345458984375,0.7332763671875,0.39306640625,0.0295,14.0,9.1875,-48.0625,6.02,-0.76,moving,7
11.48,1663331.066082998,26,3,3,3,0,211.0,0.98,-0.37,9.82,-5.02,0.44,20.3,-51.4375,-0.8125,570.0,0.04241943359375,0.73504638671875,0.384765625,0.0295,14.0,9.1875,-48.125,6.0,-0.82,moving,7
11.49,1663331.089066722,26,3,3,3,0,331.0,-0.07,0.7,11.01,-6.07,1.58,20.29,-61.5625,4.75,573.375,0.05096435546875,0.73626708984375,0.37664794921875,0.0295,14.0,9.1875,-48.125,5.99,-0.87,moving,7
11.5,1663331.089066722,26,3,3,3,0,426.0,-0.84,1.41,11.97,-6.83,2.33,20.13,-63.5,10.6875,576.5625,0.05987548828125,0.7371826171875,0.3687744140625,0.0295,14.0,9.1875,-48.125,5.99,-0.92,moving,7
11.51,1663331.102627757,26,3,3,3,0,528.0,-1.71,1.31,12.99,-7.69,2.29,20.18,-49.4375,8.75,578.8125,0.0682373046875,0.73870849609375,0.36083984375,0.0295,14.0,9.1875,-48.125,5.98,-0.98,moving,7
11.52,1663331.102627757,26,3,3,3,0,585.0,-1.99,1.31,13.56,-7.95,2.37,18.09,-32.8125,-0.4375,580.25,0.07489013671875,0.7406005859375,0.35333251953125,0.0295,14.0,3.0625,-48.1875,5.96,-1.06,moving,7
11.53,1663331.118609894,26,3,3,3,0,554.0,-2.61,1.35,13.26,-8.55,2.48,15.35,-18.0,-6.0,580.9375,0.07977294921875,0.74267578125,0.34674072265625,0.0295,14.0,3.0625,-48.25,5.93,-1.13,moving,7
11.54,1663331.118609894,26,3,3,3,0,498.0,-2.66,1.62,12.69,-8.59,2.83,13.6,-10.6875,7.3125,580.8125,0.0848388671875,0.74462890625,0.341552734375,0.0295,14.0,3.0625,-48.1875,5.93,-1.2,moving,7
11.55,1663331.148462718,26,3,3,3,0,251.0,-1.74,1.67,10.2,-7.7,2.91,9.4,-21.5,32.125,580.8125,0.0904541015625,0.74505615234375,0.33917236328125,0.0295,14.0,3.0625,-48.0,5.96,-1.24,moving,7
11.56,1663331.148462718,26,3,3,3,0,44.0,-1.09,4.26,8.08,-7.12,5.45,6.08,-68.0625,53.4375,583.375,0.09783935546875,0.7423095703125,0.33880615234375,0.0295,14.0,3.0625,-47.75,6.02,-1.18,moving,7
11.57,1663331.164242992,26,3,3,3,0,44.0,-1.09,4.26,8.08,-7.12,5.45,6.08,-68.0625,53.4375,583.375,0.09783935546875,0.7423095703125,0.33880615234375,0.0295,14.0,3.0625,-47.75,6.02,-1.18,moving,7
11.57,1663331.164242992,26,3,3,3,0,-106.0,-0.85,3.82,6.54,-6.94,4.92,1.98,-77.5,50.625,586.875,0.10406494140625,0.7384033203125,0.33990478515625,0.031,13.5625,1.5,-47.5,6.09,-1.09,moving,7
11.58,1663331.178248526,26,3,3,3,0,-244.0,-0.19,3.63,5.13,-6.33,4.61,-2.42,-73.0,35.125,590.75,0.10772705078125,0.73394775390625,0.34197998046875,0.031,13.5625,1.5,-47.375,6.14,-0.98,moving,7
11.59,1663331.178248526,26,3,3,3,0,-691.0,0.76,2.95,0.66,-5.4,3.78,-5.29,-90.0,14.125,596.5,0.10968017578125,0.72821044921875,0.343994140625,0.031,13.5625,1.5,-47.375,6.16,-0.83,moving,7
11.6,1663331.223777578,26,3,3,3,0,-967.0,0.86,2.85,-2.06,-5.29,3.48,-4.71,-124.4375,-8.875,605.125,0.111328125,0.7210693359375,0.34423828125,0.031,13.5625,1.5,-47.5,6.15,-0.63,moving,7
11.61,1663331.223777578,26,3,3,3,0,-1443.0,2.03,1.14,-6.79,-4.1,1.54,-3.08,-158.5625,-11.9375,615.875,0.1143798828125,0.71234130859375,0.34326171875,0.031,13.5625,1.5,-47.6875,6.14,-0.4,moving,7
