timestamp,android_nano_timestamp,temperature,calib_mag,calib_accel,calib_gyro,calib_sys,acc_x,acc_y,acc_z,lacc_x,lacc_y,lacc_z,gyro_x,gyro_y,gyro_z,quat_w,quat_x,quat_y,quat_z,mag_x,mag_y,mag_z,gravity_x,gravity_y,gravity_z,label,person
5.64,30294.657855408,26,3,1,0,3,-0.15,0.48,-3.75,-9.71,-0.38,-1.75,-25.0,168.8125,-0.1875,0.62451171875,-0.04205322265625,-0.7745361328125,-0.09124755859375,-14.5625,37.0,13.75,9.56,0.87,-1.99,moving,11
5.65,30294.672705506,26,3,1,0,3,-0.37,0.08,-3.89,-9.95,-0.79,-1.99,-58.6875,51.1875,9.1875,0.6278076171875,-0.04547119140625,-0.771240234375,-0.09490966796875,-14.5625,37.0,13.75,9.58,0.87,-1.89,moving,11
5.66,30294.672705506,26,3,1,0,3,-0.34,-0.15,-3.42,-9.91,-1.02,-1.44,-44.8125,-48.3125,12.1875,0.62445068359375,-0.04913330078125,-0.7734375,-0.0970458984375,-14.5625,37.0,13.75,9.56,0.87,-1.97,moving,11
5.67,30294.703272563,26,3,1,0,3,0.39,-0.17,-3.31,-9.13,-1.03,-1.13,4.75,-121.25,3.6875,0.61639404296875,-0.0494384765625,-0.78009033203125,-0.09539794921875,-16.75,37.0,10.375,9.52,0.86,-2.17,moving,11
5.68,30294.703272563,26,3,1,0,3,1.25,-0.02,-3.11,-8.19,-0.89,-0.64,47.625,-174.375,-11.3125,0.60455322265625,-0.04754638671875,-0.789794921875,-0.092041015625,-16.75,37.0,10.375,9.45,0.86,-2.47,moving,11
5.69,30294.710653707,26,3,1,0,3,2.19,0.35,-2.25,-7.16,-0.5,0.54,62.0625,-195.0625,-17.3125,0.59112548828125,-0.04461669921875,-0.800537109375,-0.08782958984375,-16.75,37.0,10.375,9.35,0.86,-2.8,moving,11
5.7,30294.710653707,26,3,1,0,3,2.14,0.48,-1.6,-7.12,-0.37,1.49,54.375,-178.25,-13.875,0.57867431640625,-0.042236328125,-0.81011962890625,-0.08404541015625,-16.75,37.0,10.375,9.26,0.85,-3.09,moving,11
5.71,30294.731622132,26,3,1,0,3,1.86,0.51,-0.94,-7.31,-0.33,2.37,38.8125,-137.1875,-7.9375,0.56903076171875,-0.04071044921875,-0.8172607421875,-0.0811767578125,-16.75,37.0,10.375,9.18,0.84,-3.32,moving,11
5.72,30294.731622132,26,3,1,0,3,1.5,0.44,-0.5,-7.62,-0.38,2.96,25.5625,-88.6875,-1.0625,0.56280517578125,-0.03948974609375,-0.8218994140625,-0.07879638671875,-16.75,36.5625,10.375,9.13,0.83,-3.47,moving,11
5.72,30294.746185405,26,3,1,0,3,1.5,0.44,-0.5,-7.62,-0.38,2.96,25.5625,-88.6875,-1.0625,0.56280517578125,-0.03948974609375,-0.8218994140625,-0.07879638671875,-16.75,36.5625,10.375,9.13,0.83,-3.47,moving,11
5.73,30294.746185405,26,3,1,0,3,1.14,0.11,-0.26,-7.95,-0.7,3.28,14.625,-49.625,6.6875,0.559326171875,-0.03961181640625,-0.82440185546875,-0.07720947265625,-16.75,36.5625,10.375,9.1,0.81,-3.55,moving,11
5.74,30294.762604147,26,3,1,0,3,1.3,-0.08,-0.65,-7.78,-0.86,2.94,2.25,-32.0625,16.5625,0.55712890625,-0.0408935546875,-0.825927734375,-0.076171875,-16.75,36.5625,10.375,9.08,0.78,-3.6,moving,11
5.75,30294.762604147,26,3,1,0,3,2.0,-0.22,-1.48,-7.05,-0.97,2.2,-12.0,-52.625,28.0625,0.553466796875,-0.04388427734375,-0.82830810546875,-0.075439453125,-16.75,36.5625,10.375,9.05,0.74,-3.68,moving,11
5.76,30294.777640646,26,3,1,0,3,3.06,-0.27,-2.58,-5.9,-0.98,1.29,-24.875,-124.3125,39.3125,0.54461669921875,-0.0487060546875,-0.83392333984375,-0.07489013671875,-16.75,36.5625,10.375,8.97,0.7,-3.87,moving,11
5.77,30294.777640646,26,3,1,0,3,6.38,-0.85,-4.98,-2.44,-1.5,-0.75,-30.875,-227.1875,50.0625,0.52813720703125,-0.0552978515625,-0.8441162109375,-0.07373046875,-15.0,36.1875,11.5,8.82,0.64,-4.22,moving,11
5.78,30294.811282573,26,3,1,0,3,9.01,-0.92,-7.18,0.44,-1.49,-2.44,-21.0,-339.25,59.5625,0.50323486328125,-0.06280517578125,-0.85894775390625,-0.07086181640625,-15.0,36.1875,11.5,8.56,0.57,-4.74,moving,11
5.79,30294.811282573,26,3,1,0,3,12.78,-0.72,-10.12,4.6,-1.19,-4.74,17.875,-435.0625,61.5625,0.470703125,-0.06927490234375,-0.877197265625,-0.06439208984375,-15.0,36.1875,11.5,8.18,0.46,-5.37,moving,11
5.8,30294.822642925,26,3,1,0,3,26.69,2.42,-20.19,18.92,2.1,-14.22,81.3125,-424.6875,46.0,0.43865966796875,-0.07183837890625,-0.8941650390625,-0.05364990234375,-15.0,36.1875,11.5,7.76,0.32,-5.97,moving,11
5.81,30294.822642925,26,3,1,0,3,39.22,7.04,-26.75,31.76,6.85,-20.38,133.0625,-290.4375,-4.6875,0.4166259765625,-0.06768798828125,-0.90557861328125,-0.0416259765625,-15.0,36.1875,11.5,7.45,0.18,-6.36,moving,11
5.82,30294.836919007,26,3,1,0,3,39.22,9.78,-31.74,31.81,9.8,-25.32,122.5,-39.6875,50.3125,0.41436767578125,-0.0677490234375,-0.9071044921875,-0.03009033203125,-12.75,37.25,15.0,7.41,-0.01,-6.42,moving,11
5.83,30294.836919007,26,3,1,0,3,37.51,3.32,-27.08,29.9,3.36,-20.9,59.3125,178.4375,-34.75,0.42864990234375,-0.0623779296875,-0.90087890625,-0.0277099609375,-12.75,37.25,15.0,7.6,-0.03,-6.18,moving,11
5.84,30294.867794048,26,3,1,0,3,21.27,-3.58,-7.32,13.34,-3.79,-1.55,27.6875,313.4375,-201.4375,0.45269775390625,-0.04473876953125,-0.88983154296875,-0.03472900390625,-12.75,37.25,15.0,7.93,0.2,-5.76,moving,11
5.85,30294.867794048,26,3,1,0,3,14.48,-1.97,-6.22,6.12,-2.44,-1.12,4.3125,465.4375,-185.4375,0.48785400390625,-0.0286865234375,-0.87139892578125,-0.04351806640625,-12.75,37.25,15.0,8.36,0.46,-5.1,moving,11
5.86,30294.882481873,26,3,1,0,3,9.17,0.24,-5.01,0.42,-0.42,-0.63,-45.5,484.625,-107.875,0.52362060546875,-0.02056884765625,-0.85003662109375,-0.052734375,-12.75,37.25,15.0,8.75,0.66,-4.37,moving,11
5.87,30294.882481873,26,3,1,0,3,3.84,1.15,-2.88,-5.19,0.32,0.8,-109.875,429.0,-52.5625,0.5545654296875,-0.01971435546875,-0.82940673828125,-0.06402587890625,-9.0625,38.0625,13.5,9.04,0.82,-3.69,moving,11
5.88,30294.896978781,26,3,1,0,3,2.81,1.28,-2.54,-6.43,0.34,0.57,-155.875,342.5625,-13.3125,0.5787353515625,-0.02435302734375,-0.81158447265625,-0.07647705078125,-9.0625,38.0625,13.5,9.24,0.94,-3.12,moving,11
5.89,30294.896978781,26,3,1,0,3,2.49,-0.01,-2.86,-6.86,-1.03,-0.15,-144.4375,237.0,1.625,0.59503173828125,-0.0301513671875,-0.79840087890625,-0.08709716796875,-9.0625,38.0625,13.5,9.36,1.01,-2.71,moving,11
5.9,30294.926658794,26,3,1,0,3,1.75,-0.83,-2.06,-7.66,-1.86,0.46,-48.5625,107.75,4.4375,0.6024169921875,-0.03216552734375,-0.79241943359375,-0.090576171875,-9.0625,38.0625,13.5,9.41,1.02,-2.52,moving,11
5.91,30294.926658794,26,3,1,0,3,3.33,-0.71,-1.77,-6.09,-1.74,0.71,50.1875,29.625,-15.375,0.60443115234375,-0.02825927734375,-0.791259765625,-0.0880126953125,-9.0625,38.0625,13.5,9.42,1.03,-2.48,moving,11
5.92,30294.943687643,26,3,1,0,3,3.6,0.53,-1.82,-5.83,-0.5,0.64,100.3125,21.4375,-29.0625,0.60595703125,-0.0206298828125,-0.79095458984375,-0.08251953125,-16.0625,36.1875,10.0,9.43,1.03,-2.47,moving,11
5.93,30294.943687643,26,3,1,0,3,3.76,1.11,-1.69,-5.66,0.07,0.78,113.3125,6.1875,-30.5625,0.6063232421875,-0.012451171875,-0.79144287109375,-0.0762939453125,-16.0625,36.1875,10.0,9.43,1.03,-2.48,moving,11
5.94,30294.956781963,26,3,1,0,3,3.67,1.24,-1.92,-5.76,0.21,0.51,73.1875,32.8125,-17.3125,0.6085205078125,-0.00714111328125,-0.79022216796875,-0.07220458984375,-16.0625,36.1875,10.0,9.44,1.03,-2.44,moving,11
5.95,30294.956781963,26,3,1,0,3,1.93,0.63,-1.63,-7.53,-0.4,0.66,14.125,88.8125,-2.9375,0.6146240234375,-0.00567626953125,-0.78558349609375,-0.07147216796875,-16.0625,36.1875,10.0,9.47,1.03,-2.29,moving,11
5.96,30294.99005597,26,3,1,0,3,1.37,0.56,-1.65,-8.15,-0.47,0.42,-23.125,131.9375,5.0625,0.62359619140625,-0.00640869140625,-0.7783203125,-0.07281494140625,-16.0625,36.1875,10.0,9.52,1.03,-2.07,moving,11
5.97,30294.99005597,26,3,1,0,3,0.49,0.56,-1.66,-9.08,-0.47,0.15,-40.1875,145.5625,7.375,0.63348388671875,-0.0078125,-0.77008056640625,-0.074951171875,-17.875,36.1875,8.5,9.57,1.03,-1.82,moving,11
5.97,30294.996993551,26,3,1,0,3,0.49,0.56,-1.66,-9.08,-0.47,0.15,-40.1875,145.5625,7.375,0.63348388671875,-0.0078125,-0.77008056640625,-0.074951171875,-17.875,36.1875,8.5,9.57,1.03,-1.82,moving,11
5.98,30294.996993551,26,3,1,0,3,-0.32,0.0,-1.21,-9.94,-1.03,0.37,-47.4375,135.6875,6.25,0.64251708984375,-0.010009765625,-0.76220703125,-0.077880859375,-17.875,36.1875,8.5,9.62,1.03,-1.59,moving,11
5.99,30295.016924541,26,3,1,0,3,-0.84,-0.4,-1.35,-10.49,-1.45,0.0,-48.0625,127.0,4.625,0.65093994140625,-0.0120849609375,-0.75469970703125,-0.0809326171875,-17.875,36.1875,8.5,9.65,1.04,-1.36,moving,11
6.0,30295.016924541,26,3,1,0,3,-1.52,-0.3,-1.31,-11.2,-1.34,-0.14,-36.125,114.9375,4.0,0.658447265625,-0.01361083984375,-0.7479248046875,-0.08319091796875,-17.875,36.1875,8.5,9.68,1.04,-1.16,moving,11
6.01,30295.032877422,26,3,1,0,3,-1.98,-0.15,-1.38,-11.68,-1.19,-0.38,-19.3125,93.0625,8.0,0.66448974609375,-0.01458740234375,-0.742431640625,-0.0841064453125,-17.875,36.1875,8.5,9.69,1.03,-1.0,moving,11
6.02,30295.032877422,26,3,1,0,3,-2.31,-0.63,-1.61,-12.02,-1.65,-0.7,-13.375,56.375,12.5625,0.66827392578125,-0.01507568359375,-0.739013671875,-0.083740234375,-19.375,37.0,6.5625,9.71,1.01,-0.91,moving,11
6.03,30295.048242005,26,3,1,0,3,-2.43,-0.81,-1.72,-12.15,-1.8,-0.82,-21.0,1.9375,20.1875,0.66851806640625,-0.01763916015625,-0.73876953125,-0.08392333984375,-19.375,37.0,6.5625,9.71,0.98,-0.9,moving,11
6.04,30295.048242005,26,3,1,0,3,-2.39,-0.81,-1.92,-12.1,-1.75,-0.91,-36.1875,-71.5625,31.5625,0.66400146484375,-0.02227783203125,-0.74261474609375,-0.08428955078125,-19.375,37.0,6.5625,9.7,0.93,-1.01,moving,11
6.05,30295.076964946,26,3,1,0,3,-2.25,-0.84,-2.08,-11.93,-1.72,-0.81,-51.8125,-155.625,38.1875,0.654052734375,-0.02886962890625,-0.7510986328125,-0.08514404296875,-19.375,37.0,6.5625,9.68,0.88,-1.27,moving,11
6.06,30295.076964946,26,3,1,0,3,-0.36,-0.92,-2.82,-9.99,-1.74,-1.15,-59.125,-236.0,43.25,0.6385498046875,-0.036865234375,-0.76385498046875,-0.0859375,-19.375,37.0,6.5625,9.62,0.82,-1.66,moving,11
6.07,30295.100745138,26,3,1,0,3,0.92,-1.07,-3.2,-8.6,-1.83,-1.02,-56.125,-312.875,50.5,0.61767578125,-0.045654296875,-0.7803955078125,-0.0858154296875,-18.25,37.0,6.1875,9.53,0.76,-2.17,moving,11
6.08,30295.100745138,26,3,1,0,3,2.26,-1.41,-3.66,-7.1,-2.1,-0.86,-45.9375,-380.3125,58.75,0.5916748046875,-0.05499267578125,-0.79986572265625,-0.084228515625,-18.25,37.0,6.1875,9.37,0.68,-2.8,moving,11
6.09,30295.108175477,26,3,1,0,3,6.94,-1.89,-6.42,-2.19,-2.48,-2.91,-28.375,-442.125,66.5,0.56072998046875,-0.06427001953125,-0.82159423828125,-0.08056640625,-18.25,37.0,6.1875,9.13,0.59,-3.51,moving,11
6.1,30295.108175477,26,3,1,0,3,10.02,-2.14,-9.12,1.23,-2.61,-4.79,1.1875,-520.0625,74.6875,0.52337646484375,-0.0731201171875,-0.845703125,-0.0738525390625,-18.25,37.0,6.1875,8.78,0.47,-4.32,moving,11
6.11,30295.136582703,26,3,1,0,3,14.06,-2.23,-13.17,5.77,-2.54,-7.93,58.8125,-608.625,79.3125,0.4786376953125,-0.08013916015625,-0.87213134765625,-0.0618896484375,-18.25,37.0,6.1875,8.28,0.3,-5.23,moving,11
6.12,30295.136582703,26,3,1,0,3,19.34,-2.28,-18.04,11.68,-2.34,-11.93,154.125,-627.875,63.75,0.43157958984375,-0.081787109375,-0.8973388671875,-0.04302978515625,-15.0,37.0,11.5625,7.66,0.06,-6.11,moving,11
6.13,30295.151441427,26,3,1,0,3,34.54,-0.71,-29.49,27.4,-0.5,-22.77,243.8125,-467.375,2.6875,0.39630126953125,-0.07452392578125,-0.91485595703125,-0.02044677734375,-15.0,37.0,11.5625,7.14,-0.21,-6.71,moving,11
6.14,30295.151441427,26,3,1,0,3,39.22,1.1,-36.98,32.14,1.55,-30.21,312.4375,-54.8125,-98.625,0.3935546875,-0.055908203125,-0.9176025390625,0.00140380859375,-15.0,37.0,11.5625,7.08,-0.45,-6.76,moving,11
6.15,30295.165999451,26,3,1,0,3,39.2,4.99,-24.9,31.75,5.56,-18.55,275.125,309.8125,-155.6875,0.41937255859375,-0.0340576171875,-0.90704345703125,0.0166015625,-15.0,37.0,11.5625,7.44,-0.57,-6.35,moving,11
6.16,30295.165999451,26,3,1,0,3,37.9,9.94,-14.59,29.98,10.36,-8.83,-40.6875,441.5625,-80.25,0.45391845703125,-0.02978515625,-0.8905029296875,0.00909423828125,-15.0,37.0,11.5625,7.92,-0.42,-5.76,moving,11
6.17,30295.196462668,26,3,1,0,3,17.29,-3.62,-7.26,9.01,-3.51,-2.01,-179.4375,364.8125,-94.125,0.4815673828125,-0.02984619140625,-0.8758544921875,-0.009521484375,-6.875,39.1875,13.875,8.27,-0.11,-5.25,moving,11
6.18,30295.196462668,26,3,1,0,3,12.45,-6.18,-4.95,3.89,-6.24,-0.17,-161.1875,324.125,-24.5625,0.505615234375,-0.03448486328125,-0.86175537109375,-0.023681640625,-6.875,39.1875,13.875,8.56,0.05,-4.78,moving,11
6.19,30295.212239686,26,3,1,0,3,9.77,-5.21,-5.31,1.01,-5.3,-0.91,-204.0,255.0625,85.4375,0.52410888671875,-0.04931640625,-0.8494873046875,-0.0360107421875,-6.875,39.1875,13.875,8.76,0.09,-4.39,moving,11
6.2,30295.212239686,26,3,1,0,3,8.71,-0.99,-7.16,-0.1,-1.13,-2.88,-275.5,70.25,107.75,0.52825927734375,-0.06964111328125,-0.84466552734375,-0.0517578125,-6.875,39.1875,13.875,8.82,0.13,-4.28,moving,11
6.21,30295.231066468,26,3,1,0,3,8.74,-0.63,-6.45,0.01,-0.84,-1.99,-217.75,-126.4375,56.6875,0.5177001953125,-0.08441162109375,-0.84893798828125,-0.06439208984375,-6.875,39.1875,13.875,8.72,0.21,-4.46,moving,11
6.22,30295.231066468,26,3,1,0,3,6.91,0.83,-2.83,-1.65,0.6,1.91,37.5,-187.9375,-26.9375,0.50384521484375,-0.081787109375,-0.85772705078125,-0.06146240234375,-13.1875,39.5625,9.75,8.57,0.22,-4.75,moving,11
6.23,30295.24206659,26,3,1,0,3,6.71,2.36,-0.05,-1.81,2.12,4.77,268.8125,-46.125,-159.625,0.501220703125,-0.0582275390625,-0.86199951171875,-0.0479736328125,-13.1875,39.5625,9.75,8.52,0.23,-4.83,moving,11
6.23,30295.24206659,26,3,1,0,3,6.71,2.36,-0.05,-1.81,2.12,4.77,268.8125,-46.125,-159.625,0.501220703125,-0.0582275390625,-0.86199951171875,-0.0479736328125,-13.1875,39.5625,9.75,8.52,0.23,-4.83,moving,11
6.24,30295.256344097,26,3,1,0,3,8.0,3.44,-1.86,-0.71,3.1,2.59,267.125,252.9375,-211.5,0.52032470703125,-0.02960205078125,-0.85260009765625,-0.03839111328125,-13.1875,39.5625,9.75,8.72,0.34,-4.46,moving,11
6.25,30295.256344097,26,3,1,0,3,6.05,3.51,-1.18,-2.94,3.06,2.67,207.6875,399.9375,-166.375,0.549560546875,-0.00640869140625,-0.8348388671875,-0.031494140625,-13.1875,39.5625,9.75,9.0,0.44,-3.86,moving,11
6.26,30295.286784852,26,3,1,0,3,3.24,2.74,-1.22,-6.03,2.17,1.9,76.25,464.75,-108.5,0.5826416015625,0.00640869140625,-0.8121337890625,-0.0313720703125,-13.1875,39.5625,9.75,9.27,0.57,-3.12,moving,11
6.27,30295.286784852,26,3,1,0,3,1.13,1.47,-1.35,-8.36,0.77,0.98,-62.4375,476.0,-57.6875,0.61566162109375,0.00860595703125,-0.78704833984375,-0.0384521484375,-12.0625,38.375,11.5625,9.49,0.69,-2.34,moving,11
6.28,30295.301496318,26,3,1,0,3,-1.15,-1.25,-2.12,-10.8,-2.04,-0.54,-164.0,448.1875,-20.125,0.64593505859375,0.002685546875,-0.76171875,-0.0504150390625,-12.0625,38.375,11.5625,9.64,0.78,-1.57,moving,11
6.29,30295.301496318,26,3,1,0,3,-2.34,-1.67,-2.58,-12.07,-2.49,-1.68,-230.9375,379.8125,6.6875,0.67071533203125,-0.00909423828125,-0.73876953125,-0.06524658203125,-12.0625,38.375,11.5625,9.73,0.82,-0.89,moving,11
6.3,30295.316424134,26,3,1,0,3,-3.0,-1.63,-3.72,-12.76,-2.45,-3.35,-269.375,287.9375,20.875,0.68878173828125,-0.0245361328125,-0.719970703125,-0.08154296875,-12.0625,38.375,11.5625,9.76,0.82,-0.37,moving,11
6.31,30295.316424134,26,3,1,0,3,-2.79,-1.95,-6.14,-12.57,-2.74,-6.07,-249.25,153.1875,24.9375,0.69775390625,-0.03997802734375,-0.708740234375,-0.09600830078125,-12.0625,38.375,11.5625,9.77,0.78,-0.07,moving,11
6.32,30295.34699998,26,3,1,0,3,-2.42,-1.91,-6.05,-12.19,-2.69,-5.93,-137.25,-32.1875,5.375,0.6953125,-0.04888916015625,-0.70947265625,-0.10394287109375,-17.75,37.375,5.0625,9.77,0.78,-0.11,moving,11
6.33,30295.34699998,26,3,1,0,3,-1.84,-1.56,-4.61,-11.6,-2.37,-4.14,36.0625,-208.375,-19.6875,0.6822509765625,-0.04736328125,-0.722412109375,-0.10198974609375,-17.75,37.375,5.0625,9.76,0.81,-0.47,moving,11
6.34,30295.363830018,26,3,1,0,3,-1.16,-0.95,-3.2,-10.87,-1.79,-2.17,178.8125,-311.5,-31.3125,0.6627197265625,-0.0374755859375,-0.74237060546875,-0.09130859375,-17.75,37.375,5.0625,9.71,0.84,-1.02,moving,11
6.35,30295.363830018,26,3,1,0,3,1.06,0.6,-1.24,-8.55,-0.26,0.41,234.0625,-348.375,-51.9375,0.6400146484375,-0.02337646484375,-0.7640380859375,-0.07794189453125,-17.75,37.375,5.0625,9.62,0.87,-1.65,moving,11
6.36,30295.376749045,26,3,1,0,3,1.42,-0.41,-0.08,-8.08,-1.33,2.12,199.0,-311.8125,-64.5,0.61883544921875,-0.01007080078125,-0.78253173828125,-0.06756591796875,-17.75,37.375,5.0625,9.51,0.91,-2.2,moving,11
6.37,30295.376749045,26,3,1,0,3,1.14,0.66,-0.18,-8.27,-0.21,2.38,114.9375,-205.8125,-7.25,0.604736328125,-0.00457763671875,-0.794189453125,-0.0599365234375,-18.1875,37.0,5.875,9.42,0.87,-2.56,moving,11
6.38,30295.406245179,26,3,1,0,3,0.45,1.08,-0.35,-8.9,0.24,2.43,22.5625,-137.125,18.4375,0.59521484375,-0.00537109375,-0.801513671875,-0.05731201171875,-18.1875,37.0,5.875,9.36,0.83,-2.79,moving,11
6.39,30295.406245179,26,3,1,0,3,-0.22,0.86,0.29,-9.54,0.04,3.25,-32.0625,-107.125,21.9375,0.5877685546875,-0.00909423828125,-0.806884765625,-0.058349609375,-18.1875,37.0,5.875,9.31,0.81,-2.96,moving,11
6.4,30295.421922669,26,3,1,0,3,-0.79,0.64,0.74,-10.07,-0.15,3.8,-50.0,-63.0625,23.5625,0.5833740234375,-0.013671875,-0.809814453125,-0.06060791015625,-18.1875,37.0,5.875,9.28,0.8,-3.05,moving,11
6.41,30295.421922669,26,3,1,0,3,-0.8,0.41,0.65,-10.08,-0.38,3.71,-62.4375,-7.4375,23.4375,0.5828857421875,-0.0185546875,-0.80987548828125,-0.0638427734375,-18.1875,37.0,5.875,9.28,0.8,-3.06,moving,11
6.42,30295.436409079,26,3,1,0,3,0.1,0.36,-0.56,-9.19,-0.43,2.45,-81.6875,22.8125,26.4375,0.58441162109375,-0.02447509765625,-0.80816650390625,-0.06829833984375,-16.5,37.6875,8.1875,9.29,0.8,-3.01,moving,11
6.43,30295.436409079,26,3,1,0,3,0.62,0.28,-1.12,-8.67,-0.52,1.86,-102.6875,10.125,32.8125,0.5850830078125,-0.031982421875,-0.80694580078125,-0.07391357421875,-16.5,37.6875,8.1875,9.3,0.8,-2.98,moving,11
6.44,30295.467683371,26,3,1,0,3,1.27,-0.04,-1.86,-8.01,-0.85,1.17,-112.0625,-45.5625,35.25,0.58172607421875,-0.04046630859375,-0.8084716796875,-0.079833984375,-16.5,37.6875,8.1875,9.28,0.8,-3.04,moving,11
6.45,30295.467683371,26,3,1,0,3,1.92,-0.27,-2.49,-7.28,-1.07,0.77,-82.3125,-146.25,31.1875,0.57122802734375,-0.0478515625,-0.81512451171875,-0.08355712890625,-16.5,37.6875,8.1875,9.21,0.79,-3.26,moving,11
6.46,30295.481695822,26,3,1,0,3,4.53,-0.56,-4.38,-4.51,-1.34,-0.68,-16.0,-267.5625,19.25,0.5521240234375,-0.052001953125,-0.82806396484375,-0.08258056640625,-16.5,37.6875,8.1875,9.05,0.77,-3.69,moving,11
6.47,30295.481695822,26,3,1,0,3,7.25,-1.29,-6.27,-1.53,-2.02,-1.97,58.3125,-382.5625,8.125,0.52447509765625,-0.052490234375,-0.84637451171875,-0.076171875,-16.5,36.5625,9.75,8.78,0.72,-4.29,moving,11
6.48,30295.496943543,26,3,1,0,3,10.96,-2.0,-9.3,2.56,-2.61,-4.28,117.8125,-475.5,13.9375,0.489501953125,-0.05126953125,-0.86810302734375,-0.06463623046875,-16.5,36.5625,9.75,8.39,0.6,-5.02,moving,11
6.49,30295.496943543,26,3,1,0,3,23.8,-0.93,-19.81,15.89,-1.36,-14.03,157.125,-519.8125,23.625,0.450439453125,-0.0491943359375,-0.89007568359375,-0.04931640625,-16.5,36.5625,9.75,7.91,0.42,-5.77,moving,11
6.49,30295.512467347,26,3,1,0,3,23.8,-0.93,-19.81,15.89,-1.36,-14.03,157.125,-519.8125,23.625,0.450439453125,-0.0491943359375,-0.89007568359375,-0.04931640625,-16.5,36.5625,9.75,7.91,0.42,-5.77,moving,11
6.5,30295.512467347,26,3,1,0,3,36.07,0.35,-31.54,28.66,0.1,-25.13,177.125,-467.125,-9.875,0.4144287109375,-0.04345703125,-0.90838623046875,-0.03387451171875,-16.5,36.5625,9.75,7.41,0.25,-6.41,moving,11
6.51,30295.526675029,26,3,1,0,3,39.22,0.89,-39.22,32.09,0.8,-32.49,261.4375,-246.0625,-113.375,0.3953857421875,-0.0257568359375,-0.91802978515625,-0.016357421875,-16.5,36.5625,9.75,7.12,0.09,-6.73,moving,11
6.52,30295.526675029,26,3,1,0,3,39.17,1.9,-31.04,31.83,1.95,-24.54,343.625,187.5,-198.6875,0.4105224609375,0.00225830078125,-0.911865234375,0.00390625,-12.75,37.25,14.25,7.34,-0.05,-6.5,moving,11
6.53,30295.556731385,26,3,1,0,3,28.48,7.52,-14.05,20.6,7.5,-8.21,48.75,497.5,-92.625,0.44964599609375,0.01123046875,-0.89312744140625,0.00457763671875,-12.75,37.25,14.25,7.87,0.01,-5.84,moving,11
6.54,30295.556731385,26,3,1,0,3,17.77,1.5,-10.2,9.54,1.23,-4.89,-139.875,373.75,-84.625,0.47857666015625,0.01214599609375,-0.8779296875,-0.00927734375,-12.75,37.25,14.25,8.23,0.27,-5.31,moving,11
6.55,30295.571907533,26,3,1,0,3,12.78,-1.48,-8.1,4.37,-1.95,-3.08,-124.6875,194.1875,-54.875,0.493408203125,0.01129150390625,-0.86944580078125,-0.0208740234375,-12.75,37.25,14.25,8.4,0.46,-5.02,moving,11
6.56,30295.571907533,26,3,1,0,3,11.41,-1.44,-9.89,2.94,-1.94,-4.97,-109.0625,63.375,38.25,0.49835205078125,0.0037841796875,-0.86651611328125,-0.02740478515625,-12.75,37.25,14.25,8.46,0.5,-4.92,moving,11
6.57,30295.586519308,26,3,1,0,3,13.72,3.48,-12.25,5.36,2.99,-7.15,-146.0625,-133.75,98.125,0.4884033203125,-0.01025390625,-0.87188720703125,-0.03424072265625,-13.1875,38.75,7.75,8.35,0.48,-5.1,moving,11
6.58,30295.586519308,26,3,1,0,3,15.18,4.0,-9.73,7.07,3.5,-4.24,-187.0625,-280.4375,114.8125,0.46697998046875,-0.02777099609375,-0.88275146484375,-0.04327392578125,-13.1875,38.75,7.75,8.1,0.49,-5.49,moving,11
6.59,30295.617748923,26,3,1,0,3,15.58,2.29,-6.62,7.69,1.76,-0.82,-190.8125,-232.8125,106.9375,0.44879150390625,-0.044677734375,-0.89093017578125,-0.05303955078125,-13.1875,38.75,7.75,7.88,0.53,-5.8,moving,11
6.6,30295.617748923,26,3,1,0,3,14.42,-0.81,-0.51,6.53,-1.39,5.28,-93.875,-6.5625,36.8125,0.44805908203125,-0.05126953125,-0.890625,-0.058837890625,-13.1875,38.75,7.75,7.88,0.57,-5.8,moving,11
6.61,30295.632204733,26,3,1,0,3,10.89,-0.61,0.67,2.78,-1.26,6.13,34.375,244.75,-79.5625,0.4666748046875,-0.04241943359375,-0.88134765625,-0.06036376953125,-13.1875,38.75,7.75,8.11,0.65,-5.46,moving,11
6.62,30295.632204733,26,3,1,0,3,6.53,0.31,1.02,-1.93,-0.47,5.91,63.6875,404.6875,-131.125,0.4969482421875,-0.02764892578125,-0.8651123046875,-0.062255859375,-12.75,37.25,13.1875,8.46,0.78,-4.88,moving,11
6.63,30295.646367087,26,3,1,0,3,3.05,1.46,0.74,-5.8,0.53,4.83,77.75,533.625,-135.9375,0.5360107421875,-0.0111083984375,-0.84173583984375,-0.06353759765625,-12.75,37.25,13.1875,8.86,0.93,-4.09,moving,11
6.64,30295.646367087,26,3,1,0,3,-0.58,1.22,-2.02,-9.83,0.17,1.08,59.0,632.0625,-93.5,0.5810546875,0.0020751953125,-0.81134033203125,-0.0640869140625,-12.75,37.25,13.1875,9.24,1.04,-3.1,moving,11
6.65,30295.677083436,26,3,1,0,3,-2.06,1.47,-3.26,-11.58,0.33,-1.19,-51.0625,631.0,-40.8125,0.62451171875,0.005859375,-0.77789306640625,-0.06951904296875,-12.75,37.25,13.1875,9.52,1.13,-2.06,moving,11
6.66,30295.677083436,26,3,1,0,3,-3.21,1.74,-3.62,-12.87,0.56,-2.45,-189.75,512.1875,0.0,0.6585693359375,-0.0013427734375,-0.748046875,-0.08203125,-12.75,37.25,13.1875,9.66,1.18,-1.16,moving,11
6.67,30295.693100648,26,3,1,0,3,-3.49,-0.17,-3.95,-13.2,-1.38,-3.41,-284.75,339.1875,12.1875,0.68023681640625,-0.01605224609375,-0.7259521484375,-0.09991455078125,-16.0625,37.25,9.25,9.71,1.2,-0.53,moving,11
6.68,30295.693100648,26,3,1,0,3,-4.22,-0.98,-3.98,-13.95,-2.16,-3.77,-293.4375,152.6875,28.0625,0.689453125,-0.033935546875,-0.71405029296875,-0.116943359375,-16.0625,37.25,9.25,9.73,1.17,-0.21,moving,11
6.69,30295.707145326,26,3,1,0,3,-4.09,-1.87,-4.07,-13.83,-3.0,-3.85,-228.9375,-30.8125,38.3125,0.68707275390625,-0.05035400390625,-0.71331787109375,-0.1287841796875,-16.0625,37.25,9.25,9.73,1.12,-0.22,moving,11
6.7,30295.707145326,26,3,1,0,3,-3.11,-2.76,-4.17,-12.84,-3.86,-3.64,-130.8125,-193.3125,22.9375,0.674560546875,-0.061767578125,-0.72320556640625,-0.13470458984375,-16.0625,37.25,9.25,9.73,1.09,-0.52,moving,11
6.71,30295.736998028,26,3,1,0,3,-1.04,-3.39,-3.47,-10.73,-4.47,-2.41,-25.8125,-315.625,4.75,0.654296875,-0.06732177734375,-0.74114990234375,-0.13427734375,-16.0625,37.25,9.25,9.68,1.08,-1.05,moving,11
6.72,30295.736998028,26,3,1,0,3,-0.18,-2.2,-3.16,-9.78,-3.3,-1.48,54.0,-365.75,-12.875,0.63043212890625,-0.067626953125,-0.76239013671875,-0.12933349609375,-19.0625,36.1875,8.6875,9.59,1.09,-1.68,moving,11
6.73,30295.752081198,26,3,1,0,3,0.55,-0.9,-2.65,-8.92,-2.01,-0.37,106.0,-345.5625,-29.4375,0.607421875,-0.063720703125,-0.78240966796875,-0.12176513671875,-19.0625,36.1875,8.6875,9.47,1.1,-2.27,moving,11
6.74,30295.752081198,26,3,1,0,3,0.99,0.13,-1.98,-8.35,-0.98,0.75,123.6875,-268.25,-40.75,0.58917236328125,-0.05718994140625,-0.79791259765625,-0.11395263671875,-19.0625,36.1875,8.6875,9.34,1.12,-2.74,moving,11
6.74,30295.76699701,26,3,1,0,3,0.99,0.13,-1.98,-8.35,-0.98,0.75,123.6875,-268.25,-40.75,0.58917236328125,-0.05718994140625,-0.79791259765625,-0.11395263671875,-19.0625,36.1875,8.6875,9.34,1.12,-2.74,moving,11
6.75,30295.76699701,26,3,1,0,3,1.09,1.14,-0.88,-8.16,0.02,2.14,114.375,-157.8125,-37.625,0.5782470703125,-0.05029296875,-0.8072509765625,-0.10711669921875,-19.0625,36.1875,8.6875,9.26,1.12,-3.02,moving,11
6.76,30295.781758119,26,3,1,0,3,0.71,1.05,-0.48,-8.5,-0.06,2.64,85.625,-53.1875,-24.8125,0.5745849609375,-0.044677734375,-0.810791015625,-0.10211181640625,-19.0625,36.1875,8.6875,9.22,1.12,-3.12,moving,11
6.77,30295.781758119,26,3,1,0,3,0.32,0.83,-0.23,-8.9,-0.26,2.87,50.625,16.375,-8.3125,0.5758056640625,-0.04144287109375,-0.81048583984375,-0.0989990234375,-16.5,36.5625,12.875,9.23,1.1,-3.11,moving,11
6.78,30295.7981037,26,3,1,0,3,-0.46,0.25,0.09,-9.72,-0.83,3.14,17.9375,42.75,5.5625,0.57891845703125,-0.04052734375,-0.8084716796875,-0.09759521484375,-16.5,36.5625,12.875,9.25,1.08,-3.04,moving,11
6.79,30295.7981037,26,3,1,0,3,-0.64,-0.05,0.19,-9.92,-1.11,3.17,-7.5,37.125,16.0,0.58160400390625,-0.041748046875,-0.8065185546875,-0.097412109375,-16.5,36.5625,12.875,9.28,1.06,-2.98,moving,11
6.8,30295.831698996,26,3,1,0,3,-0.61,-0.22,0.16,-9.9,-1.27,3.12,-26.125,8.8125,23.5625,0.58233642578125,-0.044677734375,-0.8057861328125,-0.09808349609375,-16.5,36.5625,12.875,9.28,1.04,-2.96,moving,11
6.81,30295.831698996,26,3,1,0,3,-0.47,-0.33,0.06,-9.74,-1.34,3.08,-39.25,-36.625,30.25,0.579833984375,-0.049072265625,-0.80718994140625,-0.09918212890625,-16.5,36.5625,12.875,9.27,1.01,-3.02,moving,11
6.82,30295.842264711,26,3,1,0,3,0.67,-0.33,-0.68,-8.56,-1.3,2.47,-49.3125,-92.75,37.25,0.57330322265625,-0.05499267578125,-0.811279296875,-0.100341796875,-16.5,37.0,12.0,9.23,0.97,-3.16,moving,11
6.83,30295.842264711,26,3,1,0,3,1.42,-0.33,-1.13,-7.72,-1.28,2.25,-56.875,-153.5625,43.1875,0.5625,-0.062255859375,-0.81817626953125,-0.1014404296875,-16.5,37.0,12.0,9.15,0.94,-3.39,moving,11
6.84,30295.857365134,26,3,1,0,3,2.42,-0.59,-1.78,-6.6,-1.5,1.94,-59.8125,-213.0625,45.4375,0.54718017578125,-0.0703125,-0.8277587890625,-0.102294921875,-16.5,37.0,12.0,9.02,0.9,-3.72,moving,11
6.85,30295.857365134,26,3,1,0,3,3.8,-0.93,-2.61,-5.04,-1.81,1.52,-50.3125,-269.0625,44.0625,0.5277099609375,-0.07830810546875,-0.83966064453125,-0.1021728515625,-16.5,37.0,12.0,8.84,0.87,-4.14,moving,11
6.86,30295.888379416,26,3,1,0,3,7.83,-1.02,-5.6,-0.77,-1.84,-0.98,-21.125,-317.3125,43.25,0.50445556640625,-0.085205078125,-0.85345458984375,-0.0994873046875,-16.5,37.0,12.0,8.61,0.82,-4.62,moving,11
6.87,30295.888379416,26,3,1,0,3,10.6,-0.64,-7.62,2.28,-1.39,-2.49,26.5,-340.8125,35.8125,0.4793701171875,-0.08966064453125,-0.8680419921875,-0.0933837890625,-15.0,36.5625,14.6875,8.32,0.74,-5.12,moving,11
6.88,30295.902665386,26,3,1,0,3,14.88,-0.41,-10.58,6.84,-1.06,-4.99,83.5,-312.0,13.9375,0.456298828125,-0.0897216796875,-0.88128662109375,-0.083984375,-15.0,36.5625,14.6875,8.03,0.64,-5.58,moving,11
6.89,30295.902665386,26,3,1,0,3,33.16,-0.34,-26.9,25.38,-0.86,-20.96,140.5625,-244.1875,-9.625,0.4383544921875,-0.08514404296875,-0.89190673828125,-0.07159423828125,-15.0,36.5625,14.6875,7.78,0.52,-5.93,moving,11
6.9,30295.922141135,26,3,1,0,3,39.22,1.44,-34.59,31.65,1.1,-28.37,217.5625,-202.125,-34.9375,0.423828125,-0.07537841796875,-0.90093994140625,-0.05450439453125,-15.0,36.5625,14.6875,7.57,0.33,-6.22,moving,11
6.91,30295.922141135,26,3,1,0,3,39.21,4.5,-27.26,31.72,4.42,-20.92,254.25,-75.0625,-21.5,0.41937255859375,-0.06463623046875,-0.90484619140625,-0.0347900390625,-15.0,36.5625,14.6875,7.48,0.08,-6.33,moving,11
6.92,30295.947890118,26,3,1,0,3,37.89,3.13,-23.09,30.22,3.14,-16.99,89.375,170.75,-0.9375,0.43328857421875,-0.06072998046875,-0.89874267578125,-0.0286865234375,-9.875,36.1875,18.5,7.67,-0.01,-6.1,moving,11
6.93,30295.947890118,26,3,1,0,3,21.55,-3.93,-12.94,13.65,-4.05,-7.13,19.75,223.1875,-116.6875,0.450439453125,-0.05029296875,-0.89080810546875,-0.03271484375,-9.875,36.1875,18.5,7.9,0.12,-5.8,moving,11
6.94,30295.962771424,26,3,1,0,3,17.66,-3.48,-13.58,9.55,-3.75,-8.07,16.125,211.8125,-113.25,0.46649169921875,-0.04022216796875,-0.8828125,-0.03680419921875,-9.875,36.1875,18.5,8.1,0.26,-5.51,moving,11
6.95,30295.962771424,26,3,1,0,3,16.15,-0.94,-15.47,7.92,-1.25,-10.15,-30.75,129.625,-12.1875,0.476318359375,-0.0401611328125,-0.87744140625,-0.04010009765625,-9.875,36.1875,18.5,8.22,0.31,-5.32,moving,11
6.96,30295.977921083,26,3,1,0,3,15.46,2.05,-15.78,7.26,1.77,-10.41,-94.0,-32.5,79.9375,0.47369384765625,-0.05029296875,-0.878173828125,-0.04388427734375,-9.875,36.1875,18.5,8.2,0.28,-5.36,moving,11
6.97,30295.977921083,26,3,1,0,3,16.97,4.96,-9.63,8.9,4.69,-4.06,-134.75,-144.8125,104.0,0.4622802734375,-0.0643310546875,-0.88299560546875,-0.04925537109375,-10.5625,39.1875,12.375,8.06,0.26,-5.56,moving,11
6.98,30296.006766582,26,3,1,0,3,18.22,4.34,-4.41,10.23,4.04,1.25,-154.9375,-75.125,83.8125,0.4559326171875,-0.077392578125,-0.88482666015625,-0.057373046875,-10.5625,39.1875,12.375,7.99,0.3,-5.66,moving,11
6.99,30296.006766582,26,3,1,0,3,17.18,2.83,-2.18,9.05,2.44,3.28,-158.375,129.9375,48.375,0.46502685546875,-0.08673095703125,-0.87835693359375,-0.0684814453125,-10.5625,39.1875,12.375,8.12,0.38,-5.47,moving,11
7.0,30296.02178941,26,3,1,0,3,7.89,-0.15,0.19,-0.5,-0.64,5.23,-79.1875,295.4375,-18.9375,0.48675537109375,-0.08673095703125,-0.86578369140625,-0.07757568359375,-10.5625,39.1875,12.375,8.39,0.48,-5.04,moving,11
7.0,30296.02178941,26,3,1,0,3,7.89,-0.15,0.19,-0.5,-0.64,5.23,-79.1875,295.4375,-18.9375,0.48675537109375,-0.08673095703125,-0.86578369140625,-0.07757568359375,-10.5625,39.1875,12.375,8.39,0.48,-5.04,moving,11
7.01,30296.03643447,26,3,1,0,3,3.76,0.06,1.52,-4.95,-0.55,5.97,19.8125,400.375,-98.25,0.51611328125,-0.07568359375,-0.84912109375,-0.08319091796875,-10.5625,39.1875,12.375,8.71,0.61,-4.44,moving,11
7.02,30296.03643447,26,3,1,0,3,1.44,0.4,1.09,-7.63,-0.37,4.73,66.8125,526.1875,-134.125,0.55389404296875,-0.05889892578125,-0.82586669921875,-0.087646484375,-9.0625,38.0625,15.5,9.07,0.78,-3.63,moving,11
7.03,30296.052167828,26,3,1,0,3,0.41,1.27,-0.78,-8.98,0.35,1.82,75.5,642.1875,-115.4375,0.59869384765625,-0.04193115234375,-0.794677734375,-0.0909423828125,-9.0625,38.0625,15.5,9.4,0.92,-2.61,moving,11
7.04,30296.052167828,26,3,1,0,3,-1.83,2.68,-4.06,-11.46,1.65,-2.53,31.8125,658.375,-71.0625,0.642822265625,-0.03009033203125,-0.75958251953125,-0.09466552734375,-9.0625,38.0625,15.5,9.63,1.03,-1.52,moving,11
7.05,30296.081872824,26,3,1,0,3,-3.26,2.42,-3.8,-12.99,1.33,-3.25,-58.875,568.1875,-28.0625,0.67919921875,-0.02679443359375,-0.72637939453125,-0.1015625,-9.0625,38.0625,15.5,9.72,1.08,-0.55,moving,11
7.06,30296.081872824,26,3,1,0,3,-3.75,1.69,-3.94,-13.49,0.61,-4.13,-154.75,424.375,8.9375,0.70526123046875,-0.03271484375,-0.6993408203125,-0.1116943359375,-9.0625,38.0625,15.5,9.74,1.07,0.19,moving,11
7.07,30296.097551617,26,3,1,0,3,-4.04,-0.75,-3.54,-13.78,-1.77,-4.15,-209.1875,219.375,28.9375,0.718017578125,-0.04522705078125,-0.68353271484375,-0.123291015625,-16.5,36.5625,9.0,9.73,1.01,0.6,moving,11
7.08,30296.097551617,26,3,1,0,3,-3.5,-1.98,-2.91,-13.25,-2.93,-3.51,-201.125,-21.5,25.25,0.71612548828125,-0.05950927734375,-0.6824951171875,-0.13360595703125,-16.5,36.5625,9.0,9.74,0.95,0.6,moving,11
7.09,30296.111599265,26,3,1,0,3,-2.42,-2.82,-2.32,-12.18,-3.75,-2.53,-140.75,-246.4375,11.625,0.70062255859375,-0.0718994140625,-0.69598388671875,-0.139892578125,-16.5,36.5625,9.0,9.76,0.92,0.2,moving,11
7.1,30296.111599265,26,3,1,0,3,-1.13,-3.06,-1.81,-10.89,-3.98,-1.3,-50.5,-422.5,4.5625,0.6741943359375,-0.080322265625,-0.720703125,-0.13995361328125,-16.5,36.5625,9.0,9.75,0.91,-0.5,moving,11
7.11,30296.126721498,26,3,1,0,3,0.29,-1.07,-0.86,-9.36,-1.98,0.53,41.8125,-521.125,2.375,0.64111328125,-0.08428955078125,-0.7510986328125,-0.13336181640625,-16.5,36.5625,9.0,9.66,0.9,-1.39,moving,11
7.12,30296.126721498,26,3,1,0,3,1.13,0.06,-0.54,-8.36,-0.82,1.72,100.375,-514.6875,-13.6875,0.6072998046875,-0.08367919921875,-0.78033447265625,-0.1236572265625,-18.6875,36.1875,9.375,9.49,0.89,-2.27,moving,11
7.13,30296.157144065,26,3,1,0,3,2.0,0.75,-0.28,-7.3,-0.14,2.66,106.75,-400.6875,-31.9375,0.580078125,-0.08013916015625,-0.80242919921875,-0.1151123046875,-18.6875,36.1875,9.375,9.3,0.89,-2.94,moving,11
7.14,30296.157144065,26,3,1,0,3,2.3,1.21,0.01,-6.88,0.31,3.31,73.75,-208.25,-24.5,0.56561279296875,-0.0767822265625,-0.813720703125,-0.10968017578125,-18.6875,36.1875,9.375,9.19,0.89,-3.29,moving,11
7.15,30296.172615378,26,3,1,0,3,0.93,0.9,0.43,-8.25,0.02,3.73,22.0625,-4.9375,1.75,0.5654296875,-0.07586669921875,-0.814208984375,-0.10797119140625,-18.6875,36.1875,9.375,9.18,0.88,-3.3,moving,11
7.16,30296.172615378,26,3,1,0,3,0.07,0.58,0.28,-9.18,-0.27,3.38,-29.625,125.75,24.3125,0.5743408203125,-0.07781982421875,-0.8074951171875,-0.1097412109375,-18.6875,36.1875,9.375,9.26,0.86,-3.1,moving,11
7.17,30296.187327536,26,3,1,0,3,-0.76,0.21,0.11,-10.12,-0.62,2.92,-65.6875,170.1875,35.9375,0.58612060546875,-0.08203125,-0.79803466796875,-0.11370849609375,-14.5625,37.0,13.5625,9.35,0.83,-2.81,moving,11
7.18,30296.187327536,26,3,1,0,3,-1.76,-0.95,-0.24,-11.2,-1.77,2.31,-80.9375,152.5625,37.4375,0.596435546875,-0.0872802734375,-0.7890625,-0.11846923828125,-14.5625,37.0,13.5625,9.43,0.81,-2.55,moving,11
7.19,30296.217983908,26,3,1,0,3,-1.8,-1.35,-0.47,-11.28,-2.15,1.9,-78.875,96.5,33.0,0.60272216796875,-0.0926513671875,-0.782958984375,-0.1229248046875,-14.5625,37.0,13.5625,9.47,0.79,-2.38,moving,11
7.2,30296.217983908,26,3,1,0,3,-1.63,-1.46,-0.78,-11.12,-2.23,1.55,-65.75,20.9375,27.875,0.60394287109375,-0.0977783203125,-0.7808837890625,-0.1260986328125,-14.5625,37.0,13.5625,9.49,0.77,-2.34,moving,11
7.21,30296.232775901,26,3,1,0,3,-1.31,-1.23,-1.12,-10.78,-1.98,1.3,-45.9375,-59.8125,23.5625,0.59967041015625,-0.10247802734375,-0.78338623046875,-0.12750244140625,-14.5625,37.0,13.5625,9.46,0.75,-2.43,moving,11
7.22,30296.232775901,26,3,1,0,3,-0.12,-0.78,-1.93,-9.53,-1.51,0.71,-23.75,-134.8125,19.375,0.59039306640625,-0.10650634765625,-0.7899169921875,-0.12689208984375,-14.25,37.0,13.25,9.41,0.73,-2.65,moving,11
7.23,30296.246918397,26,3,1,0,3,0.91,-0.73,-2.66,-8.4,-1.44,0.3,-5.375,-196.6875,16.25,0.57684326171875,-0.110107421875,-0.79974365234375,-0.12457275390625,-14.25,37.0,13.25,9.31,0.7,-2.97,moving,11
7.24,30296.246918397,26,3,1,0,3,2.3,-0.91,-3.6,-6.87,-1.59,-0.22,5.75,-246.1875,14.75,0.55975341796875,-0.11346435546875,-0.8118896484375,-0.1209716796875,-14.25,37.0,13.25,9.18,0.68,-3.37,moving,11
7.25,30296.277387269,26,3,1,0,3,4.17,-1.28,-4.96,-4.83,-1.92,-1.13,14.9375,-288.5625,16.9375,0.5394287109375,-0.116943359375,-0.82574462890625,-0.1162109375,-14.25,37.0,13.25,9.0,0.64,-3.83,moving,11
7.26,30296.277387269,26,3,1,0,3,9.62,-2.39,-9.75,0.85,-2.98,-5.39,35.1875,-336.0625,21.0,0.51556396484375,-0.12017822265625,-0.84130859375,-0.10919189453125,-14.25,37.0,13.25,8.76,0.58,-4.35,moving,11
7.27,30296.282693788,26,3,1,0,3,9.62,-2.39,-9.75,0.85,-2.98,-5.39,35.1875,-336.0625,21.0,0.51556396484375,-0.12017822265625,-0.84130859375,-0.10919189453125,-14.25,37.0,13.25,8.76,0.58,-4.35,moving,11
7.27,30296.282693788,26,3,1,0,3,13.26,-3.06,-13.35,4.82,-3.55,-8.39,78.75,-397.75,21.3125,0.487060546875,-0.1219482421875,-0.85919189453125,-0.09820556640625,-13.5625,37.0,17.0625,8.44,0.49,-4.96,moving,11
7.28,30296.306930645,26,3,1,0,3,17.7,-3.5,-17.19,9.66,-3.85,-11.58,147.1875,-439.25,3.0,0.455322265625,-0.11956787109375,-0.87841796875,-0.082275390625,-13.5625,37.0,17.0625,8.03,0.34,-5.6,moving,11
7.29,30296.306930645,26,3,1,0,3,34.56,-3.28,-31.08,26.92,-3.47,-24.93,224.0625,-388.6875,-46.5625,0.42718505859375,-0.10980224609375,-0.895263671875,-0.0628662109375,-13.5625,37.0,17.0625,7.63,0.18,-6.15,moving,11
7.3,30296.322264141,26,3,1,0,3,39.22,-0.02,-29.98,31.81,-0.02,-23.55,312.9375,-207.9375,-123.125,0.4129638671875,-0.08966064453125,-0.9053955078125,-0.04095458984375,-13.5625,37.0,17.0625,7.4,0.0,-6.42,moving,11
7.31,30296.322264141,26,3,1,0,3,39.22,13.9,-18.51,31.63,14.08,-12.3,254.9375,166.375,-75.875,0.42767333984375,-0.0738525390625,-0.90057373046875,-0.02484130859375,-13.5625,37.0,17.0625,7.58,-0.18,-6.2,moving,11
7.32,30296.352214052,26,3,1,0,3,33.27,9.5,-22.29,25.33,9.67,-16.55,-32.625,339.8125,15.125,0.45391845703125,-0.07550048828125,-0.8873291015625,-0.02899169921875,-6.875,37.6875,17.0,7.94,-0.16,-5.74,moving,11
7.33,30296.352214052,26,3,1,0,3,19.99,-3.41,-12.58,11.92,-3.53,-7.01,-111.4375,126.125,-128.4375,0.4625244140625,-0.06964111328125,-0.8828125,-0.04351806640625,-6.875,37.6875,17.0,8.06,0.12,-5.57,moving,11
7.34,30296.367598532,26,3,1,0,3,17.15,-3.16,-13.66,9.02,-3.5,-8.18,-105.0625,61.9375,-80.1875,0.46630859375,-0.06744384765625,-0.88031005859375,-0.05523681640625,-6.875,37.6875,17.0,8.12,0.33,-5.48,moving,11
7.35,30296.367598532,26,3,1,0,3,14.65,-2.13,-14.81,6.49,-2.46,-9.38,-111.875,33.375,80.1875,0.46856689453125,-0.0780029296875,-0.87786865234375,-0.06072998046875,-6.875,37.6875,17.0,8.16,0.32,-5.42,moving,11
7.36,30296.382012025,26,3,1,0,3,15.68,5.92,-16.31,7.59,5.6,-10.78,-159.3125,-80.125,112.875,0.4617919921875,-0.09356689453125,-0.87939453125,-0.0677490234375,-6.875,37.6875,17.0,8.08,0.32,-5.53,moving,11
7.37,30296.382012025,26,3,1,0,3,17.69,1.24,-6.35,9.7,0.8,-0.68,-148.125,-101.625,20.0,0.45281982421875,-0.1016845703125,-0.88238525390625,-0.07745361328125,-10.25,38.0625,13.5,7.99,0.43,-5.66,moving,11
7.38,30296.396351706,26,3,1,0,3,20.25,-0.51,-1.31,12.16,-1.03,4.19,-46.375,108.75,-29.9375,0.4605712890625,-0.1004638671875,-0.87799072265625,-0.0831298828125,-10.25,38.0625,13.5,8.09,0.52,-5.51,moving,11
7.39,30296.396351706,26,3,1,0,3,17.41,0.0,-1.92,9.03,-0.63,3.12,34.5625,323.875,-92.4375,0.4847412109375,-0.089599609375,-0.86566162109375,-0.0870361328125,-10.25,38.0625,13.5,8.38,0.62,-5.04,moving,11
7.4,30296.427218731,26,3,1,0,3,6.21,1.54,-1.35,-2.42,0.77,3.22,41.0625,321.0625,-121.9375,0.5081787109375,-0.076171875,-0.85296630859375,-0.091552734375,-10.25,38.0625,13.5,8.63,0.77,-4.57,moving,11
7.41,30296.427218731,26,3,1,0,3,2.6,0.59,-1.51,-6.24,-0.33,2.6,64.125,307.0,-140.6875,0.530029296875,-0.0604248046875,-0.8404541015625,-0.094970703125,-10.25,38.0625,13.5,8.84,0.93,-4.11,moving,11
7.42,30296.445314556,26,3,1,0,3,-0.18,0.48,-1.23,-9.24,-0.55,2.36,87.9375,338.9375,-105.6875,0.55419921875,-0.0457763671875,-0.82568359375,-0.09515380859375,-8.75,36.1875,16.5625,9.05,1.04,-3.6,moving,11
7.43,30296.445314556,26,3,1,0,3,-0.94,0.45,-1.45,-10.19,-0.68,1.61,50.0,339.875,-79.875,0.57794189453125,-0.0347900390625,-0.8095703125,-0.09674072265625,-8.75,36.1875,16.5625,9.24,1.14,-3.07,moving,11
7.44,30296.459103171,26,3,1,0,3,-0.22,-0.53,-2.28,-9.62,-1.79,0.19,-69.4375,355.875,-57.0625,0.60205078125,-0.03118896484375,-0.79083251953125,-0.10552978515625,-8.75,36.1875,16.5625,9.4,1.26,-2.47,moving,11
7.45,30296.459103171,26,3,1,0,3,-1.18,0.33,-1.81,-10.73,-1.0,0.0,-188.6875,369.1875,5.0625,0.62664794921875,-0.03802490234375,-0.76922607421875,-0.11920166015625,-8.75,36.1875,16.5625,9.54,1.33,-1.82,moving,11
7.46,30296.487362123,26,3,1,0,3,-1.62,1.09,-2.14,-11.27,-0.23,-0.99,-278.875,362.75,46.3125,0.64996337890625,-0.0526123046875,-0.7457275390625,-0.136474609375,-8.75,36.1875,16.5625,9.64,1.32,-1.15,moving,11
7.47,30296.487362123,26,3,1,0,3,-3.04,-0.72,-2.97,-12.74,-2.02,-2.39,-292.8125,303.6875,45.6875,0.66845703125,-0.0684814453125,-0.724365234375,-0.1541748046875,-16.75,37.0,10.875,9.7,1.29,-0.57,moving,11
7.48,30296.501839947,26,3,1,0,3,-3.94,-1.35,-2.86,-13.66,-2.6,-2.65,-200.625,190.5,37.125,0.6795654296875,-0.0799560546875,-0.71014404296875,-0.165771484375,-16.75,37.0,10.875,9.72,1.24,-0.2,moving,11
7.49,30296.501839947,26,3,1,0,3,-3.91,-2.05,-2.5,-13.64,-3.28,-2.41,-57.9375,66.0625,13.125,0.68341064453125,-0.083251953125,-0.70526123046875,-0.1690673828125,-16.75,37.0,10.875,9.72,1.22,-0.08,moving,11
7.5,30296.517029807,26,3,1,0,3,-3.1,-2.22,-1.99,-12.82,-3.45,-1.8,73.4375,-47.9375,-7.75,0.68084716796875,-0.0791015625,-0.70928955078125,-0.16461181640625,-16.75,37.0,10.875,9.72,1.23,-0.18,moving,11
7.51,30296.517029807,26,3,1,0,3,-2.0,-0.82,-1.43,-11.71,-2.07,-0.96,147.625,-148.375,-15.25,0.67236328125,-0.071533203125,-0.72021484375,-0.15533447265625,-16.75,37.0,10.875,9.71,1.25,-0.46,moving,11
7.52,30296.531907126,26,3,1,0,3,-1.47,-0.03,-1.39,-11.15,-1.29,-0.5,159.75,-229.375,-18.5625,0.658447265625,-0.0640869140625,-0.7357177734375,-0.1448974609375,-18.6875,34.0625,12.375,9.68,1.26,-0.89,moving,11
7.53,30296.531907126,26,3,1,0,3,-1.47,-0.03,-1.39,-11.15,-1.29,-0.5,159.75,-229.375,-18.5625,0.658447265625,-0.0640869140625,-0.7357177734375,-0.1448974609375,-18.6875,34.0625,12.375,9.68,1.26,-0.89,moving,11
7.53,30296.547285015,26,3,1,0,3,-0.97,0.58,-1.35,-10.59,-0.67,0.03,135.8125,-278.8125,-15.6875,0.640869140625,-0.05877685546875,-0.7532958984375,-0.135498046875,-18.6875,34.0625,12.375,9.62,1.26,-1.39,moving,11
7.54,30296.547285015,26,3,1,0,3,-0.54,1.01,-1.23,-10.08,-0.23,0.66,100.5,-289.125,-6.6875,0.6220703125,-0.05615234375,-0.77044677734375,-0.12774658203125,-18.6875,34.0625,12.375,9.54,1.24,-1.89,moving,11
7.55,30296.577423077,26,3,1,0,3,-0.09,1.0,-0.7,-9.53,-0.21,1.64,67.3125,-264.4375,4.8125,0.6044921875,-0.05572509765625,-0.78533935546875,-0.12158203125,-18.6875,34.0625,12.375,9.44,1.21,-2.35,moving,11
7.56,30296.577423077,26,3,1,0,3,0.03,0.69,-0.49,-9.31,-0.47,2.21,39.4375,-215.3125,15.5625,0.5899658203125,-0.0570068359375,-0.796875,-0.11700439453125,-18.6875,34.0625,12.375,9.35,1.16,-2.71,moving,11
7.57,30296.593704327,26,3,1,0,3,0.04,0.36,-0.38,-9.22,-0.75,2.58,17.75,-159.625,24.0,0.5791015625,-0.05938720703125,-0.80511474609375,-0.11370849609375,-17.875,35.5,12.375,9.27,1.12,-2.97,moving,11
7.58,30296.593704327,26,3,1,0,3,-0.32,-0.23,-0.28,-9.54,-1.3,2.87,1.9375,-111.0,30.8125,0.57159423828125,-0.06256103515625,-0.810546875,-0.1114501953125,-17.875,35.5,12.375,9.22,1.07,-3.15,moving,11
7.59,30296.606789898,26,3,1,0,3,-0.32,-0.35,-0.47,-9.51,-1.37,2.78,-11.3125,-71.4375,34.125,0.5667724609375,-0.06622314453125,-0.81378173828125,-0.110107421875,-17.875,35.5,12.375,9.18,1.02,-3.26,moving,11
7.6,30296.606789898,26,3,1,0,3,-0.08,-0.56,-0.81,-9.25,-1.54,2.52,-21.125,-45.75,32.625,0.56365966796875,-0.07000732421875,-0.815673828125,-0.1097412109375,-17.875,35.5,12.375,9.16,0.98,-3.33,moving,11
7.61,30296.636441062,26,3,1,0,3,0.33,-0.84,-1.34,-8.81,-1.79,2.05,-23.125,-42.875,30.75,0.56072998046875,-0.07379150390625,-0.8173828125,-0.109619140625,-17.875,35.5,12.375,9.14,0.94,-3.4,moving,11
7.62,30296.636441062,26,3,1,0,3,1.97,-1.02,-2.96,-7.13,-1.93,0.54,-20.625,-66.4375,34.0625,0.55621337890625,-0.077392578125,-0.82025146484375,-0.108642578125,-15.375,36.5625,13.1875,9.11,0.9,-3.5,moving,11
7.63,30296.651473736,26,3,1,0,3,3.19,-1.06,-3.73,-5.84,-1.91,-0.04,-17.9375,-114.25,38.25,0.5482177734375,-0.08209228515625,-0.82537841796875,-0.1072998046875,-15.375,36.5625,13.1875,9.04,0.85,-3.68,moving,11
7.64,30296.651473736,26,3,1,0,3,4.62,-1.05,-4.56,-4.3,-1.85,-0.6,-8.5,-176.25,39.9375,0.5357666015625,-0.08697509765625,-0.83331298828125,-0.104736328125,-15.375,36.5625,13.1875,8.93,0.79,-3.96,moving,11
7.65,30296.667289857,26,3,1,0,3,5.96,-0.95,-5.5,-2.79,-1.68,-1.16,14.4375,-241.5625,39.5,0.51849365234375,-0.09136962890625,-0.84429931640625,-0.09991455078125,-15.375,36.5625,13.1875,8.76,0.72,-4.33,moving,11
7.66,30296.667289857,26,3,1,0,3,8.71,-0.78,-7.57,0.17,-1.41,-2.77,52.3125,-299.5625,35.25,0.4969482421875,-0.09417724609375,-0.85772705078125,-0.092041015625,-15.375,36.5625,13.1875,8.53,0.63,-4.79,moving,11
7.67,30296.697055523,26,3,1,0,3,10.52,-1.11,-8.22,2.28,-1.62,-2.92,103.25,-335.75,23.1875,0.47259521484375,-0.0941162109375,-0.87249755859375,-0.08050537109375,-13.1875,35.875,15.5,8.23,0.5,-5.29,moving,11
7.68,30296.697055523,26,3,1,0,3,14.03,-1.68,-8.64,6.11,-2.04,-2.87,144.0625,-323.5,3.625,0.448974609375,-0.0906982421875,-0.88641357421875,-0.06671142578125,-13.1875,35.875,15.5,7.92,0.36,-5.76,moving,11
7.69,30296.71267796,26,3,1,0,3,34.49,-0.73,-13.08,26.8,-0.96,-6.99,135.6875,-233.4375,-5.8125,0.43182373046875,-0.08624267578125,-0.89617919921875,-0.0545654296875,-13.1875,35.875,15.5,7.68,0.22,-6.09,moving,11
7.7,30296.71267796,26,3,1,0,3,38.65,0.9,-22.33,31.06,0.86,-16.12,73.3125,-88.6875,88.625,0.42578125,-0.09088134765625,-0.89910888671875,-0.0447998046875,-13.1875,35.875,15.5,7.58,0.03,-6.21,moving,11
7.71,30296.727411195,26,3,1,0,3,37.58,0.63,-28.71,30.03,0.86,-22.45,50.6875,-31.8125,152.1875,0.4241943359375,-0.10101318359375,-0.89923095703125,-0.034912109375,-13.1875,35.875,15.5,7.55,-0.22,-6.25,moving,11
7.72,30296.727411195,26,3,1,0,3,37.61,-1.39,-27.77,30.08,-1.1,-21.5,70.25,-17.9375,-7.8125,0.42340087890625,-0.0970458984375,-0.9002685546875,-0.02911376953125,-8.375,37.6875,15.0,7.53,-0.29,-6.27,moving,11
7.73,30296.757428733,26,3,1,0,3,25.3,0.68,-13.17,17.68,0.88,-6.99,64.625,72.375,-124.875,0.42926025390625,-0.084716796875,-0.89874267578125,-0.02923583984375,-8.375,37.6875,15.0,7.61,-0.19,-6.17,moving,11
7.74,30296.757428733,26,3,1,0,3,17.92,0.93,-11.34,10.1,0.93,-5.43,-33.875,193.125,-116.125,0.44378662109375,-0.07635498046875,-0.89208984375,-0.03765869140625,-8.375,37.6875,15.0,7.82,0.0,-5.91,moving,11
7.75,30296.772145163,26,3,1,0,3,13.59,0.97,-10.81,5.55,0.81,-5.19,-106.0,217.0625,-41.5,0.459716796875,-0.07647705078125,-0.8834228515625,-0.0489501953125,-8.375,37.6875,15.0,8.03,0.15,-5.61,moving,11
7.76,30296.772145163,26,3,1,0,3,12.1,0.82,-11.18,3.94,0.59,-5.76,-121.6875,135.25,32.0,0.46942138671875,-0.083251953125,-0.87713623046875,-0.05792236328125,-8.375,37.6875,15.0,8.16,0.22,-5.41,moving,11
7.77,30296.786493878,26,3,1,0,3,16.69,0.82,-11.84,8.55,0.58,-6.37,-111.5,-37.125,71.4375,0.466064453125,-0.09332275390625,-0.8775634765625,-0.0631103515625,-7.25,38.375,15.0,8.13,0.23,-5.46,moving,11
7.78,30296.786493878,26,3,1,0,3,16.69,0.82,-11.84,8.55,0.58,-6.37,-111.5,-37.125,71.4375,0.466064453125,-0.09332275390625,-0.8775634765625,-0.0631103515625,-7.25,38.375,15.0,8.13,0.23,-5.46,moving,11
7.78,30296.80223224,26,3,1,0,3,19.8,0.66,-7.56,11.85,0.43,-1.82,-78.125,-193.6875,59.75,0.45086669921875,-0.10211181640625,-0.88433837890625,-0.0650634765625,-7.25,38.375,15.0,7.95,0.22,-5.73,moving,11
7.79,30296.80223224,26,3,1,0,3,24.94,1.25,1.27,17.09,1.03,7.14,13.3125,-97.25,-5.625,0.44342041015625,-0.1016845703125,-0.88824462890625,-0.06341552734375,-7.25,38.375,15.0,7.85,0.22,-5.87,moving,11
7.8,30296.817350771,26,3,1,0,3,12.95,1.2,-3.7,4.9,0.93,1.89,42.25,200.875,-66.5625,0.45892333984375,-0.09381103515625,-0.88116455078125,-0.064453125,-7.25,38.375,15.0,8.04,0.26,-5.59,moving,11
7.81,30296.817350771,26,3,1,0,3,8.13,0.3,-2.24,-0.15,-0.07,2.97,36.1875,264.8125,-100.625,0.4788818359375,-0.08306884765625,-0.87127685546875,-0.06787109375,-7.25,38.375,15.0,8.29,0.37,-5.21,moving,11
7.82,30296.848778831,26,3,1,0,3,4.82,-0.29,-0.79,-3.69,-0.82,4.04,47.75,261.3125,-132.125,0.4981689453125,-0.06951904296875,-0.861328125,-0.07159423828125,-8.0625,38.375,17.25,8.51,0.53,-4.83,moving,11
7.83,30296.848778831,26,3,1,0,3,2.44,-0.45,-0.2,-6.33,-1.16,4.1,37.9375,351.1875,-136.5,0.52362060546875,-0.05535888671875,-0.8466796875,-0.0767822265625,-8.0625,38.375,17.25,8.77,0.7,-4.31,moving,11
7.84,30296.863605531,26,3,1,0,3,0.54,-1.68,-2.26,-8.54,-2.58,1.31,-5.5,467.375,-122.125,0.55682373046875,-0.04345703125,-0.82513427734375,-0.0849609375,-8.0625,38.375,17.25,9.08,0.9,-3.58,moving,11
7.85,30296.863605531,26,3,1,0,3,-0.08,-2.31,-3.05,-9.43,-3.39,-0.31,-76.1875,518.6875,-86.25,0.59259033203125,-0.03704833984375,-0.798828125,-0.09649658203125,-8.0625,38.375,17.25,9.35,1.08,-2.73,moving,11
7.86,30296.877766176,26,3,1,0,3,-1.58,-2.31,-2.41,-11.13,-3.51,-0.54,-156.3125,507.125,-34.9375,0.62646484375,-0.03839111328125,-0.77056884765625,-0.11065673828125,-8.0625,38.375,17.25,9.55,1.2,-1.86,moving,11
7.87,30296.877766176,26,3,1,0,3,-3.73,0.17,-3.09,-13.41,-1.07,-2.15,-220.4375,521.875,7.0,0.66009521484375,-0.04583740234375,-0.739013671875,-0.126708984375,-13.875,37.25,12.75,9.68,1.24,-0.94,moving,11
7.88,30296.907395041,26,3,1,0,3,-4.27,0.47,-4.67,-14.0,-0.75,-4.68,-234.375,532.3125,21.3125,0.69281005859375,-0.05474853515625,-0.70477294921875,-0.14251708984375,-13.875,37.25,12.75,9.72,1.22,0.0,moving,11
7.89,30296.907395041,26,3,1,0,3,-5.37,-0.08,-5.32,-15.07,-1.27,-6.11,-171.125,436.75,16.5625,0.71844482421875,-0.0606689453125,-0.67559814453125,-0.15399169921875,-13.875,37.25,12.75,9.7,1.18,0.78,moving,11
7.9,30296.922207664,26,3,1,0,3,-5.92,-1.05,-5.72,-15.58,-2.21,-6.94,-57.5,253.3125,8.6875,0.73297119140625,-0.06134033203125,-0.65875244140625,-0.15814208984375,-13.875,37.25,12.75,9.66,1.16,1.22,moving,11
7.91,30296.922207664,26,3,1,0,3,-4.31,-1.27,-6.09,-13.97,-2.43,-7.34,53.8125,22.125,11.3125,0.73468017578125,-0.05828857421875,-0.65802001953125,-0.1544189453125,-13.875,37.25,12.75,9.65,1.15,1.24,moving,11
7.92,30296.936348044,26,3,1,0,3,-2.51,-0.5,-5.39,-12.22,-1.66,-6.22,140.0625,-228.375,11.625,0.72222900390625,-0.05303955078125,-0.67431640625,-0.1444091796875,-20.0625,35.5,8.1875,9.7,1.15,0.83,moving,11
7.93,30296.936348044,26,3,1,0,3,-0.91,0.33,-4.68,-10.65,-0.83,-4.72,192.75,-443.4375,0.5,0.6964111328125,-0.04644775390625,-0.70404052734375,-0.130859375,-20.0625,35.5,8.1875,9.73,1.17,0.04,moving,11
7.94,30296.972106142,26,3,1,0,3,0.76,0.92,-4.2,-8.92,-0.24,-3.23,211.125,-570.3125,-8.75,0.66119384765625,-0.03955078125,-0.7401123046875,-0.115966796875,-20.0625,35.5,8.1875,9.68,1.17,-0.96,moving,11
7.95,30296.972106142,26,3,1,0,3,4.34,0.84,-3.87,-5.18,-0.29,-1.86,203.75,-601.75,-12.9375,0.6219482421875,-0.03302001953125,-0.7757568359375,-0.101318359375,-20.0625,35.5,8.1875,9.52,1.13,-2.01,moving,11
7.96,30296.982868105,26,3,1,0,3,5.96,0.37,-3.19,-3.32,-0.71,-0.24,179.8125,-547.8125,-16.125,0.58453369140625,-0.0269775390625,-0.80609130859375,-0.08831787109375,-20.0625,35.5,8.1875,9.28,1.08,-2.95,moving,11
7.97,30296.982868105,26,3,1,0,3,8.09,-0.19,-2.11,-0.95,-1.23,1.5,137.75,-404.3125,-21.5,0.55584716796875,-0.02154541015625,-0.8272705078125,-0.0787353515625,-19.0625,36.1875,9.375,9.05,1.04,-3.62,moving,11
7.98,30296.996072084,26,3,1,0,3,11.58,0.58,-3.03,2.67,-0.42,0.92,74.9375,-201.375,-13.8125,0.541259765625,-0.01824951171875,-0.83746337890625,-0.07354736328125,-19.0625,36.1875,9.375,8.91,1.01,-3.95,moving,11
7.99,30296.996072084,26,3,1,0,3,12.41,1.43,-3.32,3.51,0.44,0.68,24.8125,-29.1875,3.3125,0.53912353515625,-0.01751708984375,-0.8389892578125,-0.071533203125,-19.0625,36.1875,9.375,8.89,0.99,-4.0,moving,11
8.0,30297.027999249,26,3,1,0,3,13.91,1.45,-3.88,4.96,0.47,0.0,-1.9375,74.5625,7.9375,0.54461669921875,-0.01776123046875,-0.83544921875,-0.0714111328125,-19.0625,36.1875,9.375,8.94,0.98,-3.88,moving,11
8.01,30297.027999249,26,3,1,0,3,16.39,0.8,-5.84,7.37,-0.15,-2.1,-22.6875,90.8125,20.5625,0.55126953125,-0.019775390625,-0.8309326171875,-0.07220458984375,-19.0625,36.1875,9.375,9.01,0.96,-3.74,moving,11
8.02,30297.043872662,26,3,1,0,3,22.63,0.38,-11.54,13.63,-0.5,-7.76,-43.0625,-25.1875,59.9375,0.54974365234375,-0.02642822265625,-0.831787109375,-0.07244873046875,-15.75,36.5625,12.0,9.0,0.89,-3.77,moving,11
8.03,30297.043872662,26,3,1,0,3,26.17,0.0,-13.94,17.31,-0.75,-9.8,-47.8125,-235.6875,102.5,0.53302001953125,-0.03765869140625,-0.84234619140625,-0.0704345703125,-15.75,36.5625,12.0,8.85,0.76,-4.13,moving,11
8.04,30297.057230857,26,3,1,0,3,26.17,0.0,-13.94,17.31,-0.75,-9.8,-47.8125,-235.6875,102.5,0.53302001953125,-0.03765869140625,-0.84234619140625,-0.0704345703125,-15.75,36.5625,12.0,8.85,0.76,-4.13,stop,11
8.04,30297.057230857,26,3,1,0,3,27.96,-1.03,-14.41,19.4,-1.65,-9.67,-21.375,-397.1875,112.6875,0.50408935546875,-0.04937744140625,-0.8597412109375,-0.06536865234375,-15.75,36.5625,12.0,8.56,0.61,-4.73,stop,11
8.05,30297.072369895,26,3,1,0,3,26.35,-1.47,-11.81,18.06,-1.97,-6.6,11.9375,-322.5,71.3125,0.48016357421875,-0.0560302734375,-0.87335205078125,-0.05987548828125,-15.75,36.5625,12.0,8.29,0.49,-5.21,stop,11
8.06,30297.072369895,26,3,1,0,3,17.35,3.05,-6.99,9.09,2.57,-1.73,33.875,-28.5625,-15.25,0.47802734375,-0.0535888671875,-0.87481689453125,-0.05780029296875,-15.75,36.5625,12.0,8.26,0.48,-5.25,stop,11
8.07,30297.086302594,26,3,1,0,3,13.73,3.17,-4.09,5.29,2.59,0.86,45.0625,208.25,-92.6875,0.49359130859375,-0.0435791015625,-0.8665771484375,-0.05914306640625,-14.25,37.25,13.1875,8.43,0.58,-4.95,stop,11
8.08,30297.086302594,26,3,1,0,3,9.52,3.49,-3.11,0.82,2.76,1.35,-7.9375,324.125,-94.625,0.517333984375,-0.03509521484375,-0.85260009765625,-0.0650634765625,-14.25,37.25,13.1875,8.69,0.73,-4.47,stop,11
8.09,30297.117269513,26,3,1,0,3,2.12,2.74,-1.41,-6.81,1.88,2.51,-53.1875,347.1875,-56.0,0.54241943359375,-0.0313720703125,-0.83642578125,-0.072509765625,-14.25,37.25,13.1875,8.94,0.85,-3.93,stop,11
8.1,30297.117269513,26,3,1,0,3,0.5,1.69,-0.56,-8.63,0.76,2.85,-24.9375,325.875,-33.875,0.565673828125,-0.02801513671875,-0.82061767578125,-0.0767822265625,-14.25,37.25,13.1875,9.14,0.92,-3.41,stop,11
8.11,30297.132120343,26,3,1,0,3,0.76,0.06,-0.51,-8.52,-0.91,2.45,25.0,276.5625,-43.375,0.58502197265625,-0.02178955078125,-0.8070068359375,-0.07781982421875,-14.25,37.25,13.1875,9.29,0.98,-2.97,stop,11
8.12,30297.132120343,26,3,1,0,3,1.38,-1.06,-0.16,-7.99,-2.09,2.51,44.0,185.5,-42.8125,0.5977783203125,-0.0152587890625,-0.79779052734375,-0.07720947265625,-13.875,37.6875,11.5625,9.37,1.02,-2.68,stop,11
8.13,30297.146963564,26,3,1,0,3,2.22,-0.9,-0.62,-7.19,-1.94,1.91,20.375,88.3125,-14.3125,0.60382080078125,-0.01263427734375,-0.7933349609375,-0.07666015625,-13.875,37.6875,11.5625,9.41,1.04,-2.53,stop,11
8.14,30297.146963564,26,3,1,0,3,2.83,-0.28,-1.32,-6.58,-1.31,1.21,-23.6875,-2.0625,13.125,0.603759765625,-0.01483154296875,-0.79327392578125,-0.07757568359375,-13.875,37.6875,11.5625,9.41,1.03,-2.53,stop,11
8.15,30297.177975689,26,3,1,0,3,3.78,0.48,-1.81,-5.6,-0.52,0.84,-51.3125,-81.0,25.4375,0.59820556640625,-0.01983642578125,-0.797119140625,-0.07965087890625,-13.875,37.6875,11.5625,9.38,1.01,-2.66,stop,11
8.16,30297.177975689,26,3,1,0,3,5.01,0.87,-2.33,-4.3,-0.12,0.52,-52.9375,-124.5,24.875,0.589599609375,-0.02520751953125,-0.80316162109375,-0.08184814453125,-13.875,37.6875,11.5625,9.32,0.99,-2.85,stop,11
8.17,30297.193830548,26,3,1,0,3,6.97,0.99,-2.66,-2.29,0.0,0.4,-35.0,-132.125,20.8125,0.58038330078125,-0.0294189453125,-0.8095703125,-0.0828857421875,-16.75,36.5625,8.1875,9.26,0.98,-3.06,stop,11
8.18,30297.193830548,26,3,1,0,3,7.42,0.97,-2.73,-1.77,0.0,0.51,-10.625,-116.0625,12.625,0.57220458984375,-0.03167724609375,-0.8153076171875,-0.08270263671875,-16.75,36.5625,8.1875,9.2,0.96,-3.25,stop,11
8.19,30297.207620872,26,3,1,0,3,7.89,0.9,-2.81,-1.25,-0.05,0.58,13.875,-88.875,-1.125,0.56585693359375,-0.03155517578125,-0.81982421875,-0.08148193359375,-16.75,36.5625,8.1875,9.14,0.96,-3.39,stop,11
8.2,30297.207620872,26,3,1,0,3,8.71,0.6,-2.79,-0.38,-0.35,0.7,32.25,-65.6875,-11.875,0.5611572265625,-0.02960205078125,-0.8233642578125,-0.07958984375,-16.75,36.5625,8.1875,9.1,0.95,-3.5,stop,11
8.21,30297.237356467,26,3,1,0,3,9.22,0.48,-3.33,0.15,-0.47,0.26,33.6875,-54.5,-13.3125,0.55718994140625,-0.02734375,-0.8262939453125,-0.07769775390625,-16.75,36.5625,8.1875,9.07,0.95,-3.59,stop,11
8.22,30297.237356467,26,3,1,0,3,9.81,0.39,-4.2,0.78,-0.55,-0.5,21.9375,-67.1875,-4.1875,0.5523681640625,-0.02642822265625,-0.8297119140625,-0.07611083984375,-15.375,37.0,10.875,9.02,0.95,-3.7,stop,11
8.23,30297.251762473,26,3,1,0,3,10.58,0.22,-5.16,1.62,-0.7,-1.28,9.75,-109.125,11.5625,0.5445556640625,-0.02752685546875,-0.8349609375,-0.0745849609375,-15.375,37.0,10.875,8.95,0.92,-3.88,stop,11
8.24,30297.251762473,26,3,1,0,3,12.74,-0.05,-6.95,3.9,-0.93,-2.81,1.25,-167.1875,29.375,0.53253173828125,-0.03070068359375,-0.8427734375,-0.07269287109375,-15.375,37.0,10.875,8.84,0.88,-4.14,stop,11
8.25,30297.266654604,26,3,1,0,3,13.91,0.0,-7.66,5.21,-0.81,-3.19,-3.4375,-215.375,46.0,0.516845703125,-0.03564453125,-0.85247802734375,-0.0701904296875,-15.375,37.0,10.875,8.69,0.81,-4.47,stop,11
8.26,30297.266654604,26,3,1,0,3,14.61,0.13,-7.92,6.1,-0.59,-3.11,-5.0625,-225.0625,53.75,0.50030517578125,-0.041259765625,-0.86224365234375,-0.06744384765625,-15.375,37.0,10.875,8.51,0.73,-4.8,stop,11
8.27,30297.297706362,26,3,1,0,3,13.31,-0.04,-6.77,4.93,-0.71,-1.71,-6.9375,-172.9375,45.875,0.48748779296875,-0.0460205078125,-0.86944580078125,-0.0653076171875,-15.375,36.5625,10.0625,8.37,0.67,-5.06,stop,11
8.28,30297.297706362,26,3,1,0,3,11.41,0.16,-5.76,3.1,-0.48,-0.59,-10.375,-76.4375,27.1875,0.4818115234375,-0.0489501953125,-0.87255859375,-0.0645751953125,-15.375,36.5625,10.0625,8.3,0.64,-5.17,stop,11
8.29,30297.311804832,26,3,1,0,3,10.32,0.9,-5.1,2.0,0.25,0.04,-11.125,9.8125,5.8125,0.48248291015625,-0.0498046875,-0.87200927734375,-0.06524658203125,-15.375,36.5625,10.0625,8.31,0.64,-5.15,stop,11
8.3,30297.311804832,26,3,1,0,3,10.32,0.9,-5.1,2.0,0.25,0.04,-11.125,9.8125,5.8125,0.48248291015625,-0.0498046875,-0.87200927734375,-0.06524658203125,-15.375,36.5625,10.0625,8.31,0.64,-5.15,stop,11
8.3,30297.326647442,26,3,1,0,3,9.65,1.47,-4.98,1.28,0.78,0.07,-20.5625,61.4375,-12.1875,0.48699951171875,-0.0494384765625,-0.869384765625,-0.06756591796875,-15.375,36.5625,10.0625,8.36,0.68,-5.06,stop,11
8.31,30297.326647442,26,3,1,0,3,7.92,0.41,-3.49,-0.51,-0.32,1.43,-36.6875,85.5,-18.375,0.49322509765625,-0.049072265625,-0.8656005859375,-0.07147216796875,-15.375,36.5625,10.0625,8.44,0.73,-4.93,stop,11
8.32,30297.341779482,26,3,1,0,3,6.88,-0.11,-2.63,-1.64,-0.9,2.14,-30.1875,100.3125,-15.5,0.50054931640625,-0.048583984375,-0.861083984375,-0.0748291015625,-12.0625,37.6875,13.875,8.52,0.78,-4.78,stop,11
8.33,30297.341779482,26,3,1,0,3,6.31,-0.22,-2.48,-2.29,-1.04,2.14,-4.4375,108.125,-16.625,0.508544921875,-0.04681396484375,-0.85638427734375,-0.07635498046875,-12.0625,37.6875,13.875,8.61,0.81,-4.62,stop,11
8.34,30297.356732281,26,3,1,0,3,6.19,-0.11,-2.57,-2.49,-0.93,1.9,16.25,94.1875,-17.4375,0.5155029296875,-0.044189453125,-0.85235595703125,-0.0762939453125,-12.0625,37.6875,13.875,8.68,0.82,-4.48,stop,11
8.35,30297.356732281,26,3,1,0,3,6.6,0.83,-3.0,-2.12,0.0,1.38,16.875,62.0,-11.5625,0.52008056640625,-0.04217529296875,-0.8497314453125,-0.07574462890625,-12.0625,37.6875,13.875,8.73,0.83,-4.38,stop,11
8.36,30297.386549868,26,3,1,0,3,6.9,1.1,-3.12,-1.85,0.26,1.21,2.0625,32.4375,-5.375,0.5224609375,-0.04144287109375,-0.8482666015625,-0.07598876953125,-12.0625,37.6875,13.875,8.75,0.83,-4.33,stop,11
8.37,30297.386549868,26,3,1,0,3,7.2,1.18,-3.33,-1.56,0.33,0.96,-11.25,22.5625,-0.8125,0.524169921875,-0.040771484375,-0.84722900390625,-0.0762939453125,-13.1875,37.25,12.75,8.77,0.84,-4.3,stop,11
8.38,30297.403322857,26,3,1,0,3,7.9,1.03,-3.95,-0.88,0.17,0.3,-18.3125,26.625,0.4375,0.52606201171875,-0.04144287109375,-0.84588623046875,-0.0777587890625,-13.1875,37.25,12.75,8.79,0.86,-4.26,stop,11
8.39,30297.403322857,26,3,1,0,3,8.32,1.04,-4.27,-0.49,0.17,-0.06,-21.375,33.0625,0.0,0.5284423828125,-0.042236328125,-0.84417724609375,-0.07940673828125,-13.1875,37.25,12.75,8.81,0.87,-4.2,stop,11
8.4,30297.416764345,26,3,1,0,3,8.65,1.22,-4.45,-0.18,0.32,-0.3,-23.625,31.25,0.5,0.5306396484375,-0.0430908203125,-0.84259033203125,-0.08123779296875,-13.1875,37.25,12.75,8.83,0.89,-4.15,stop,11
8.41,30297.416764345,26,3,1,0,3,8.9,1.15,-4.41,0.04,0.25,-0.29,-24.875,20.875,2.25,0.5321044921875,-0.04425048828125,-0.8414306640625,-0.08306884765625,-13.1875,37.25,12.75,8.85,0.9,-4.11,stop,11
8.42,30297.446719505,26,3,1,0,3,9.35,0.48,-4.2,0.49,-0.43,-0.09,-23.875,4.75,4.5625,0.53240966796875,-0.0455322265625,-0.84100341796875,-0.08453369140625,-14.25,36.5625,12.75,8.85,0.91,-4.1,stop,11
8.43,30297.446719505,26,3,1,0,3,9.69,0.34,-4.14,0.84,-0.57,-0.01,-19.6875,-17.25,5.5,0.53106689453125,-0.0469970703125,-0.8416748046875,-0.08563232421875,-14.25,36.5625,12.75,8.84,0.92,-4.13,stop,11
8.44,30297.462253033,26,3,1,0,3,10.04,0.27,-4.11,1.22,-0.64,0.07,-11.6875,-38.75,4.8125,0.52825927734375,-0.0482177734375,-0.84332275390625,-0.08612060546875,-14.25,36.5625,12.75,8.81,0.92,-4.18,stop,11
8.45,30297.462253033,26,3,1,0,3,10.33,0.4,-3.96,1.55,-0.51,0.3,-2.5,-50.125,2.625,0.5245361328125,-0.04888916015625,-0.84564208984375,-0.0859375,-14.25,36.5625,12.75,8.78,0.92,-4.26,stop,11
8.46,30297.477553204,26,3,1,0,3,10.32,0.58,-3.91,1.58,-0.33,0.42,4.125,-48.125,0.0,0.52099609375,-0.049072265625,-0.84783935546875,-0.08538818359375,-14.25,36.5625,12.75,8.74,0.91,-4.33,stop,11
8.47,30297.477553204,26,3,1,0,3,9.93,0.58,-4.01,1.21,-0.32,0.38,6.6875,-38.6875,-2.5625,0.5181884765625,-0.04876708984375,-0.84967041015625,-0.08477783203125,-14.5625,35.875,13.1875,8.71,0.91,-4.39,stop,11
8.48,30297.509146303,26,3,1,0,3,9.56,0.64,-3.99,0.86,-0.27,0.44,9.9375,-26.8125,-7.875,0.51617431640625,-0.04791259765625,-0.85101318359375,-0.08428955078125,-14.5625,35.875,13.1875,8.69,0.92,-4.44,stop,11
8.49,30297.509146303,26,3,1,0,3,9.21,0.82,-4.06,0.53,-0.1,0.39,16.375,-9.25,-14.375,0.51544189453125,-0.04620361328125,-0.8515625,-0.08367919921875,-14.5625,35.875,13.1875,8.68,0.93,-4.45,stop,11
8.5,30297.522150006,26,3,1,0,3,8.86,0.7,-4.14,0.17,-0.23,0.3,18.25,11.5625,-16.375,0.5162353515625,-0.0440673828125,-0.85125732421875,-0.08306884765625,-14.5625,35.875,13.1875,8.69,0.94,-4.44,stop,11
8.51,30297.522150006,26,3,1,0,3,8.46,0.63,-4.32,-0.24,-0.31,0.08,11.25,21.5,-11.375,0.517822265625,-0.04254150390625,-0.85040283203125,-0.08282470703125,-14.5625,35.875,13.1875,8.7,0.94,-4.41,stop,11
8.52,30297.537123598,26,3,1,0,3,8.28,0.59,-4.48,-0.43,-0.35,-0.09,1.625,17.8125,-3.625,0.5191650390625,-0.04156494140625,-0.84967041015625,-0.08258056640625,-13.875,36.5625,13.1875,8.71,0.95,-4.38,stop,11
8.53,30297.537123598,26,3,1,0,3,8.65,0.68,-4.43,-0.06,-0.26,-0.06,-5.1875,9.4375,2.0,0.5198974609375,-0.0418701171875,-0.84918212890625,-0.0828857421875,-13.875,36.5625,13.1875,8.72,0.95,-4.37,stop,11
8.54,30297.568491884,26,3,1,0,3,8.9,0.94,-4.25,0.17,0.0,0.1,-7.5625,6.375,4.0625,0.5203857421875,-0.04248046875,-0.84881591796875,-0.08331298828125,-13.875,36.5625,13.1875,8.73,0.95,-4.35,stop,11
8.55,30297.568491884,26,3,1,0,3,9.04,1.18,-4.06,0.29,0.22,0.27,-8.3125,11.625,4.0625,0.521240234375,-0.0430908203125,-0.84820556640625,-0.083740234375,-13.875,36.5625,13.1875,8.74,0.95,-4.34,stop,11
8.56,30297.582329409,26,3,1,0,3,9.07,1.34,-3.88,0.31,0.39,0.42,-9.625,16.0625,3.875,0.52239990234375,-0.043701171875,-0.847412109375,-0.0843505859375,-13.875,36.5625,13.1875,8.75,0.95,-4.31,stop,11
8.57,30297.582329409,26,3,1,0,3,8.8,1.13,-3.88,0.03,0.18,0.41,-11.5625,10.9375,4.3125,0.523193359375,-0.04461669921875,-0.84674072265625,-0.0850830078125,-13.875,35.875,14.25,8.76,0.95,-4.29,stop,11
8.58,30297.597833152,26,3,1,0,3,8.71,0.93,-3.93,-0.04,-0.01,0.36,-11.8125,-2.4375,5.3125,0.52301025390625,-0.04559326171875,-0.84674072265625,-0.085693359375,-13.875,35.875,14.25,8.76,0.95,-4.29,stop,11
8.59,30297.597833152,26,3,1,0,3,8.71,0.93,-3.93,-0.04,-0.01,0.36,-11.8125,-2.4375,5.3125,0.52301025390625,-0.04559326171875,-0.84674072265625,-0.085693359375,-13.875,35.875,14.25,8.76,0.95,-4.29,stop,11
8.59,30297.612825828,26,3,1,0,3,8.66,0.77,-4.07,-0.09,-0.17,0.24,-9.9375,-14.25,5.5,0.52197265625,-0.04656982421875,-0.84735107421875,-0.08612060546875,-13.875,35.875,14.25,8.75,0.95,-4.31,stop,11
8.6,30297.612825828,26,3,1,0,3,8.57,0.66,-4.17,-0.16,-0.28,0.17,-6.0,-20.25,4.375,0.5205078125,-0.04730224609375,-0.84820556640625,-0.0863037109375,-13.875,35.875,14.25,8.73,0.95,-4.34,stop,11
8.61,30297.627802513,26,3,1,0,3,8.62,0.66,-4.14,-0.09,-0.28,0.23,-0.375,-22.4375,2.1875,0.51885986328125,-0.04766845703125,-0.84918212890625,-0.0860595703125,-13.875,35.875,14.25,8.72,0.94,-4.38,stop,11
8.62,30297.627802513,26,3,1,0,3,8.7,0.71,-4.05,0.0,-0.22,0.36,4.375,-23.125,0.0,0.5172119140625,-0.0469970703125,-0.85028076171875,-0.08526611328125,-15.0,37.0,13.1875,8.7,0.94,-4.41,stop,11
8.63,30297.673462465,26,3,1,0,3,8.78,0.78,-4.04,0.1,-0.15,0.4,5.75,-23.125,-0.4375,0.51556396484375,-0.046875,-0.85137939453125,-0.084716796875,-15.0,37.0,13.1875,8.68,0.94,-4.45,stop,11
8.64,30297.673462465,26,3,1,0,3,8.86,0.76,-4.15,0.19,-0.17,0.33,4.6875,-23.125,0.0,0.51385498046875,-0.046875,-0.85247802734375,-0.08428955078125,-15.0,37.0,13.1875,8.66,0.93,-4.48,stop,11
8.65,30297.683322247,26,3,1,0,3,8.85,0.67,-4.24,0.01,-0.04,-0.06,3.1875,-22.375,0.875,0.53021240234375,-0.05242919921875,-0.8427734375,-0.0767822265625,-15.0,37.0,13.1875,8.84,0.72,-4.17,stop,11
8.66,30297.683322247,26,3,1,0,3,8.83,0.63,-4.37,0.01,-0.08,-0.16,2.4375,-19.125,1.0,0.52880859375,-0.052490234375,-0.84368896484375,-0.076416015625,-15.0,37.0,13.1875,8.82,0.72,-4.2,stop,11
8.67,30297.691124005,26,3,1,0,3,8.78,0.58,-4.49,-0.03,-0.12,-0.26,2.5,-14.9375,0.75,0.52777099609375,-0.05169677734375,-0.84442138671875,-0.07562255859375,-13.875,36.5625,12.75,8.81,0.71,-4.23,stop,11
8.68,30297.691124005,26,3,1,0,3,8.82,0.63,-4.51,0.01,-0.08,-0.26,2.875,-10.6875,0.4375,0.52703857421875,-0.0516357421875,-0.84490966796875,-0.0753173828125,-13.875,36.5625,12.75,8.81,0.71,-4.24,stop,11
8.69,30297.717646344,26,3,1,0,3,8.89,0.72,-4.48,0.08,0.01,-0.22,2.5625,-7.875,0.8125,0.5264892578125,-0.0516357421875,-0.84527587890625,-0.0750732421875,-13.875,36.5625,12.75,8.8,0.71,-4.26,stop,11
8.7,30297.717646344,26,3,1,0,3,8.95,0.76,-4.44,0.15,0.05,-0.17,1.375,-6.5,1.5625,0.5260009765625,-0.0517578125,-0.8455810546875,-0.0748291015625,-13.875,36.5625,12.75,8.79,0.7,-4.27,stop,11
8.71,30297.732275413,26,3,1,0,3,8.96,0.79,-4.4,0.16,0.09,-0.12,0.1875,-5.0,2.0,0.525634765625,-0.05194091796875,-0.8458251953125,-0.07470703125,-13.875,36.5625,12.75,8.79,0.7,-4.27,stop,11
8.72,30297.732275413,26,3,1,0,3,8.92,0.75,-4.41,0.12,0.05,-0.13,0.0,-2.625,2.0,0.52545166015625,-0.0523681640625,-0.84588623046875,-0.07476806640625,-13.875,36.5625,14.6875,8.79,0.7,-4.28,stop,11
8.73,30297.746312034,26,3,1,0,3,8.85,0.76,-4.44,0.05,0.06,-0.16,0.375,-0.125,1.1875,0.52545166015625,-0.05242919921875,-0.84588623046875,-0.07470703125,-13.875,36.5625,14.6875,8.79,0.69,-4.28,stop,11
8.74,30297.746312034,26,3,1,0,3,8.77,0.75,-4.45,-0.01,0.05,-0.17,1.25,1.8125,0.4375,0.52557373046875,-0.0523681640625,-0.8458251953125,-0.07464599609375,-13.875,36.5625,14.6875,8.79,0.69,-4.27,stop,11
8.75,30297.777933657,26,3,1,0,3,8.66,0.82,-4.42,-0.13,0.12,-0.14,1.75,2.75,0.125,0.5257568359375,-0.05230712890625,-0.84576416015625,-0.07452392578125,-13.875,36.5625,14.6875,8.79,0.69,-4.27,stop,11
8.76,30297.777933657,26,3,1,0,3,8.61,0.83,-4.41,-0.17,0.14,-0.14,1.6875,2.625,0.4375,0.52587890625,-0.05218505859375,-0.845703125,-0.074462890625,-13.875,36.5625,14.6875,8.79,0.69,-4.27,stop,11
8.77,30297.792472557,26,3,1,0,3,8.6,0.79,-4.39,-0.19,0.09,-0.12,1.4375,2.0625,1.0625,0.52593994140625,-0.05242919921875,-0.8455810546875,-0.07452392578125,-13.5625,36.5625,14.6875,8.79,0.69,-4.27,stop,11
8.78,30297.792472557,26,3,1,0,3,8.65,0.78,-4.29,-0.14,0.09,-0.02,1.6875,1.25,0.9375,0.52606201171875,-0.05242919921875,-0.8455810546875,-0.0743408203125,-13.5625,36.5625,14.6875,8.8,0.69,-4.27,stop,11
8.79,30297.806325055,26,3,1,0,3,8.69,0.83,-4.25,-0.11,0.14,0.01,2.5625,1.0625,0.625,0.526123046875,-0.05230712890625,-0.8455810546875,-0.07415771484375,-13.5625,36.5625,14.6875,8.8,0.68,-4.26,stop,11
8.8,30297.806325055,26,3,1,0,3,8.65,0.82,-4.2,-0.14,0.14,0.05,2.5,1.0625,1.0625,0.52618408203125,-0.05224609375,-0.84552001953125,-0.073974609375,-13.5625,36.5625,14.6875,8.8,0.68,-4.26,stop,11
8.81,30297.837682029,26,3,1,0,3,8.62,0.82,-4.23,-0.17,0.14,0.03,1.375,-1.25,2.375,0.526123046875,-0.0523681640625,-0.8455810546875,-0.07379150390625,-13.5625,36.5625,14.6875,8.8,0.68,-4.27,stop,11
8.82,30297.837682029,26,3,1,0,3,8.46,0.71,-4.49,-0.33,0.03,-0.21,1.1875,-4.4375,2.75,0.5257568359375,-0.05255126953125,-0.8458251953125,-0.07354736328125,-13.5625,37.0,13.875,8.79,0.67,-4.27,stop,11
8.83,30297.852098045,26,3,1,0,3,8.54,0.67,-4.57,-0.24,0.0,-0.28,4.125,-5.75,0.75,0.5252685546875,-0.05242919921875,-0.84619140625,-0.07318115234375,-13.5625,37.0,13.875,8.79,0.67,-4.29,stop,11
8.84,30297.852098045,26,3,1,0,3,8.69,0.82,-4.41,-0.09,0.15,-0.12,8.9375,-1.125,-2.375,0.525146484375,-0.05181884765625,-0.8463134765625,-0.0726318359375,-13.5625,37.0,13.875,8.79,0.67,-4.29,stop,11
8.85,30297.866793561,26,3,1,0,3,8.69,0.82,-4.29,-0.1,0.15,0.0,7.1875,2.8125,-1.0625,0.52532958984375,-0.0513916015625,-0.84625244140625,-0.07220458984375,-13.5625,37.0,13.875,8.79,0.66,-4.29,stop,11
8.86,30297.866793561,26,3,1,0,3,8.88,0.78,-4.12,0.09,0.12,0.16,0.4375,0.25,3.125,0.52532958984375,-0.0516357421875,-0.84625244140625,-0.07208251953125,-13.5625,37.0,13.875,8.79,0.66,-4.29,stop,11
8.87,30297.897109967,26,3,1,0,3,8.81,0.66,-4.33,0.02,0.0,-0.03,-6.1875,-5.375,8.0,0.52496337890625,-0.05230712890625,-0.846435546875,-0.072021484375,-13.875,37.0,13.1875,8.78,0.65,-4.29,stop,11
8.88,30297.897109967,26,3,1,0,3,8.81,0.53,-4.58,0.03,-0.11,-0.27,-6.0625,-7.5,8.0,0.5244140625,-0.05322265625,-0.84674072265625,-0.07208251953125,-13.875,37.0,13.1875,8.78,0.64,-4.31,stop,11
8.89,30297.911433453,26,3,1,0,3,8.86,0.7,-4.75,0.08,0.05,-0.43,0.4375,-0.75,3.125,0.52435302734375,-0.053466796875,-0.8468017578125,-0.0718994140625,-13.875,37.0,13.1875,8.78,0.64,-4.31,stop,11
8.9,30297.911433453,26,3,1,0,3,8.82,0.77,-4.63,0.03,0.12,-0.33,6.9375,8.5,-1.5,0.5250244140625,-0.05303955078125,-0.846435546875,-0.071533203125,-13.875,37.0,13.1875,8.79,0.64,-4.3,stop,11
8.91,30297.926375145,26,3,1,0,3,8.75,0.69,-4.58,-0.03,0.05,-0.29,8.375,10.5,-3.0625,0.52581787109375,-0.05230712890625,-0.84600830078125,-0.07110595703125,-13.875,37.0,13.1875,8.79,0.63,-4.28,stop,11
8.92,30297.926375145,26,3,1,0,3,8.78,0.59,-4.48,-0.01,-0.04,-0.21,8.0,7.3125,-3.4375,0.5263671875,-0.05169677734375,-0.84576416015625,-0.0706787109375,-13.1875,36.5625,13.5,8.8,0.63,-4.27,stop,11
8.93,30297.957965354,26,3,1,0,3,8.82,0.57,-4.31,0.01,-0.06,-0.04,8.4375,6.75,-4.0625,0.52685546875,-0.05096435546875,-0.84552001953125,-0.07025146484375,-13.1875,36.5625,13.5,8.8,0.63,-4.26,stop,11
8.94,30297.957965354,26,3,1,0,3,8.76,0.59,-4.24,-0.04,-0.04,0.0,8.0,8.25,-3.75,0.5274658203125,-0.05023193359375,-0.84521484375,-0.06988525390625,-13.1875,36.5625,13.5,8.81,0.63,-4.25,stop,11
8.95,30297.972523501,26,3,1,0,3,8.71,0.63,-4.23,-0.1,0.0,0.0,6.0625,8.125,-2.625,0.52813720703125,-0.04974365234375,-0.8448486328125,-0.069580078125,-13.1875,36.5625,13.5,8.81,0.63,-4.24,stop,11
8.96,30297.972523501,26,3,1,0,3,8.69,0.64,-4.24,-0.12,0.0,-0.01,4.75,6.5,-1.6875,0.52862548828125,-0.04931640625,-0.8446044921875,-0.0693359375,-13.1875,36.5625,13.5,8.82,0.63,-4.23,stop,11
8.97,30297.987854148,26,3,1,0,3,8.66,0.75,-4.31,-0.16,0.11,-0.09,4.375,4.0,-1.125,0.52886962890625,-0.0498046875,-0.84442138671875,-0.069580078125,-13.5625,36.5625,15.0,8.82,0.63,-4.22,stop,11
8.98,30297.987854148,26,3,1,0,3,8.66,0.77,-4.32,-0.16,0.13,-0.09,4.625,0.75,-0.5625,0.5289306640625,-0.049560546875,-0.8443603515625,-0.06927490234375,-13.5625,36.5625,15.0,8.82,0.63,-4.22,stop,11
8.99,30298.016355206,26,3,1,0,3,8.65,0.76,-4.33,-0.16,0.13,-0.1,3.875,-1.3125,0.0,0.52880859375,-0.04937744140625,-0.844482421875,-0.0689697265625,-13.5625,36.5625,15.0,8.82,0.63,-4.22,stop,11
9.0,30298.016355206,26,3,1,0,3,8.75,0.73,-4.33,-0.06,0.1,-0.1,2.8125,-1.625,0.375,0.52862548828125,-0.04925537109375,-0.8446044921875,-0.06878662109375,-13.5625,36.5625,15.0,8.82,0.62,-4.23,stop,11
9.01,30298.031367536,26,3,1,0,3,8.81,0.72,-4.31,0.0,0.1,-0.08,1.75,-0.4375,0.75,0.52862548828125,-0.0491943359375,-0.84466552734375,-0.06866455078125,-13.5625,36.5625,15.0,8.82,0.62,-4.23,stop,11
9.02,30298.031367536,26,3,1,0,3,8.85,0.74,-4.31,0.03,0.11,-0.08,0.4375,1.875,0.625,0.52880859375,-0.04876708984375,-0.8446044921875,-0.068359375,-13.5625,36.1875,12.0,8.82,0.62,-4.23,stop,11
9.03,30298.045944684,26,3,1,0,3,8.88,0.72,-4.29,0.05,0.09,-0.06,-0.375,3.0625,0.375,0.52899169921875,-0.0487060546875,-0.844482421875,-0.068359375,-13.5625,36.1875,12.0,8.82,0.62,-4.22,stop,11
9.04,30298.045944684,26,3,1,0,3,8.9,0.67,-4.3,0.07,0.04,-0.08,-0.875,3.5625,0.125,0.52923583984375,-0.04876708984375,-0.84429931640625,-0.0684814453125,-13.5625,36.1875,12.0,8.82,0.62,-4.22,stop,11
9.05,30298.076673566,26,3,1,0,3,8.91,0.65,-4.29,0.08,0.02,-0.08,-0.8125,4.125,-0.0625,0.529541015625,-0.04876708984375,-0.8441162109375,-0.06854248046875,-13.5625,36.1875,12.0,8.83,0.62,-4.21,stop,11
9.06,30298.076673566,26,3,1,0,3,8.87,0.6,-4.31,0.04,-0.02,-0.11,-0.5625,4.625,-0.4375,0.52984619140625,-0.04876708984375,-0.8438720703125,-0.068603515625,-13.5625,36.1875,12.0,8.83,0.62,-4.2,stop,11
9.07,30298.091831484,26,3,1,0,3,8.87,0.58,-4.31,0.03,-0.04,-0.11,0.0,5.5,-1.3125,0.5302734375,-0.04864501953125,-0.8436279296875,-0.0687255859375,-13.875,37.25,13.5,8.83,0.63,-4.19,stop,11
9.08,30298.091831484,26,3,1,0,3,8.87,0.61,-4.3,0.02,-0.01,-0.11,1.0625,7.6875,-2.375,0.53082275390625,-0.04840087890625,-0.84332275390625,-0.06878662109375,-13.875,37.25,13.5,8.84,0.63,-4.18,stop,11
9.09,30298.107042829,26,3,1,0,3,8.88,0.61,-4.29,0.03,-0.02,-0.12,1.1875,9.8125,-2.5,0.531494140625,-0.048095703125,-0.8428955078125,-0.06884765625,-13.875,37.25,13.5,8.85,0.63,-4.17,stop,11
9.1,30298.107042829,26,3,1,0,3,8.83,0.57,-4.39,-0.01,-0.06,-0.23,0.3125,10.75,-2.375,0.5322265625,-0.0478515625,-0.8424072265625,-0.0689697265625,-13.875,37.25,13.5,8.85,0.63,-4.15,stop,11
9.11,30298.137216901,26,3,1,0,3,8.84,0.59,-4.28,-0.01,-0.05,-0.14,0.6875,12.0,-3.375,0.5330810546875,-0.0474853515625,-0.8419189453125,-0.069091796875,-13.875,37.25,13.5,8.86,0.64,-4.13,stop,11
9.12,30298.137216901,26,3,1,0,3,8.81,0.62,-4.23,-0.06,-0.02,-0.11,1.1875,14.3125,-3.75,0.53399658203125,-0.04766845703125,-0.84124755859375,-0.069580078125,-14.25,37.0,14.6875,8.87,0.64,-4.11,stop,11
9.13,30298.151929018,26,3,1,0,3,8.79,0.65,-4.14,-0.09,0.0,-0.04,0.375,14.5,-2.875,0.5350341796875,-0.04736328125,-0.84063720703125,-0.06976318359375,-14.25,37.0,14.6875,8.88,0.65,-4.09,stop,11
9.14,30298.151929018,26,3,1,0,3,8.79,0.62,-4.13,-0.1,-0.02,-0.06,-1.6875,12.875,-1.1875,0.53594970703125,-0.0472412109375,-0.84002685546875,-0.07000732421875,-14.25,37.0,14.6875,8.89,0.65,-4.07,stop,11
9.15,30298.167639386,26,3,1,0,3,8.89,0.56,-4.07,0.0,-0.08,-0.01,-3.875,10.625,0.25,0.53668212890625,-0.04736328125,-0.8394775390625,-0.0703125,-14.25,37.0,14.6875,8.9,0.65,-4.06,stop,11
9.16,30298.167639386,26,3,1,0,3,8.93,0.58,-4.09,0.02,-0.07,-0.05,-5.125,8.75,1.125,0.53729248046875,-0.04766845703125,-0.83905029296875,-0.0706787109375,-14.25,37.0,14.6875,8.9,0.66,-4.04,stop,11
9.17,30298.198514834,26,3,1,0,3,8.98,0.61,-4.11,0.06,-0.05,-0.08,-4.1875,9.4375,0.375,0.5379638671875,-0.04791259765625,-0.838623046875,-0.071044921875,-13.875,37.0,13.5,8.91,0.66,-4.03,stop,11
9.18,30298.198514834,26,3,1,0,3,8.97,0.57,-4.12,0.05,-0.09,-0.11,-2.1875,11.9375,-1.1875,0.538818359375,-0.0478515625,-0.8380126953125,-0.0712890625,-13.875,37.0,13.5,8.92,0.66,-4.01,stop,11
9.19,30298.213332827,26,3,1,0,3,8.92,0.58,-4.09,0.0,-0.08,-0.1,-0.375,13.8125,-2.5,0.539794921875,-0.047607421875,-0.83740234375,-0.07147216796875,-13.875,37.0,13.5,8.93,0.66,-3.99,stop,11
9.2,30298.213332827,26,3,1,0,3,8.84,0.6,-4.05,-0.09,-0.07,-0.08,0.3125,13.625,-2.8125,0.540771484375,-0.04730224609375,-0.8367919921875,-0.07159423828125,-13.875,37.0,13.5,8.94,0.67,-3.97,stop,11
9.21,30298.227656191,26,3,1,0,3,8.82,0.64,-4.01,-0.11,-0.03,-0.05,-0.3125,12.0,-2.0,0.54156494140625,-0.047119140625,-0.83624267578125,-0.07171630859375,-13.875,37.0,13.5,8.94,0.67,-3.95,stop,11
9.22,30298.227656191,26,3,1,0,3,8.84,0.74,-3.93,-0.1,0.06,0.0,-2.4375,9.6875,-0.5,0.542236328125,-0.04730224609375,-0.83575439453125,-0.072021484375,-13.1875,36.5625,13.1875,8.95,0.67,-3.93,stop,11
9.23,30298.257913597,26,3,1,0,3,8.85,0.75,-3.9,-0.1,0.07,0.01,-5.1875,7.25,1.0625,0.54278564453125,-0.047607421875,-0.83538818359375,-0.0723876953125,-13.1875,36.5625,13.1875,8.96,0.67,-3.92,stop,11
9.24,30298.257913597,26,3,1,0,3,8.85,0.76,-3.92,-0.1,0.08,0.0,-7.0625,5.8125,2.4375,0.54315185546875,-0.04803466796875,-0.8350830078125,-0.07281494140625,-13.1875,36.5625,13.1875,8.96,0.68,-3.91,stop,11
9.25,30298.27338487,26,3,1,0,3,8.86,0.75,-3.87,-0.1,0.07,0.03,-7.875,5.3125,2.9375,0.54351806640625,-0.048583984375,-0.83477783203125,-0.07330322265625,-13.1875,36.5625,13.1875,8.96,0.68,-3.9,stop,11
9.26,30298.27338487,26,3,1,0,3,8.86,0.73,-3.87,-0.1,0.05,0.02,-7.75,4.1875,3.125,0.5438232421875,-0.0491943359375,-0.83453369140625,-0.07373046875,-13.1875,36.5625,13.1875,8.97,0.68,-3.89,stop,11
9.27,30298.297867454,26,3,1,0,3,8.86,0.73,-3.93,-0.1,0.05,-0.04,-7.0625,2.25,3.1875,0.5439453125,-0.04974365234375,-0.8343505859375,-0.0740966796875,-14.5625,36.1875,12.75,8.97,0.68,-3.89,stop,11
9.28,30298.297867454,26,3,1,0,3,8.87,0.72,-3.97,-0.1,0.04,-0.08,-5.5625,1.0,2.375,0.54400634765625,-0.0501708984375,-0.83428955078125,-0.07440185546875,-14.5625,36.1875,12.75,8.97,0.68,-3.89,stop,11
9.29,30298.317491193,26,3,1,0,3,8.95,0.59,-4.01,-0.01,-0.08,-0.12,-4.125,0.625,1.875,0.5440673828125,-0.05047607421875,-0.834228515625,-0.07464599609375,-14.5625,36.1875,12.75,8.97,0.68,-3.89,stop,11
9.3,30298.317491193,26,3,1,0,3,8.99,0.53,-3.99,0.02,-0.14,-0.1,-3.5625,1.0,1.6875,0.5440673828125,-0.05078125,-0.83416748046875,-0.07476806640625,-14.5625,36.1875,12.75,8.97,0.68,-3.89,stop,11
9.31,30298.331531151,26,3,1,0,3,9.02,0.5,-3.96,0.04,-0.17,-0.07,-4.0625,0.625,2.1875,0.54412841796875,-0.0511474609375,-0.8341064453125,-0.074951171875,-14.5625,36.1875,12.75,8.97,0.68,-3.88,stop,11
9.32,30298.331531151,26,3,1,0,3,9.04,0.52,-3.93,0.06,-0.15,-0.04,-4.875,-0.1875,3.0,0.54412841796875,-0.0516357421875,-0.83404541015625,-0.07513427734375,-14.5625,37.25,13.5,8.97,0.67,-3.88,stop,11
9.33,30298.347092796,26,3,1,0,3,9.03,0.51,-3.97,0.05,-0.16,-0.08,-5.0625,-0.9375,3.5,0.54400634765625,-0.05218505859375,-0.83404541015625,-0.0753173828125,-14.5625,37.25,13.5,8.97,0.67,-3.89,stop,11
9.34,30298.347092796,26,3,1,0,3,9.02,0.55,-4.0,0.04,-0.12,-0.11,-4.3125,-0.4375,3.25,0.54400634765625,-0.0526123046875,-0.83404541015625,-0.075439453125,-14.5625,37.25,13.5,8.97,0.67,-3.89,stop,11
9.35,30298.37937425,26,3,1,0,3,9.03,0.61,-3.96,0.05,-0.05,-0.07,-3.125,1.3125,2.625,0.54412841796875,-0.052978515625,-0.83392333984375,-0.07550048828125,-14.5625,37.25,13.5,8.97,0.66,-3.88,stop,11
9.36,30298.37937425,26,3,1,0,3,9.03,0.68,-3.95,0.05,0.01,-0.06,-3.1875,2.875,2.625,0.5443115234375,-0.0533447265625,-0.833740234375,-0.07562255859375,-14.5625,37.25,13.5,8.98,0.66,-3.88,stop,11
9.37,30298.394359683,26,3,1,0,3,8.98,0.69,-3.86,0.0,0.02,0.01,-4.375,3.0625,3.1875,0.5445556640625,-0.0537109375,-0.83355712890625,-0.0758056640625,-13.5625,35.875,12.375,8.98,0.66,-3.87,stop,11
9.38,30298.394359683,26,3,1,0,3,8.99,0.67,-3.84,0.0,0.01,0.02,-5.3125,1.6875,3.6875,0.544677734375,-0.05419921875,-0.83343505859375,-0.07598876953125,-13.5625,35.875,12.375,8.98,0.66,-3.87,stop,11
9.39,30298.406672101,26,3,1,0,3,9.0,0.61,-3.89,0.02,-0.04,-0.02,-5.4375,1.1875,3.9375,0.54473876953125,-0.05474853515625,-0.83331298828125,-0.07623291015625,-13.5625,35.875,12.375,8.98,0.66,-3.87,stop,11
9.4,30298.406672101,26,3,1,0,3,8.97,0.53,-3.93,0.0,-0.12,-0.06,-4.9375,1.9375,3.625,0.544921875,-0.05523681640625,-0.83319091796875,-0.076416015625,-13.5625,35.875,12.375,8.98,0.65,-3.86,stop,11
9.41,30298.437397972,26,3,1,0,3,9.02,0.54,-4.0,0.03,-0.11,-0.13,-4.125,2.8125,2.875,0.54510498046875,-0.0556640625,-0.8330078125,-0.0765380859375,-13.5625,35.875,12.375,8.98,0.65,-3.86,stop,11
9.42,30298.437397972,26,3,1,0,3,9.03,0.55,-3.94,0.03,-0.1,-0.08,-3.25,3.125,2.5625,0.5452880859375,-0.05596923828125,-0.83282470703125,-0.07666015625,-14.25,37.25,13.1875,8.99,0.65,-3.85,stop,11
9.43,30298.452511538,26,3,1,0,3,9.04,0.53,-3.92,0.05,-0.11,-0.07,-3.0,2.625,2.75,0.54547119140625,-0.0562744140625,-0.83270263671875,-0.07672119140625,-14.25,37.25,13.1875,8.99,0.65,-3.85,stop,11
9.44,30298.452511538,26,3,1,0,3,9.01,0.52,-3.94,0.01,-0.12,-0.08,-3.4375,1.5625,3.5,0.54559326171875,-0.05670166015625,-0.83258056640625,-0.0767822265625,-14.25,37.25,13.1875,8.99,0.64,-3.85,stop,11
9.45,30298.4676072,26,3,1,0,3,9.0,0.5,-3.93,0.0,-0.13,-0.08,-3.625,1.0625,3.6875,0.545654296875,-0.05718994140625,-0.83251953125,-0.07684326171875,-14.25,37.25,13.1875,8.99,0.64,-3.85,stop,11
9.46,30298.4676072,26,3,1,0,3,8.99,0.49,-3.95,0.0,-0.14,-0.1,-3.0,1.375,3.5625,0.5457763671875,-0.0576171875,-0.8323974609375,-0.076904296875,-14.25,37.25,13.1875,8.99,0.63,-3.84,stop,11
9.47,30298.498201886,26,3,1,0,3,8.98,0.54,-3.92,-0.01,-0.09,-0.07,-2.4375,2.25,3.1875,0.54595947265625,-0.05780029296875,-0.832275390625,-0.07684326171875,-13.875,36.5625,12.75,8.99,0.63,-3.84,stop,11
9.48,30298.498201886,26,3,1,0,3,8.94,0.53,-3.95,-0.05,-0.09,-0.11,-2.875,1.3125,3.875,0.5460205078125,-0.05828857421875,-0.83221435546875,-0.07684326171875,-13.875,36.5625,12.75,9.0,0.62,-3.84,stop,11
9.49,30298.512840843,26,3,1,0,3,8.93,0.58,-4.03,-0.06,-0.03,-0.18,-3.3125,-1.5,4.9375,0.5458984375,-0.05877685546875,-0.832275390625,-0.0767822265625,-13.875,36.5625,12.75,8.99,0.62,-3.84,stop,11
9.5,30298.512840843,26,3,1,0,3,8.82,0.53,-4.16,-0.16,-0.08,-0.3,-2.5,-5.6875,5.3125,0.54541015625,-0.05938720703125,-0.83251953125,-0.07666015625,-13.875,36.5625,12.75,8.99,0.61,-3.85,stop,11
9.51,30298.527222516,26,3,1,0,3,8.82,0.53,-4.16,-0.16,-0.08,-0.3,-2.5,-5.6875,5.3125,0.54541015625,-0.05938720703125,-0.83251953125,-0.07666015625,-13.875,36.5625,12.75,8.99,0.61,-3.85,stop,11
9.51,30298.527222516,26,3,1,0,3,8.91,0.46,-4.17,-0.07,-0.14,-0.3,1.625,-6.5625,2.4375,0.54486083984375,-0.0595703125,-0.8328857421875,-0.07635498046875,-13.875,36.5625,12.75,8.99,0.61,-3.86,stop,11
9.52,30298.559481305,26,3,1,0,3,8.94,0.55,-3.93,-0.03,-0.05,-0.05,6.125,-2.4375,-0.3125,0.544677734375,-0.05926513671875,-0.8331298828125,-0.07586669921875,-13.875,37.25,13.5,8.98,0.6,-3.87,stop,11
9.53,30298.559481305,26,3,1,0,3,8.91,0.54,-3.82,-0.07,-0.05,0.05,2.875,-2.125,1.875,0.5445556640625,-0.059326171875,-0.833251953125,-0.07550048828125,-13.875,37.25,13.5,8.98,0.6,-3.87,stop,11
9.54,30298.565782941,26,3,1,0,3,9.0,0.61,-3.75,0.01,0.02,0.13,-4.125,-7.6875,6.875,0.54400634765625,-0.06005859375,-0.83355712890625,-0.075439453125,-13.875,37.25,13.5,8.98,0.59,-3.89,stop,11
9.55,30298.565782941,26,3,1,0,3,8.87,0.41,-3.96,-0.09,-0.16,-0.05,-9.5,-13.0,11.3125,0.5430908203125,-0.0614013671875,-0.83404541015625,-0.07550048828125,-13.875,37.25,13.5,8.97,0.58,-3.91,stop,11
9.56,30298.601695783,26,3,1,0,3,8.83,0.38,-4.21,-0.12,-0.18,-0.28,-9.0,-14.6875,11.0625,0.5419921875,-0.06280517578125,-0.8345947265625,-0.0755615234375,-13.875,37.25,13.5,8.96,0.56,-3.93,stop,11
9.57,30298.601695783,26,3,1,0,3,8.84,0.47,-4.31,-0.1,-0.08,-0.36,-1.875,-9.75,6.0,0.54119873046875,-0.06341552734375,-0.8350830078125,-0.0753173828125,-13.875,37.0,13.875,8.95,0.56,-3.95,stop,11
9.59,30298.616320783,26,3,1,0,3,8.74,0.55,-4.08,-0.2,0.0,-0.13,5.625,1.25,0.3125,0.541259765625,-0.06304931640625,-0.835205078125,-0.074462890625,-13.875,37.0,13.875,8.95,0.55,-3.95,stop,11
9.6,30298.616320783,26,3,1,0,3,8.81,0.5,-4.01,-0.14,-0.04,-0.05,4.0,-0.5625,0.875,0.54119873046875,-0.06292724609375,-0.83526611328125,-0.07415771484375,-13.875,37.0,13.875,8.95,0.54,-3.95,stop,11
9.61,30298.631338361,26,3,1,0,3,8.86,0.53,-3.92,-0.08,-0.01,0.03,3.25,-1.0625,0.875,0.5411376953125,-0.0628662109375,-0.8353271484375,-0.0738525390625,-13.875,37.0,13.875,8.95,0.54,-3.95,stop,11
9.62,30298.631338361,26,3,1,0,3,8.9,0.49,-3.86,-0.05,-0.04,0.08,2.5625,1.0,0.375,0.541259765625,-0.062744140625,-0.83526611328125,-0.0736083984375,-12.375,37.25,13.1875,8.95,0.54,-3.95,stop,11
9.63,30298.647378685,26,3,1,0,3,8.88,0.49,-3.85,-0.07,-0.04,0.09,1.625,2.625,0.625,0.54144287109375,-0.06268310546875,-0.83514404296875,-0.073486328125,-12.375,37.25,13.1875,8.95,0.53,-3.95,stop,11
9.64,30298.647378685,26,3,1,0,3,8.83,0.48,-3.9,-0.12,-0.04,0.04,0.875,2.0,0.75,0.5416259765625,-0.06268310546875,-0.8350830078125,-0.07342529296875,-12.375,37.25,13.1875,8.96,0.53,-3.94,stop,11
9.65,30298.677192813,26,3,1,0,3,8.81,0.47,-3.96,-0.15,-0.05,-0.02,1.3125,-0.1875,0.875,0.5416259765625,-0.06268310546875,-0.8350830078125,-0.0732421875,-12.375,37.25,13.1875,8.96,0.53,-3.94,stop,11
9.66,30298.677192813,26,3,1,0,3,8.79,0.46,-4.0,-0.16,-0.06,-0.04,1.75,-3.3125,1.5,0.5413818359375,-0.062744140625,-0.83526611328125,-0.072998046875,-12.375,37.25,13.1875,8.95,0.53,-3.95,stop,11
9.67,30298.691800885,26,3,1,0,3,8.82,0.45,-4.03,-0.13,-0.07,-0.06,1.625,-5.3125,2.125,0.541015625,-0.0628662109375,-0.83551025390625,-0.07275390625,-13.1875,37.6875,12.75,8.95,0.52,-3.96,stop,11
9.68,30298.691800885,26,3,1,0,3,8.83,0.45,-4.02,-0.11,-0.07,-0.05,1.1875,-5.4375,2.5,0.54058837890625,-0.06304931640625,-0.83575439453125,-0.072509765625,-13.1875,37.6875,12.75,8.95,0.52,-3.97,stop,11
9.69,30298.706498558,26,3,1,0,3,8.84,0.51,-4.05,-0.1,0.0,-0.07,0.625,-4.1875,2.5,0.540283203125,-0.063232421875,-0.83599853515625,-0.07232666015625,-13.1875,37.6875,12.75,8.94,0.51,-3.97,stop,11
9.7,30298.706498558,26,3,1,0,3,8.79,0.47,-4.03,-0.15,-0.03,-0.04,0.0,-2.8125,2.25,0.54010009765625,-0.06341552734375,-0.83612060546875,-0.07220458984375,-13.1875,37.6875,12.75,8.94,0.51,-3.98,stop,11
9.71,30298.736980003,26,3,1,0,3,8.67,0.43,-4.06,-0.26,-0.07,-0.07,-0.5625,-2.625,2.0,0.53985595703125,-0.0635986328125,-0.83624267578125,-0.07208251953125,-13.1875,37.6875,12.75,8.94,0.5,-3.98,stop,11
9.72,30298.736980003,26,3,1,0,3,8.65,0.35,-4.09,-0.28,-0.14,-0.09,-0.1875,-4.0625,1.75,0.53955078125,-0.06378173828125,-0.83642578125,-0.07196044921875,-13.1875,37.25,12.75,8.94,0.5,-3.99,stop,11
9.73,30298.751818057,26,3,1,0,3,8.59,0.29,-4.18,-0.34,-0.2,-0.17,0.3125,-6.75,1.3125,0.5389404296875,-0.06396484375,-0.83685302734375,-0.07177734375,-13.1875,37.25,12.75,8.93,0.5,-4.0,stop,11
9.74,30298.751818057,26,3,1,0,3,8.57,0.29,-4.22,-0.35,-0.2,-0.2,1.5625,-8.9375,1.1875,0.5382080078125,-0.0640869140625,-0.83734130859375,-0.07147216796875,-13.1875,37.25,12.75,8.92,0.49,-4.02,stop,11
9.75,30298.767052717,26,3,1,0,3,8.56,0.29,-4.25,-0.35,-0.19,-0.21,3.3125,-10.3125,0.6875,0.537353515625,-0.0640869140625,-0.83795166015625,-0.071044921875,-13.1875,37.25,12.75,8.92,0.49,-4.04,stop,11
9.76,30298.767052717,26,3,1,0,3,8.5,0.33,-4.23,-0.4,-0.14,-0.16,4.375,-12.625,0.6875,0.53631591796875,-0.0640869140625,-0.838623046875,-0.07049560546875,-13.1875,37.25,12.75,8.9,0.48,-4.06,stop,11
9.77,30298.796711937,26,3,1,0,3,8.25,0.44,-4.16,-0.64,-0.03,-0.06,4.0,-17.8125,1.3125,0.53485107421875,-0.06414794921875,-0.839599609375,-0.07000732421875,-13.5625,37.0,15.375,8.89,0.47,-4.09,stop,11
9.78,30298.796711937,26,3,1,0,3,8.25,0.44,-4.16,-0.64,-0.03,-0.06,4.0,-17.8125,1.3125,0.53485107421875,-0.06414794921875,-0.839599609375,-0.07000732421875,-13.5625,37.0,15.375,8.89,0.47,-4.09,stop,11
9.78,30298.802733218,26,3,1,0,3,8.11,0.47,-4.14,-0.76,0.0,0.0,3.25,-23.125,1.875,0.533203125,-0.06427001953125,-0.8406982421875,-0.06951904296875,-13.5625,37.0,15.375,8.87,0.47,-4.13,stop,11
9.79,30298.802733218,26,3,1,0,3,7.93,0.46,-4.05,-0.92,0.0,0.11,3.875,-24.5,1.3125,0.53143310546875,-0.0643310546875,-0.84185791015625,-0.06903076171875,-13.5625,37.0,15.375,8.86,0.46,-4.17,stop,11
9.8,30298.827639834,26,3,1,0,3,7.43,0.47,-3.68,-1.41,0.0,0.52,3.625,-21.4375,1.25,0.5299072265625,-0.06439208984375,-0.84283447265625,-0.068603515625,-13.5625,37.0,15.375,8.84,0.46,-4.2,stop,11
9.81,30298.827639834,26,3,1,0,3,7.1,0.41,-3.45,-1.73,-0.04,0.77,1.875,-18.5,1.6875,0.52850341796875,-0.06451416015625,-0.84368896484375,-0.0682373046875,-13.5625,37.0,15.375,8.83,0.46,-4.23,stop,11
9.82,30298.843138369,26,3,1,0,3,6.76,0.33,-3.25,-2.05,-0.11,1.0,-0.1875,-16.1875,2.0,0.52734375,-0.06475830078125,-0.84442138671875,-0.06805419921875,-13.1875,36.5625,13.1875,8.82,0.45,-4.26,stop,11
9.83,30298.843138369,26,3,1,0,3,6.43,0.23,-3.09,-2.37,-0.21,1.18,-1.5625,-15.5625,2.4375,0.52618408203125,-0.06512451171875,-0.84515380859375,-0.0679931640625,-13.1875,36.5625,13.1875,8.8,0.45,-4.28,stop,11
9.84,30298.856874942,26,3,1,0,3,5.63,0.02,-2.7,-3.16,-0.42,1.61,-1.5625,-17.375,2.375,0.52490234375,-0.06549072265625,-0.84588623046875,-0.06787109375,-13.1875,36.5625,13.1875,8.79,0.45,-4.31,stop,11
9.85,30298.856874942,26,3,1,0,3,5.2,-0.13,-2.49,-3.58,-0.58,1.84,0.0,-19.0625,1.9375,0.52349853515625,-0.06573486328125,-0.8468017578125,-0.06768798828125,-13.1875,36.5625,13.1875,8.78,0.44,-4.34,stop,11
9.86,30298.886729678,26,3,1,0,3,4.69,-0.27,-2.22,-4.07,-0.72,2.14,2.25,-17.875,1.5625,0.522216796875,-0.06585693359375,-0.84759521484375,-0.06732177734375,-13.1875,36.5625,13.1875,8.76,0.44,-4.36,stop,11
9.87,30298.886729678,26,3,1,0,3,3.57,-0.45,-1.85,-5.18,-0.89,2.53,3.8125,-13.375,1.75,0.521240234375,-0.06591796875,-0.84820556640625,-0.06689453125,-12.0625,37.0,13.5,8.75,0.43,-4.39,stop,11
9.88,30298.901580386,26,3,1,0,3,3.05,-0.43,-1.73,-5.7,-0.86,2.66,5.3125,-7.375,1.9375,0.520751953125,-0.06585693359375,-0.84857177734375,-0.06634521484375,-12.0625,37.0,13.5,8.75,0.43,-4.4,stop,11
9.89,30298.901580386,26,3,1,0,3,2.59,-0.31,-1.7,-6.16,-0.74,2.69,7.3125,-1.9375,1.25,0.5206298828125,-0.06561279296875,-0.84869384765625,-0.06573486328125,-12.0625,37.0,13.5,8.75,0.42,-4.4,stop,11
9.9,30298.916387352,26,3,1,0,3,2.32,-0.13,-1.82,-6.42,-0.55,2.57,10.25,-0.875,0.5625,0.5206298828125,-0.065185546875,-0.84881591796875,-0.06494140625,-12.0625,37.0,13.5,8.75,0.41,-4.4,stop,11
9.91,30298.916387352,26,3,1,0,3,3.01,0.01,-2.81,-5.72,-0.38,1.61,13.25,-12.6875,2.125,0.519775390625,-0.0648193359375,-0.84942626953125,-0.06378173828125,-12.0625,37.0,13.5,8.74,0.4,-4.42,stop,11
9.92,30298.947917341,26,3,1,0,3,4.4,-0.02,-3.47,-4.3,-0.39,1.02,14.8125,-45.875,9.875,0.5164794921875,-0.065185546875,-0.8515625,-0.06201171875,-13.1875,36.5625,14.6875,8.7,0.37,-4.49,stop,11
9.93,30298.947917341,26,3,1,0,3,6.33,0.1,-3.89,-2.29,-0.23,0.75,5.9375,-98.8125,25.625,0.50927734375,-0.0673828125,-0.8558349609375,-0.05987548828125,-13.1875,36.5625,14.6875,8.62,0.33,-4.64,stop,11
9.94,30298.961701927,26,3,1,0,3,8.92,0.45,-4.33,0.42,0.17,0.54,-20.125,-153.625,48.5625,0.4979248046875,-0.07269287109375,-0.8621826171875,-0.05828857421875,-13.1875,36.5625,14.6875,8.5,0.27,-4.87,stop,11
9.95,30298.961701927,26,3,1,0,3,16.72,2.27,-5.89,8.39,2.07,-0.73,-51.75,-196.375,78.875,0.48309326171875,-0.08184814453125,-0.86981201171875,-0.0574951171875,-13.1875,36.5625,14.6875,8.33,0.2,-5.16,stop,11
9.96,30298.977192406,26,3,1,0,3,21.82,3.13,-8.48,13.68,3.01,-3.01,-74.5,-214.3125,107.3125,0.46673583984375,-0.09417724609375,-0.87750244140625,-0.05706787109375,-13.1875,36.5625,14.6875,8.13,0.11,-5.46,stop,11
9.97,30298.977192406,26,3,1,0,3,26.37,2.88,-11.75,18.44,2.85,-5.98,-56.4375,-211.875,107.3125,0.45050048828125,-0.10577392578125,-0.884765625,-0.05523681640625,-12.0625,37.0,14.6875,7.93,0.02,-5.76,stop,11
9.98,30299.007275251,26,3,1,0,3,31.8,-1.16,-18.86,24.06,-1.08,-12.85,19.75,-181.1875,61.25,0.43695068359375,-0.11053466796875,-0.89129638671875,-0.0496826171875,-12.0625,37.0,14.6875,7.74,-0.07,-6.01,stop,11
9.99,30299.007275251,26,3,1,0,3,30.6,-3.1,-21.17,22.95,-2.93,-15.04,80.8125,-90.1875,0.0625,0.4306640625,-0.10784912109375,-0.89501953125,-0.04248046875,-12.0625,37.0,14.6875,7.65,-0.16,-6.13,stop,11
10.0,30299.023126773,26,3,1,0,3,25.61,-1.6,-17.67,17.9,-1.43,-11.6,81.375,48.75,-59.5625,0.43505859375,-0.0999755859375,-0.89398193359375,-0.038818359375,-12.0625,37.0,14.6875,7.7,-0.17,-6.06,stop,11
10.01,30299.023126773,26,3,1,0,3,20.11,-0.04,-12.82,12.2,0.02,-7.03,64.8125,197.9375,-122.1875,0.4505615234375,-0.0872802734375,-0.8875732421875,-0.0401611328125,-12.0625,37.0,14.6875,7.91,-0.07,-5.79,stop,11
10.02,30299.03706114,26,3,1,0,3,14.28,0.26,-12.46,6.05,0.21,-7.12,65.5625,322.75,-133.8125,0.475341796875,-0.07318115234375,-0.875732421875,-0.04278564453125,-6.875,38.0625,16.1875,8.22,0.05,-5.33,stop,11
10.03,30299.03706114,26,3,1,0,3,12.93,0.31,-12.73,4.44,0.16,-7.82,36.5625,298.6875,-91.3125,0.49786376953125,-0.06353759765625,-0.86370849609375,-0.045654296875,-6.875,38.0625,16.1875,8.49,0.15,-4.9,stop,11
10.04,30299.068502098,26,3,1,0,3,11.94,0.35,-11.78,3.33,0.13,-7.1,-28.0625,151.0625,-29.6875,0.50897216796875,-0.0618896484375,-0.85711669921875,-0.04986572265625,-6.875,38.0625,16.1875,8.61,0.22,-4.67,stop,11
10.05,30299.068502098,26,3,1,0,3,11.43,0.32,-10.14,2.81,0.06,-5.47,-82.9375,-1.5625,19.5,0.5084228515625,-0.06707763671875,-0.856689453125,-0.05523681640625,-6.875,38.0625,16.1875,8.61,0.25,-4.67,stop,11
10.06,30299.074394676,26,3,1,0,3,11.43,0.32,-10.14,2.81,0.06,-5.47,-82.9375,-1.5625,19.5,0.5084228515625,-0.06707763671875,-0.856689453125,-0.05523681640625,-6.875,38.0625,16.1875,8.61,0.25,-4.67,stop,11
10.06,30299.074394676,26,3,1,0,3,11.49,0.94,-7.3,2.93,0.67,-2.52,-90.75,-68.3125,39.6875,0.50299072265625,-0.07440185546875,-0.8590087890625,-0.059814453125,-6.875,38.0625,16.1875,8.56,0.27,-4.77,stop,11
10.07,30299.098221703,26,3,1,0,3,11.51,1.49,-6.22,2.97,1.21,-1.4,-61.9375,-35.625,30.5,0.50018310546875,-0.07763671875,-0.8602294921875,-0.061767578125,-12.0625,37.25,12.75,8.53,0.28,-4.82,stop,11
10.08,30299.098221703,26,3,1,0,3,11.11,1.93,-4.99,2.53,1.62,-0.24,-38.6875,48.5625,4.8125,0.50360107421875,-0.07940673828125,-0.85784912109375,-0.06475830078125,-12.0625,37.25,12.75,8.57,0.3,-4.75,stop,11
10.09,30299.112098615,26,3,1,0,3,8.23,2.24,-2.77,-0.45,1.88,1.75,-41.5,140.25,-16.625,0.513671875,-0.07916259765625,-0.85150146484375,-0.069580078125,-12.0625,37.25,12.75,8.68,0.36,-4.53,stop,11
10.1,30299.112098615,26,3,1,0,3,6.41,1.88,-1.99,-2.43,1.43,2.2,-55.25,215.875,-28.375,0.529052734375,-0.0782470703125,-0.84149169921875,-0.07647705078125,-12.0625,37.25,12.75,8.84,0.45,-4.2,stop,11
10.11,30299.127215274,26,3,1,0,3,4.9,1.26,-1.6,-4.12,0.72,2.18,-60.4375,264.25,-33.875,0.54766845703125,-0.07672119140625,-0.82891845703125,-0.084228515625,-12.0625,37.25,12.75,9.03,0.54,-3.78,stop,11
10.12,30299.127215274,26,3,1,0,3,3.61,0.44,-1.48,-5.58,-0.19,1.84,-60.1875,278.4375,-33.3125,0.56695556640625,-0.07513427734375,-0.81512451171875,-0.092041015625,-10.5625,37.6875,15.75,9.19,0.63,-3.33,stop,11
10.13,30299.15751402,26,3,1,0,3,1.6,-1.02,-1.03,-7.73,-1.74,1.87,-65.0,253.6875,-29.875,0.58416748046875,-0.07415771484375,-0.80206298828125,-0.09979248046875,-10.5625,37.6875,15.75,9.33,0.71,-2.91,stop,11
10.14,30299.15751402,26,3,1,0,3,0.74,-1.25,-0.81,-8.68,-2.04,1.74,-69.0,210.375,-23.5,0.59814453125,-0.07415771484375,-0.79071044921875,-0.10711669921875,-10.5625,37.6875,15.75,9.43,0.79,-2.56,stop,11
10.15,30299.17310423,26,3,1,0,3,-0.19,-0.9,-0.72,-9.69,-1.74,1.55,-60.375,170.1875,-14.25,0.6092529296875,-0.07476806640625,-0.78131103515625,-0.1131591796875,-10.5625,37.6875,15.75,9.5,0.84,-2.27,stop,11
10.16,30299.17310423,26,3,1,0,3,-1.05,-0.38,-0.59,-10.61,-1.26,1.44,-45.3125,136.75,-9.8125,0.6181640625,-0.07513427734375,-0.7735595703125,-0.11761474609375,-10.5625,37.6875,15.75,9.55,0.87,-2.04,stop,11
10.17,30299.187400007,26,3,1,0,3,-1.92,-0.08,-0.94,-11.51,-0.98,0.89,-38.1875,117.0625,-7.8125,0.625732421875,-0.07513427734375,-0.76690673828125,-0.12115478515625,-14.25,36.1875,13.1875,9.59,0.89,-1.83,stop,11
10.18,30299.187400007,26,3,1,0,3,-2.06,-0.24,-1.28,-11.68,-1.16,0.37,-45.1875,100.0,-1.1875,0.632080078125,-0.07647705078125,-0.76092529296875,-0.1248779296875,-14.25,36.1875,13.1875,9.62,0.91,-1.66,stop,11
10.19,30299.217565941,26,3,1,0,3,-2.16,-0.64,-1.35,-11.8,-1.56,0.17,-58.375,76.625,7.625,0.6368408203125,-0.079345703125,-0.7559814453125,-0.12884521484375,-14.25,36.1875,13.1875,9.64,0.91,-1.52,stop,11
10.2,30299.217565941,26,3,1,0,3,-2.25,-1.25,-1.6,-11.91,-2.16,-0.17,-64.3125,54.75,15.0,0.64013671875,-0.08331298828125,-0.75213623046875,-0.13262939453125,-14.25,36.1875,13.1875,9.65,0.91,-1.42,stop,11
10.21,30299.231785586,26,3,1,0,3,-2.06,-1.26,-1.85,-11.73,-2.15,-0.49,-56.3125,36.8125,18.125,0.642333984375,-0.08721923828125,-0.749267578125,-0.13555908203125,-14.25,36.1875,13.1875,9.67,0.89,-1.35,stop,11
10.22,30299.231785586,26,3,1,0,3,-1.81,-0.95,-2.03,-11.48,-1.82,-0.71,-36.5625,15.0625,17.0625,0.64324951171875,-0.090087890625,-0.74786376953125,-0.13702392578125,-17.5625,35.875,13.5,9.67,0.87,-1.32,stop,11
10.23,30299.246503034,26,3,1,0,3,-1.48,0.25,-2.12,-11.16,-0.6,-0.76,-9.9375,-20.125,8.5,0.6419677734375,-0.0914306640625,-0.74884033203125,-0.13702392578125,-17.5625,35.875,13.5,9.67,0.86,-1.35,stop,11
10.24,30299.246503034,26,3,1,0,3,-1.53,-0.91,-0.86,-11.19,-1.77,0.58,8.875,-51.3125,-2.625,0.63861083984375,-0.09136962890625,-0.7518310546875,-0.13616943359375,-17.5625,35.875,13.5,9.66,0.86,-1.44,stop,11
10.25,30299.277804385,26,3,1,0,3,-1.49,-0.29,-1.03,-11.14,-1.11,0.49,14.5,-52.375,20.9375,0.63555908203125,-0.09259033203125,-0.7547607421875,-0.1336669921875,-17.5625,35.875,13.5,9.65,0.82,-1.53,stop,11
10.26,30299.277804385,26,3,1,0,3,-1.25,-0.05,-1.18,-10.89,-0.84,0.47,16.5625,-69.5,22.0625,0.63134765625,-0.09393310546875,-0.75860595703125,-0.13079833984375,-17.5625,35.875,13.5,9.63,0.78,-1.65,stop,11
10.27,30299.291860334,26,3,1,0,3,-0.91,0.05,-1.17,-10.51,-0.7,0.66,23.625,-106.6875,11.5,0.62457275390625,-0.0946044921875,-0.7646484375,-0.127685546875,-16.75,36.1875,14.6875,9.6,0.75,-1.83,stop,11
10.28,30299.291860334,26,3,1,0,3,-0.37,0.08,-1.24,-9.93,-0.63,0.83,33.0625,-140.4375,11.5625,0.61553955078125,-0.09515380859375,-0.77252197265625,-0.1236572265625,-16.75,36.1875,14.6875,9.55,0.72,-2.07,stop,11
10.29,30299.307701236,26,3,1,0,3,-0.05,-0.03,-1.16,-9.54,-0.72,1.19,34.875,-172.3125,9.5625,0.604248046875,-0.09576416015625,-0.781982421875,-0.119384765625,-16.75,36.1875,14.6875,9.49,0.69,-2.36,stop,11
10.3,30299.307701236,26,3,1,0,3,0.34,0.1,-1.38,-9.05,-0.55,1.3,30.875,-196.875,18.625,0.59112548828125,-0.097412109375,-0.79241943359375,-0.1146240234375,-16.75,36.1875,14.6875,9.4,0.65,-2.69,stop,11
10.31,30299.339270734,26,3,1,0,3,2.53,-0.2,-3.23,-6.75,-0.79,-0.16,25.8125,-227.75,27.125,0.57574462890625,-0.1002197265625,-0.80401611328125,-0.10943603515625,-16.75,36.1875,14.6875,9.29,0.59,-3.06,stop,11
10.32,30299.339270734,26,3,1,0,3,2.53,-0.2,-3.23,-6.75,-0.79,-0.16,25.8125,-227.75,27.125,0.57574462890625,-0.1002197265625,-0.80401611328125,-0.10943603515625,-16.75,36.1875,14.6875,9.29,0.59,-3.06,stop,11
10.32,30299.347502465,26,3,1,0,3,4.25,-0.67,-4.59,-4.88,-1.21,-1.07,23.125,-282.4375,30.25,0.5562744140625,-0.1038818359375,-0.81793212890625,-0.10382080078125,-15.0,36.5625,14.25,9.13,0.53,-3.52,stop,11
10.33,30299.347502465,26,3,1,0,3,6.45,-1.26,-6.48,-2.44,-1.71,-2.38,27.9375,-359.0,42.75,0.531005859375,-0.1087646484375,-0.8348388671875,-0.096435546875,-15.0,36.5625,14.25,8.89,0.44,-4.09,stop,11
10.34,30299.369148623,26,3,1,0,3,9.46,-1.94,-9.13,0.91,-2.26,-4.35,42.4375,-452.25,58.5,0.49853515625,-0.11474609375,-0.85491943359375,-0.08624267578125,-15.0,36.5625,14.25,8.55,0.32,-4.78,stop,11
10.35,30299.369148623,26,3,1,0,3,17.73,-2.42,-15.57,9.65,-2.58,-10.01,73.4375,-528.5625,66.1875,0.4598388671875,-0.120361328125,-0.8768310546875,-0.072509765625,-15.0,36.5625,14.25,8.07,0.16,-5.55,stop,11
10.36,30299.382314151,26,3,1,0,3,23.79,-2.16,-20.13,16.22,-2.14,-13.89,115.5625,-498.25,47.5625,0.42279052734375,-0.12237548828125,-0.8961181640625,-0.05645751953125,-15.0,36.5625,14.25,7.56,-0.02,-6.23,stop,11
10.37,30299.382314151,26,3,1,0,3,32.89,-0.51,-28.51,25.63,-0.32,-21.92,159.1875,-275.1875,-13.25,0.4027099609375,-0.1168212890625,-0.9068603515625,-0.04156494140625,-8.375,37.375,18.0625,7.25,-0.18,-6.59,stop,11
10.38,30299.397673404,26,3,1,0,3,39.22,6.33,-25.33,31.88,6.62,-18.83,224.9375,67.75,-112.3125,0.40985107421875,-0.0997314453125,-0.90625,-0.02838134765625,-8.375,37.375,18.0625,7.34,-0.29,-6.49,stop,11
10.39,30299.397673404,26,3,1,0,3,33.14,4.45,-22.18,25.4,4.84,-16.17,114.625,361.3125,-20.25,0.4390869140625,-0.09307861328125,-0.893310546875,-0.02313232421875,-8.375,37.375,18.0625,7.73,-0.39,-6.01,stop,11
10.4,30299.427346052,26,3,1,0,3,21.74,-1.29,-14.39,13.69,-0.99,-8.79,-85.6875,308.5625,-7.1875,0.46221923828125,-0.09515380859375,-0.88104248046875,-0.0325927734375,-8.375,37.375,18.0625,8.04,-0.29,-5.59,stop,11
10.41,30299.427346052,26,3,1,0,3,16.54,-3.8,-11.45,8.32,-3.67,-6.11,-87.6875,180.25,-63.8125,0.47509765625,-0.09326171875,-0.8739013671875,-0.04339599609375,-8.375,37.375,18.0625,8.22,-0.12,-5.34,stop,11
10.42,30299.443417951,26,3,1,0,3,10.21,-1.3,-8.18,1.88,-1.25,-3.01,-56.625,120.8125,-16.8125,0.48370361328125,-0.0938720703125,-0.8687744140625,-0.04937744140625,-6.875,39.1875,15.5,8.33,-0.04,-5.16,stop,11
10.43,30299.443417951,26,3,1,0,3,9.78,0.58,-8.0,1.41,0.57,-2.89,-78.8125,40.5,5.9375,0.48614501953125,-0.09747314453125,-0.86663818359375,-0.055419921875,-6.875,39.1875,15.5,8.36,0.01,-5.11,stop,11
10.44,30299.458170352,26,3,1,0,3,10.91,1.81,-6.78,2.59,1.69,-1.59,-109.125,-55.5,-5.8125,0.48095703125,-0.1019287109375,-0.86846923828125,-0.0634765625,-6.875,39.1875,15.5,8.31,0.11,-5.19,moving,11
10.45,30299.458170352,26,3,1,0,3,12.25,2.76,-5.0,4.01,2.57,0.31,-106.6875,-91.25,17.3125,0.47308349609375,-0.10821533203125,-0.87152099609375,-0.07000732421875,-6.875,39.1875,15.5,8.23,0.19,-5.32,moving,11
10.46,30299.488201073,26,3,1,0,3,11.4,2.94,-3.97,3.2,2.74,1.38,-107.8125,-36.0625,65.0,0.4697265625,-0.11785888671875,-0.8717041015625,-0.07513427734375,-6.875,39.1875,15.5,8.2,0.19,-5.36,moving,11
10.47,30299.488201073,26,3,1,0,3,10.06,2.16,-2.07,1.82,1.94,3.24,-106.5,30.5625,53.0,0.47125244140625,-0.12603759765625,-0.869140625,-0.0814208984375,-9.5,37.6875,15.5,8.23,0.22,-5.32,moving,11
10.48,30299.501900129,26,3,1,0,3,8.07,1.8,0.14,-0.27,1.51,5.27,-61.125,129.375,-10.3125,0.480224609375,-0.1268310546875,-0.86346435546875,-0.087890625,-9.5,37.6875,15.5,8.35,0.29,-5.13,moving,11
10.49,30299.501900129,26,3,1,0,3,3.94,1.23,0.58,-4.66,0.83,5.26,-5.3125,304.125,-66.25,0.50238037109375,-0.11968994140625,-0.85107421875,-0.0943603515625,-9.5,37.6875,15.5,8.6,0.39,-4.68,moving,11
10.5,30299.516787417,26,3,1,0,3,2.3,1.01,-0.05,-6.65,0.5,3.88,28.75,480.6875,-88.25,0.53717041015625,-0.1077880859375,-0.8304443359375,-0.10107421875,-9.5,37.6875,15.5,8.96,0.51,-3.94,moving,11
10.51,30299.516787417,26,3,1,0,3,0.55,0.49,-0.39,-8.75,-0.13,2.62,26.125,581.5,-81.8125,0.57806396484375,-0.09539794921875,-0.80316162109375,-0.10833740234375,-9.5,37.6875,15.5,9.3,0.62,-3.02,moving,11
10.52,30299.548158348,26,3,1,0,3,-1.01,0.03,-0.85,-10.57,-0.69,1.17,-16.5,602.25,-60.0,0.61865234375,-0.086181640625,-0.77203369140625,-0.11737060546875,-8.75,36.5625,18.5,9.56,0.73,-2.02,moving,11
10.53,30299.548158348,26,3,1,0,3,-3.85,-1.37,-1.66,-13.56,-2.18,-0.59,-86.1875,562.375,-30.9375,0.65472412109375,-0.0828857421875,-0.74017333984375,-0.12890625,-8.75,36.5625,18.5,9.71,0.8,-1.07,moving,11
10.54,30299.563129052,26,3,1,0,3,-4.35,-1.73,-2.73,-14.12,-2.56,-2.48,-149.875,469.0625,-2.5,0.68328857421875,-0.0859375,-0.7110595703125,-0.14202880859375,-8.75,36.5625,18.5,9.76,0.82,-0.25,moving,11
10.55,30299.563129052,26,3,1,0,3,-4.61,-1.45,-3.57,-14.38,-2.25,-3.85,-174.875,298.1875,15.25,0.7003173828125,-0.09356689453125,-0.690673828125,-0.15411376953125,-8.75,36.5625,18.5,9.76,0.8,0.27,moving,11
10.56,30299.592729231,26,3,1,0,3,-4.39,-1.02,-4.0,-14.16,-1.79,-4.4,-148.125,60.4375,14.1875,0.702880859375,-0.1026611328125,-0.684814453125,-0.16265869140625,-8.75,36.5625,18.5,9.76,0.76,0.4,moving,11
10.57,30299.592729231,26,3,1,0,3,-2.99,-0.71,-3.34,-12.77,-1.46,-3.45,-79.4375,-176.625,7.625,0.69158935546875,-0.1104736328125,-0.69439697265625,-0.16534423828125,-17.1875,36.5625,11.5625,9.77,0.75,0.11,moving,11
10.58,30299.599099511,26,3,1,0,3,-2.99,-0.71,-3.34,-12.77,-1.46,-3.45,-79.4375,-176.625,7.625,0.69158935546875,-0.1104736328125,-0.69439697265625,-0.16534423828125,-17.1875,36.5625,11.5625,9.77,0.75,0.11,moving,11
10.58,30299.599099511,26,3,1,0,3,-1.89,-0.56,-2.88,-11.66,-1.31,-2.4,-3.625,-348.75,4.5,0.670166015625,-0.115966796875,-0.71502685546875,-0.16180419921875,-17.1875,36.5625,11.5625,9.76,0.74,-0.48,moving,11
10.59,30299.607016503,26,3,1,0,3,-0.99,-0.45,-2.63,-10.69,-1.18,-1.4,48.375,-434.4375,3.5,0.64312744140625,-0.119384765625,-0.74053955078125,-0.15411376953125,-17.1875,36.5625,11.5625,9.7,0.73,-1.22,moving,11
10.6,30299.607016503,26,3,1,0,3,0.62,-0.36,-2.17,-8.95,-1.07,-0.2,71.0,-434.875,-0.875,0.61529541015625,-0.12109375,-0.76531982421875,-0.1448974609375,-17.1875,36.5625,11.5625,9.58,0.71,-1.96,moving,11
10.61,30299.638120914,26,3,1,0,3,0.88,-0.22,-1.8,-8.55,-0.92,0.78,74.5,-369.375,-6.1875,0.59100341796875,-0.12127685546875,-0.7857666015625,-0.13629150390625,-17.1875,36.5625,11.5625,9.43,0.69,-2.59,moving,11
10.62,30299.638120914,26,3,1,0,3,0.83,-0.22,-1.42,-8.46,-0.89,1.61,71.8125,-271.4375,-7.875,0.5728759765625,-0.1202392578125,-0.80047607421875,-0.12890625,-16.5,34.6875,15.75,9.29,0.67,-3.04,moving,11
10.63,30299.652125227,26,3,1,0,3,0.73,-0.39,-1.19,-8.46,-1.03,2.14,68.3125,-174.6875,-7.75,0.56121826171875,-0.11822509765625,-0.8099365234375,-0.12261962890625,-16.5,34.6875,15.75,9.19,0.64,-3.33,moving,11
10.64,30299.652125227,26,3,1,0,3,0.78,-1.12,-1.16,-8.34,-1.74,2.34,65.375,-110.125,-5.3125,0.55401611328125,-0.11578369140625,-0.8160400390625,-0.11712646484375,-16.5,34.6875,15.75,9.13,0.61,-3.51,moving,11
10.65,30299.66692198,26,3,1,0,3,1.23,-1.51,-1.47,-7.84,-2.09,2.19,57.5625,-89.75,0.5,0.54815673828125,-0.11395263671875,-0.82098388671875,-0.11212158203125,-16.5,34.6875,15.75,9.07,0.58,-3.66,moving,11
10.66,30299.66692198,26,3,1,0,3,2.08,-1.92,-1.98,-6.91,-2.45,1.87,44.25,-119.6875,11.0625,0.5400390625,-0.11376953125,-0.82696533203125,-0.10723876953125,-16.5,34.6875,15.75,8.99,0.53,-3.86,moving,11
10.67,30299.696891747,26,3,1,0,3,5.12,-2.44,-3.64,-3.73,-2.92,0.51,26.6875,-189.4375,24.0625,0.52679443359375,-0.11602783203125,-0.8358154296875,-0.10223388671875,-12.0625,35.875,16.1875,8.86,0.47,-4.15,moving,11
10.68,30299.696891747,26,3,1,0,3,6.96,-2.45,-4.91,-1.69,-2.86,-0.33,11.5,-270.9375,38.875,0.50732421875,-0.1207275390625,-0.84771728515625,-0.09686279296875,-12.0625,35.875,16.1875,8.66,0.4,-4.57,moving,11
10.69,30299.711928368,26,3,1,0,3,9.38,-2.25,-6.67,1.0,-2.57,-1.59,8.3125,-336.3125,51.9375,0.48272705078125,-0.12701416015625,-0.86175537109375,-0.09033203125,-12.0625,35.875,16.1875,8.38,0.32,-5.07,moving,11
10.7,30299.711928368,26,3,1,0,3,12.82,-2.13,-9.44,4.76,-2.35,-3.86,24.0,-346.0625,53.4375,0.4571533203125,-0.1326904296875,-0.87554931640625,-0.0823974609375,-12.0625,35.875,16.1875,8.06,0.22,-5.57,moving,11
10.71,30299.726371605,26,3,1,0,3,26.52,-1.51,-22.51,18.71,-1.62,-16.58,57.6875,-254.3125,39.4375,0.43853759765625,-0.13519287109375,-0.88543701171875,-0.07342529296875,-12.0625,35.875,16.1875,7.81,0.11,-5.92,moving,11
10.72,30299.726371605,26,3,1,0,3,34.97,0.22,-32.16,27.27,0.24,-26.09,112.5,-108.0625,8.5,0.4315185546875,-0.1322021484375,-0.89013671875,-0.0631103515625,-9.5,35.875,18.5,7.69,-0.01,-6.07,moving,11
10.73,30299.757218285,26,3,1,0,3,39.22,6.79,-29.58,31.53,6.96,-23.5,206.3125,-5.6875,-53.75,0.43304443359375,-0.12030029296875,-0.8919677734375,-0.04901123046875,-9.5,35.875,18.5,7.69,-0.16,-6.08,moving,11
10.74,30299.757218285,26,3,1,0,3,38.58,15.35,-11.94,30.74,15.56,-6.05,213.3125,139.25,-130.75,0.4454345703125,-0.1014404296875,-0.88873291015625,-0.038818359375,-9.5,35.875,18.5,7.84,-0.2,-5.88,moving,11
10.75,30299.77214724,26,3,1,0,3,19.03,4.6,-10.22,10.87,4.62,-4.79,-21.125,328.4375,-119.6875,0.47003173828125,-0.09185791015625,-0.87652587890625,-0.0479736328125,-9.5,35.875,18.5,8.16,-0.02,-5.42,moving,11
10.76,30299.77214724,26,3,1,0,3,15.61,-1.05,-11.43,7.16,-1.26,-6.45,-135.5625,305.4375,-73.25,0.49176025390625,-0.0904541015625,-0.8636474609375,-0.06378173828125,-9.5,35.875,18.5,8.44,0.2,-4.98,moving,11
10.77,30299.788337711,26,3,1,0,3,15.26,-4.45,-11.76,6.71,-4.77,-6.97,-124.8125,129.125,-5.0625,0.50042724609375,-0.0947265625,-0.85736083984375,-0.07440185546875,-6.25,38.0625,15.0,8.55,0.32,-4.78,moving,11
10.78,30299.788337711,26,3,1,0,3,21.32,-4.78,-13.88,12.85,-5.1,-8.95,-131.4375,-104.75,73.125,0.49188232421875,-0.1065673828125,-0.86041259765625,-0.08013916015625,-6.25,38.0625,15.0,8.46,0.32,-4.93,moving,11
10.79,30299.817250023,26,3,1,0,3,22.29,-2.94,-10.62,14.06,-3.23,-5.29,-168.8125,-275.625,125.5,0.47027587890625,-0.1251220703125,-0.8695068359375,-0.0848388671875,-6.25,38.0625,15.0,8.22,0.29,-5.32,moving,11
10.8,30299.817250023,26,3,1,0,3,22.57,-0.68,-3.85,14.57,-0.94,1.8,-152.8125,-239.625,126.5,0.451171875,-0.1427001953125,-0.87646484375,-0.088623046875,-6.25,38.0625,15.0,8.0,0.26,-5.66,moving,11
10.81,30299.831962344,26,3,1,0,3,23.0,1.17,2.09,14.94,0.88,7.67,-72.5625,56.125,27.4375,0.45477294921875,-0.147216796875,-0.87335205078125,-0.09375,-6.25,38.0625,15.0,8.06,0.29,-5.57,moving,11
10.82,30299.831962344,26,3,1,0,3,11.15,1.52,-1.63,2.73,1.08,3.36,-0.25,397.9375,-100.875,0.48394775390625,-0.13623046875,-0.8582763671875,-0.102783203125,-8.75,36.1875,18.0625,8.42,0.43,-5.0,moving,11
10.83,30299.846249088,26,3,1,0,3,5.54,1.21,-0.2,-3.26,0.55,4.04,-15.25,501.875,-143.3125,0.51953125,-0.12152099609375,-0.83782958984375,-0.1158447265625,-8.75,36.1875,18.0625,8.81,0.66,-4.25,moving,11
10.84,30299.846249088,26,3,1,0,3,5.54,1.21,-0.2,-3.26,0.55,4.04,-15.25,501.875,-143.3125,0.51953125,-0.12152099609375,-0.83782958984375,-0.1158447265625,-8.75,36.1875,18.0625,8.81,0.66,-4.25,moving,11
10.84,30299.862033308,26,3,1,0,3,2.09,0.37,0.71,-7.08,-0.48,4.07,18.625,571.5,-131.8125,0.55938720703125,-0.1051025390625,-0.81243896484375,-0.1263427734375,-8.75,36.1875,18.0625,9.17,0.85,-3.35,moving,11
10.85,30299.862033308,26,3,1,0,3,0.7,-0.07,-1.77,-8.78,-1.05,0.48,16.3125,678.6875,-80.625,0.605712890625,-0.0909423828125,-0.77886962890625,-0.13507080078125,-8.75,36.1875,18.0625,9.49,0.98,-2.25,moving,11
10.86,30299.876457177,26,3,1,0,3,-0.7,-0.45,-6.2,-10.38,-1.5,-5.0,-64.3125,623.5,-26.6875,0.646240234375,-0.0850830078125,-0.7442626953125,-0.1456298828125,-8.75,36.1875,18.0625,9.67,1.04,-1.19,moving,11
10.87,30299.876457177,26,3,1,0,3,-2.06,-0.77,-5.78,-11.8,-1.83,-5.27,-164.1875,387.8125,10.125,0.669921875,-0.09002685546875,-0.7197265625,-0.158447265625,-12.0625,35.0625,17.0,9.73,1.05,-0.51,moving,11
10.88,30299.907045067,26,3,1,0,3,-1.84,-0.73,-5.85,-11.59,-1.75,-5.63,-217.0625,149.125,31.6875,0.67779541015625,-0.10260009765625,-0.70758056640625,-0.17138671875,-12.0625,35.0625,17.0,9.75,1.01,-0.21,moving,11
10.89,30299.907045067,26,3,1,0,3,-0.68,-0.78,-5.43,-10.44,-1.73,-5.16,-190.375,-53.625,40.1875,0.67327880859375,-0.11712646484375,-0.70745849609375,-0.18023681640625,-12.0625,35.0625,17.0,9.75,0.95,-0.27,moving,11
10.9,30299.921432071,26,3,1,0,3,-0.56,-1.35,-4.24,-10.3,-2.25,-3.58,-97.9375,-233.875,33.9375,0.658203125,-0.12860107421875,-0.7191162109375,-0.18182373046875,-12.0625,35.0625,17.0,9.74,0.9,-0.66,moving,11
10.91,30299.921432071,26,3,1,0,3,-0.02,-1.55,-3.32,-9.71,-2.42,-2.08,-2.75,-342.3125,16.1875,0.63665771484375,-0.13519287109375,-0.73822021484375,-0.1771240234375,-12.0625,35.0625,17.0,9.68,0.87,-1.24,moving,11
10.92,30299.937001203,26,3,1,0,3,0.82,-1.09,-2.94,-8.76,-1.96,-1.07,62.0,-369.875,-3.5,0.6131591796875,-0.13714599609375,-0.7593994140625,-0.16888427734375,-19.375,34.6875,14.25,9.58,0.86,-1.87,moving,11
10.93,30299.937001203,26,3,1,0,3,1.75,0.13,-2.27,-7.69,-0.72,0.19,103.125,-353.8125,-20.125,0.59033203125,-0.13543701171875,-0.7796630859375,-0.1588134765625,-19.375,34.6875,14.25,9.44,0.86,-2.47,moving,11
10.94,30299.96753636,26,3,1,0,3,1.72,0.57,-1.66,-7.56,-0.27,1.34,130.25,-318.0,-32.25,0.569580078125,-0.13092041015625,-0.79791259765625,-0.14776611328125,-19.375,34.6875,14.25,9.29,0.85,-3.01,moving,11
10.95,30299.96753636,26,3,1,0,3,1.62,0.94,-1.03,-7.51,0.11,2.41,143.3125,-259.8125,-39.875,0.5523681640625,-0.12432861328125,-0.8128662109375,-0.13677978515625,-19.375,34.6875,14.25,9.13,0.83,-3.45,moving,11
10.96,30299.982169945,26,3,1,0,3,1.56,1.13,-0.43,-7.45,0.32,3.32,139.75,-180.875,-41.3125,0.54046630859375,-0.1168212890625,-0.82354736328125,-0.1268310546875,-19.375,34.6875,14.25,9.01,0.81,-3.76,moving,11
10.97,30299.982169945,26,3,1,0,3,1.5,0.73,0.89,-7.44,-0.05,4.82,116.8125,-95.125,-33.5625,0.53436279296875,-0.10992431640625,-0.82958984375,-0.1190185546875,-13.5625,35.0625,19.25,8.95,0.78,-3.92,moving,11
10.98,30300.013691674,26,3,1,0,3,1.33,0.5,1.13,-7.6,-0.25,5.09,71.75,-16.625,-17.3125,0.53363037109375,-0.10546875,-0.83123779296875,-0.114501953125,-13.5625,35.0625,19.25,8.93,0.76,-3.96,moving,11
10.99,30300.013691674,26,3,1,0,3,0.74,0.46,1.14,-8.22,-0.27,5.05,14.6875,35.6875,5.125,0.536376953125,-0.1048583984375,-0.8297119140625,-0.113525390625,-13.5625,35.0625,19.25,8.96,0.74,-3.91,moving,11
11.0,30300.026959496,26,3,1,0,3,-0.02,0.21,0.74,-9.03,-0.51,4.55,-36.375,56.9375,23.0,0.5404052734375,-0.107666015625,-0.82647705078125,-0.11553955078125,-13.5625,35.0625,19.25,9.0,0.73,-3.81,moving,11
11.01,30300.026959496,26,3,1,0,3,0.01,0.18,0.33,-9.02,-0.53,4.05,-72.8125,54.125,36.0,0.5439453125,-0.11309814453125,-0.82281494140625,-0.11962890625,-13.5625,35.0625,19.25,9.04,0.72,-3.72,moving,11
11.02,30300.041517764,26,3,1,0,3,0.39,0.12,-0.53,-8.66,-0.58,3.13,-97.5625,27.125,46.25,0.54534912109375,-0.12078857421875,-0.82000732421875,-0.12469482421875,-11.6875,36.5625,17.0,9.06,0.71,-3.66,moving,11
11.03,30300.041517764,26,3,1,0,3,1.03,-0.15,-1.51,-8.01,-0.85,2.19,-104.25,-33.375,50.6875,0.54241943359375,-0.1297607421875,-0.81988525390625,-0.12933349609375,-11.6875,36.5625,17.0,9.05,0.7,-3.7,moving,11
11.04,30300.057661238,26,3,1,0,3,2.83,-0.69,-2.83,-6.13,-1.37,1.06,-70.5,-127.8125,47.3125,0.53289794921875,-0.13787841796875,-0.8245849609375,-0.13067626953125,-11.6875,36.5625,17.0,8.97,0.67,-3.9,moving,11
11.05,30300.057661238,26,3,1,0,3,4.75,-1.18,-4.1,-4.07,-1.79,0.12,-6.875,-216.75,38.8125,0.517578125,-0.1434326171875,-0.83392333984375,-0.12677001953125,-11.6875,36.5625,17.0,8.82,0.61,-4.23,moving,11
11.06,30300.087358422,26,3,1,0,3,7.27,-1.46,-6.33,-1.33,-1.98,-1.65,48.1875,-284.8125,36.375,0.4976806640625,-0.14703369140625,-0.84661865234375,-0.11798095703125,-11.6875,36.5625,17.0,8.6,0.52,-4.67,moving,11
11.07,30300.087358422,26,3,1,0,3,15.16,-1.18,-14.09,6.85,-1.57,-8.9,77.0,-342.9375,42.4375,0.47357177734375,-0.1502685546875,-0.861328125,-0.10601806640625,-11.0,36.1875,18.875,8.31,0.39,-5.18,moving,11
11.08,30300.102063704,26,3,1,0,3,20.29,0.11,-18.18,12.33,-0.12,-12.45,93.8125,-377.5625,42.875,0.446533203125,-0.15301513671875,-0.87677001953125,-0.0921630859375,-11.0,36.1875,18.875,7.95,0.24,-5.72,moving,11
11.09,30300.102063704,26,3,1,0,3,20.29,0.11,-18.18,12.33,-0.12,-12.45,93.8125,-377.5625,42.875,0.446533203125,-0.15301513671875,-0.87677001953125,-0.0921630859375,-11.0,36.1875,18.875,7.95,0.24,-5.72,moving,11
11.09,30300.117849877,26,3,1,0,3,26.02,1.71,-22.57,18.45,1.6,-16.34,124.625,-369.375,-0.4375,0.419677734375,-0.15106201171875,-0.89166259765625,-0.07763671875,-11.0,36.1875,18.875,7.56,0.11,-6.23,moving,11
11.1,30300.117849877,26,3,1,0,3,34.45,1.94,-26.9,27.1,1.91,-20.4,188.0,-198.9375,-99.6875,0.40582275390625,-0.13775634765625,-0.9012451171875,-0.06402587890625,-11.0,36.1875,18.875,7.34,0.03,-6.49,moving,11
11.11,30300.131505069,26,3,1,0,3,31.41,6.58,-20.57,23.87,6.64,-14.3,215.375,179.3125,-110.125,0.4217529296875,-0.12042236328125,-0.8970947265625,-0.0531005859375,-11.0,36.1875,18.875,7.54,-0.06,-6.26,moving,11
11.12,30300.131505069,26,3,1,0,3,21.04,2.81,-17.1,13.06,2.9,-11.39,57.25,407.3125,-23.3125,0.45379638671875,-0.11456298828125,-0.882080078125,-0.0537109375,-4.75,36.5625,20.0,7.97,-0.09,-5.71,moving,11
11.13,30300.147537214,26,3,1,0,3,18.1,-1.85,-12.42,9.91,-1.9,-7.03,-36.9375,227.5625,-73.4375,0.470458984375,-0.1092529296875,-0.8734130859375,-0.06170654296875,-4.75,36.5625,20.0,8.19,0.04,-5.39,moving,11
11.14,30300.147537214,26,3,1,0,3,15.66,-3.43,-11.48,7.42,-3.63,-6.17,-62.3125,54.3125,-61.4375,0.4736328125,-0.10687255859375,-0.8714599609375,-0.06951904296875,-4.75,36.5625,20.0,8.24,0.19,-5.31,moving,11
11.15,30300.177362288,26,3,1,0,3,11.77,0.19,-11.9,3.55,-0.04,-6.56,-83.4375,-25.375,18.6875,0.47100830078125,-0.11187744140625,-0.87176513671875,-0.0748291015625,-4.75,36.5625,20.0,8.21,0.24,-5.34,moving,11
11.16,30300.177362288,26,3,1,0,3,11.21,2.21,-11.85,3.05,1.96,-6.41,-107.25,-68.125,67.5,0.4652099609375,-0.121826171875,-0.8731689453125,-0.07952880859375,-4.75,36.5625,20.0,8.15,0.25,-5.43,moving,11
11.17,30300.192516625,26,3,1,0,3,11.65,3.34,-11.16,3.57,3.07,-5.61,-121.875,-80.75,70.875,0.4581298828125,-0.13275146484375,-0.874755859375,-0.0850830078125,-9.5,38.0625,16.5625,8.08,0.26,-5.54,moving,11
11.18,30300.192516625,26,3,1,0,3,11.48,1.87,-6.42,3.43,1.57,-0.83,-116.125,-33.4375,56.875,0.45458984375,-0.1419677734375,-0.87457275390625,-0.09124755859375,-9.5,38.0625,16.5625,8.05,0.29,-5.58,moving,11
11.19,30300.206572086,26,3,1,0,3,12.06,1.57,-4.34,3.96,1.22,1.17,-100.3125,45.4375,37.4375,0.45709228515625,-0.1484375,-0.8714599609375,-0.09796142578125,-9.5,38.0625,16.5625,8.09,0.34,-5.52,moving,11
11.2,30300.206572086,26,3,1,0,3,12.16,0.56,-1.12,3.97,0.14,4.24,-72.0,104.8125,-3.9375,0.46405029296875,-0.15008544921875,-0.86669921875,-0.10491943359375,-9.5,38.0625,16.5625,8.19,0.41,-5.36,moving,11
11.21,30300.238704776,26,3,1,0,3,10.77,-0.46,1.11,2.41,-0.99,6.21,-36.25,182.8125,-49.625,0.47686767578125,-0.1461181640625,-0.8594970703125,-0.112060546875,-9.5,38.0625,16.5625,8.35,0.52,-5.1,moving,11
11.22,30300.238704776,26,3,1,0,3,4.76,-1.24,1.76,-3.82,-1.87,6.46,1.875,275.5625,-74.6875,0.49664306640625,-0.1376953125,-0.8487548828125,-0.1185302734375,-6.25,37.25,19.6875,8.58,0.63,-4.69,moving,11
11.23,30300.252814395,26,3,1,0,3,2.14,-1.59,2.41,-6.69,-2.33,6.58,35.3125,347.4375,-87.375,0.5216064453125,-0.12603759765625,-0.834716796875,-0.123779296875,-6.25,37.25,19.6875,8.84,0.73,-4.16,moving,11
11.24,30300.252814395,26,3,1,0,3,0.26,-1.97,2.43,-8.84,-2.81,5.96,45.0625,414.25,-88.75,0.5509033203125,-0.11297607421875,-0.8167724609375,-0.1290283203125,-6.25,37.25,19.6875,9.11,0.84,-3.52,moving,11
11.25,30300.266662255,26,3,1,0,3,-1.49,-2.6,1.84,-10.85,-3.56,4.61,19.0,471.3125,-76.3125,0.58331298828125,-0.10125732421875,-0.79437255859375,-0.1358642578125,-6.25,37.25,19.6875,9.35,0.95,-2.77,moving,11
11.26,30300.266662255,26,3,1,0,3,-3.51,-2.53,-1.35,-13.08,-3.58,0.55,-30.4375,518.5625,-49.0,0.61773681640625,-0.0931396484375,-0.76727294921875,-0.1448974609375,-6.25,37.25,19.6875,9.56,1.05,-1.91,moving,11
11.27,30300.298699527,26,3,1,0,3,-5.54,-1.47,-1.87,-15.23,-2.58,-0.85,-71.875,519.0625,-20.0,0.65093994140625,-0.08905029296875,-0.73779296875,-0.15484619140625,-12.375,35.5,18.0625,9.69,1.1,-1.02,moving,11
11.28,30300.298699527,26,3,1,0,3,-7.38,-0.52,-2.62,-17.12,-1.63,-2.39,-77.75,459.75,-2.125,0.67938232421875,-0.0870361328125,-0.7100830078125,-0.16339111328125,-12.375,35.5,18.0625,9.74,1.11,-0.23,moving,11
11.29,30300.312434065,26,3,1,0,3,-6.94,0.74,-4.61,-16.67,-0.36,-5.01,-56.625,363.25,6.5,0.701171875,-0.0855712890625,-0.68731689453125,-0.169189453125,-12.375,35.5,18.0625,9.73,1.1,0.39,moving,11
11.3,30300.312434065,26,3,1,0,3,-6.49,0.57,-4.03,-16.21,-0.5,-4.77,-33.5,201.5,14.0625,0.71307373046875,-0.08551025390625,-0.67431640625,-0.17181396484375,-12.375,35.5,18.0625,9.71,1.07,0.74,moving,11
11.31,30300.327125837,26,3,1,0,3,-5.27,0.33,-3.34,-14.99,-0.71,-4.08,-15.375,-3.4375,15.5625,0.71295166015625,-0.08746337890625,-0.6741943359375,-0.17169189453125,-12.375,35.5,18.0625,9.72,1.04,0.74,moving,11
11.32,30300.327125837,26,3,1,0,3,-3.63,0.01,-2.75,-13.38,-0.99,-3.17,-6.6875,-190.4375,16.4375,0.70184326171875,-0.0916748046875,-0.68572998046875,-0.1695556640625,-19.0625,34.6875,11.5625,9.74,1.01,0.41,moving,11
11.33,30300.358243106,26,3,1,0,3,0.57,-0.42,-2.24,-9.17,-1.4,-2.06,6.875,-345.8125,21.375,0.68121337890625,-0.09759521484375,-0.70654296875,-0.1650390625,-19.0625,34.6875,11.5625,9.75,0.98,-0.17,moving,11
11.34,30300.358243106,26,3,1,0,3,1.31,-0.31,-2.55,-8.41,-1.25,-1.68,34.9375,-403.75,21.3125,0.656494140625,-0.10260009765625,-0.73040771484375,-0.15802001953125,-19.0625,34.6875,11.5625,9.72,0.94,-0.86,moving,11
11.35,30300.365487003,26,3,1,0,3,1.31,-0.31,-2.55,-8.41,-1.25,-1.68,34.9375,-403.75,21.3125,0.656494140625,-0.10260009765625,-0.73040771484375,-0.15802001953125,-19.0625,34.6875,11.5625,9.72,0.94,-0.86,moving,11
11.35,30300.365487003,26,3,1,0,3,1.56,-0.23,-2.73,-8.07,-1.13,-1.17,87.8125,-407.125,12.75,0.631103515625,-0.10394287109375,-0.75433349609375,-0.14794921875,-19.0625,34.6875,11.5625,9.63,0.9,-1.56,moving,11
11.36,30300.389693505,26,3,1,0,3,1.95,-0.28,-2.62,-7.51,-1.14,-0.26,146.1875,-465.75,-6.6875,0.60113525390625,-0.10137939453125,-0.78125,-0.1343994140625,-19.0625,34.6875,11.5625,9.47,0.86,-2.36,moving,11
11.37,30300.389693505,26,3,1,0,3,3.39,-0.32,-2.44,-5.83,-1.13,0.76,177.6875,-496.5625,-22.5625,0.5679931640625,-0.09625244140625,-0.8087158203125,-0.118896484375,-17.1875,35.0625,13.1875,9.23,0.81,-3.2,moving,11
