timestamp,android_nano_timestamp,temperature,calib_mag,calib_accel,calib_gyro,calib_sys,acc_x,acc_y,acc_z,lacc_x,lacc_y,lacc_z,gyro_x,gyro_y,gyro_z,quat_w,quat_x,quat_y,quat_z,mag_x,mag_y,mag_z,gravity_x,gravity_y,gravity_z,label,person
5.89,1665287.752260386,25,3,3,3,0,-372.0,8.42,-3.66,-0.5,-0.19,-0.24,-4.81,-1.125,3.6875,561.125,0.81884765625,0.06005859375,-0.16009521484375,0.0208,-20.1875,40.0625,-20.0625,8.61,-3.41,moving,2
5.9,1665287.764652557,25,3,3,3,0,-373.0,8.37,-3.76,-0.52,-0.26,-0.39,-5.25,-0.6875,4.1875,563.5625,0.8172607421875,0.0601806640625,-0.1597900390625,0.0205,-19.0625,41.6875,-20.0625,8.63,-3.36,moving,2
5.91,1665287.764652557,25,3,3,3,0,-371.0,8.12,-3.81,-0.51,-0.53,-0.5,-5.69,0.0,5.4375,566.25,0.81561279296875,0.060302734375,-0.15936279296875,0.0205,-19.0625,41.6875,-20.0,8.65,-3.31,moving,2
5.92,1665287.779999318,25,3,3,3,0,-364.0,7.7,-3.82,-0.45,-0.98,-0.57,-6.53,-1.4375,7.8125,569.3125,0.81365966796875,0.06024169921875,-0.15887451171875,0.0205,-19.0625,41.6875,-19.9375,8.68,-3.24,moving,2
5.93,1665287.779999318,25,3,3,3,0,-359.0,7.5,-3.73,-0.41,-1.21,-0.56,-7.65,-5.6875,10.25,572.9375,0.811279296875,0.0599365234375,-0.1585693359375,0.0205,-19.0625,41.6875,-19.875,8.71,-3.17,moving,2
5.94,1665287.810036061,25,3,3,3,0,-337.0,7.08,-3.59,-0.2,-1.66,-0.5,-8.74,-12.5625,11.25,577.125,0.80853271484375,0.05926513671875,-0.1585693359375,0.0205,-19.0625,41.6875,-19.8125,8.75,-3.08,moving,2
5.95,1665287.810036061,25,3,3,3,0,-306.0,6.59,-3.43,0.09,-2.19,-0.45,-9.5,-21.125,11.125,581.6875,0.80535888671875,0.05828857421875,-0.15924072265625,0.0205,-19.75,42.0625,-19.75,8.79,-2.98,moving,2
5.96,1665287.824703297,25,3,3,3,0,-224.0,5.8,-3.29,0.92,-3.02,-0.42,-9.8,-29.375,10.5,586.375,0.80194091796875,0.05694580078125,-0.16046142578125,0.0205,-19.75,42.0625,-19.75,8.82,-2.87,moving,2
5.97,1665287.824703297,25,3,3,3,0,-173.0,5.26,-3.14,1.43,-3.59,-0.39,-9.8,-37.6875,9.75,591.0625,0.79840087890625,0.05523681640625,-0.162353515625,0.0205,-19.75,42.0625,-19.75,8.86,-2.75,moving,2
5.98,1665287.854208831,25,3,3,3,0,-112.0,4.85,-2.89,2.04,-4.03,-0.25,-9.48,-43.625,9.875,595.625,0.7947998046875,0.05316162109375,-0.16461181640625,0.0205,-19.75,42.0625,-19.8125,8.89,-2.63,moving,2
5.99,1665287.854208831,25,3,3,3,0,-41.0,4.4,-2.56,2.76,-4.51,-0.03,-8.7,-45.75,11.375,599.875,0.79144287109375,0.05084228515625,-0.16693115234375,0.0205,-19.75,42.0625,-19.8125,8.92,-2.52,moving,2
6.0,1665287.87046522,25,3,3,3,0,92.0,3.75,-1.63,4.09,-5.2,0.8,-7.38,-40.8125,13.1875,603.5,0.78857421875,0.04852294921875,-0.16888427734375,0.0201,-19.75,43.5625,-19.8125,8.95,-2.43,moving,2
6.01,1665287.87046522,25,3,3,3,0,136.0,3.43,-0.97,4.52,-5.54,1.38,-5.53,-29.5625,15.0625,606.25,0.786376953125,0.0465087890625,-0.16998291015625,0.0201,-19.75,43.5625,-19.75,8.97,-2.36,moving,2
6.02,1665287.883766001,25,3,3,3,0,186.0,3.34,-0.14,5.0,-5.64,2.17,-3.06,-15.0625,17.5,607.9375,0.7852783203125,0.0447998046875,-0.1700439453125,0.0201,-19.75,43.5625,-19.625,8.99,-2.32,moving,2
6.03,1665287.883766001,25,3,3,3,0,193.0,3.69,2.01,5.04,-5.3,4.33,-0.32,-4.25,20.625,608.375,0.78521728515625,0.043212890625,-0.16925048828125,0.0201,-19.75,43.5625,-19.375,9.0,-2.32,moving,2
6.04,1665287.899223439,25,3,3,3,0,193.0,3.69,2.01,5.04,-5.3,4.33,-0.32,-4.25,20.625,608.375,0.78521728515625,0.043212890625,-0.16925048828125,0.0201,-19.75,43.5625,-19.375,9.0,-2.32,moving,2
6.04,1665287.899223439,25,3,3,3,0,163.0,4.73,2.88,4.7,-4.27,5.23,2.37,2.0625,23.875,607.6875,0.78607177734375,0.04144287109375,-0.16790771484375,0.0201,-19.75,43.5625,-19.1875,9.01,-2.34,moving,2
6.05,1665287.917578989,25,3,3,3,0,97.0,6.42,3.75,4.0,-2.59,6.14,4.62,6.875,26.125,606.0,0.78778076171875,0.03961181640625,-0.16619873046875,0.0204,-20.0625,42.25,-18.875,9.01,-2.39,moving,2
6.06,1665287.917578989,25,3,3,3,0,-2.0,8.93,4.61,2.96,-0.07,7.07,5.87,9.875,25.25,603.75,0.7899169921875,0.037841796875,-0.164306640625,0.0204,-20.0625,42.25,-18.625,9.01,-2.45,moving,2
6.07,1665287.946301442,25,3,3,3,0,-347.0,13.55,5.09,-0.52,4.55,7.62,5.83,13.4375,19.5,601.4375,0.7919921875,0.03662109375,-0.16253662109375,0.0204,-20.0625,42.25,-18.375,9.0,-2.52,moving,2
6.08,1665287.946301442,25,3,3,3,0,-552.0,14.56,4.06,-2.59,5.57,6.65,5.82,19.0625,10.3125,598.9375,0.794189453125,0.036376953125,-0.1607666015625,0.0204,-20.0625,42.25,-18.25,8.99,-2.58,moving,2
6.09,1665287.959881642,25,3,3,3,0,-713.0,15.28,2.06,-4.22,6.3,4.73,6.55,27.6875,1.3125,596.0,0.796630859375,0.037109375,-0.158935546875,0.0204,-20.0625,42.25,-18.125,8.97,-2.66,moving,2
6.1,1665287.959881642,25,3,3,3,0,-804.0,14.93,-1.24,-5.14,5.97,1.48,5.05,20.75,-4.3125,593.625,0.79852294921875,0.03802490234375,-0.15777587890625,0.0204,-19.25,40.375,-18.125,8.96,-2.72,moving,2
6.11,1665287.97461325,25,3,3,3,0,-938.0,12.64,-26.44,-6.46,3.68,-23.74,-0.5,-36.5,-2.9375,593.9375,0.79779052734375,0.03643798828125,-0.16046142578125,0.0204,-19.25,40.375,-18.25,8.96,-2.7,moving,2
6.12,1665287.97461325,25,3,3,3,0,-1396.0,28.77,-34.72,-11.0,19.77,-32.19,-10.17,-151.1875,17.875,599.1875,0.79241943359375,0.0284423828125,-0.16986083984375,0.0204,-19.25,40.375,-18.5,8.99,-2.52,moving,2
6.13,1665288.005375783,25,3,3,3,0,-1586.0,37.53,-12.0,-12.91,28.49,-9.6,-9.45,-80.0625,36.5,604.0625,0.788330078125,0.022705078125,-0.17340087890625,0.0204,-19.25,40.375,-18.375,9.04,-2.39,moving,2
6.14,1665288.005375783,25,3,3,3,0,-906.0,32.56,0.43,-6.1,23.53,2.82,0.7,-5.8125,-9.625,603.625,0.7884521484375,0.02301025390625,-0.17431640625,0.0204,-19.25,40.375,-18.5,9.03,-2.39,moving,2
6.15,1665288.020920867,25,3,3,3,0,-224.0,21.41,2.15,0.76,12.43,4.68,11.5,35.125,-38.875,597.875,0.79254150390625,0.0263671875,-0.17401123046875,0.0193,-19.5625,38.0625,-18.75,8.98,-2.52,moving,2
6.16,1665288.020920867,25,3,3,3,0,-243.0,18.24,-1.67,0.61,9.3,0.98,12.5,14.5,-33.625,591.75,0.79669189453125,0.02825927734375,-0.1749267578125,0.0193,-19.5625,38.0625,-19.0625,8.93,-2.65,moving,2
6.17,1665288.035176157,25,3,3,3,0,-319.0,18.38,-4.85,-0.09,9.46,-2.19,2.56,-46.6875,-14.9375,590.5,0.79669189453125,0.0267333984375,-0.178955078125,0.0193,-19.5625,38.0625,-19.3125,8.91,-2.65,moving,2
6.18,1665288.035176157,25,3,3,3,0,-601.0,18.43,-7.0,-2.88,9.49,-4.45,-8.33,-55.625,0.5,594.3125,0.793212890625,0.02471923828125,-0.18267822265625,0.0193,-19.5625,38.0625,-19.5,8.94,-2.54,moving,2
6.19,1665288.049773203,25,3,3,3,0,-599.0,16.68,-6.21,-2.86,7.71,-3.75,-7.09,-18.6875,2.4375,597.5,0.7906494140625,0.0242919921875,-0.18377685546875,0.0193,-19.5625,38.0625,-19.5,8.96,-2.46,moving,2
6.2,1665288.049773203,25,3,3,3,0,-528.0,15.1,-5.19,-2.15,6.15,-2.69,1.82,13.75,-5.625,596.625,0.79144287109375,0.02520751953125,-0.18310546875,0.0207,-19.1875,35.0,-19.5625,8.95,-2.49,moving,2
6.21,1665288.080123057,25,3,3,3,0,-432.0,13.14,-4.01,-1.19,4.21,-1.44,6.98,32.875,-9.75,593.25,0.794189453125,0.02685546875,-0.18145751953125,0.0207,-19.1875,35.0,-19.5625,8.92,-2.57,moving,2
6.22,1665288.080123057,25,3,3,3,0,-294.0,8.75,-2.68,0.18,-0.15,-0.02,6.66,29.625,-7.25,590.125,0.79669189453125,0.0281982421875,-0.1798095703125,0.0207,-19.1875,35.0,-19.5,8.9,-2.65,moving,2
6.23,1665288.09437208,25,3,3,3,0,-240.0,7.39,-2.46,0.72,-1.49,0.25,4.92,11.6875,-3.25,587.8125,0.7984619140625,0.028564453125,-0.17926025390625,0.0207,-19.1875,35.0,-19.5,8.88,-2.71,moving,2
6.24,1665288.09437208,25,3,3,3,0,-207.0,6.12,-2.16,1.06,-2.75,0.57,2.83,-6.5,-1.8125,586.5625,0.7991943359375,0.028076171875,-0.1798095703125,0.0207,-19.1875,35.0,-19.5625,8.88,-2.73,moving,2
6.25,1665288.125448862,25,3,3,3,0,-190.0,5.06,-1.92,1.24,-3.81,0.81,1.06,-11.875,-3.75,586.0625,0.79937744140625,0.027587890625,-0.18084716796875,0.0207,-20.375,37.6875,-19.625,8.87,-2.74,moving,2
6.26,1665288.125448862,25,3,3,3,0,-159.0,3.08,-0.96,1.56,-5.79,1.76,-0.66,-8.0,-5.8125,586.25,0.79901123046875,0.0277099609375,-0.18170166015625,0.0207,-20.375,37.6875,-19.6875,8.87,-2.72,moving,2
6.27,1665288.141469899,25,3,3,3,0,-172.0,2.63,-0.47,1.44,-6.24,2.23,-1.35,4.0625,-6.125,586.75,0.79864501953125,0.0284423828125,-0.18170166015625,0.0207,-20.375,37.6875,-19.75,8.87,-2.71,moving,2
6.28,1665288.141469899,25,3,3,3,0,-169.0,2.72,0.09,1.47,-6.15,2.81,-0.83,16.375,-7.375,587.0,0.79864501953125,0.02984619140625,-0.180908203125,0.0207,-20.375,37.6875,-19.75,8.87,-2.72,moving,2
6.29,1665288.156575409,25,3,3,3,0,-156.0,3.1,0.58,1.59,-5.76,3.32,0.25,27.0625,-8.25,586.625,0.79913330078125,0.03179931640625,-0.179443359375,0.0207,-20.375,37.6875,-19.75,8.86,-2.73,moving,2
6.3,1665288.156575409,25,3,3,3,0,-111.0,3.42,1.49,2.05,-5.43,4.26,1.19,36.0625,-9.5625,585.875,0.79998779296875,0.03411865234375,-0.17742919921875,0.0207,-20.375,39.6875,-19.75,8.85,-2.76,moving,2
6.31,1665288.186003875,25,3,3,3,0,-95.0,3.13,1.92,2.21,-5.71,4.73,1.91,40.25,-10.9375,584.6875,0.80120849609375,0.0367431640625,-0.1751708984375,0.0207,-20.375,39.6875,-19.75,8.84,-2.8,moving,2
6.32,1665288.186003875,25,3,3,3,0,-85.0,2.8,2.11,2.3,-6.02,4.96,2.43,41.375,-13.0,583.3125,0.80255126953125,0.03948974609375,-0.1729736328125,0.0207,-20.375,39.6875,-19.75,8.83,-2.85,moving,2
6.33,1665288.191457977,25,3,3,3,0,-85.0,2.8,2.11,2.3,-6.02,4.96,2.43,41.375,-13.0,583.3125,0.80255126953125,0.03948974609375,-0.1729736328125,0.0207,-20.375,39.6875,-19.75,8.83,-2.85,moving,2
6.33,1665288.191457977,25,3,3,3,0,-97.0,2.53,1.97,2.18,-6.28,4.87,2.22,44.125,-14.25,581.9375,0.8038330078125,0.04241943359375,-0.170654296875,0.0207,-20.375,39.6875,-19.75,8.81,-2.9,moving,2
6.34,1665288.215013926,25,3,3,3,0,-96.0,2.09,1.53,2.2,-6.7,4.47,1.32,46.5,-15.1875,580.9375,0.80487060546875,0.04571533203125,-0.16815185546875,0.0207,-20.375,39.6875,-19.75,8.8,-2.93,moving,2
6.35,1665288.215013926,25,3,3,3,0,-83.0,1.98,1.01,2.32,-6.8,3.98,0.39,43.1875,-15.125,580.3125,0.8055419921875,0.048828125,-0.1658935546875,0.0211,-20.6875,42.6875,-19.75,8.79,-2.96,moving,2
6.36,1665288.229259857,25,3,3,3,0,-60.0,2.2,0.42,2.55,-6.58,3.4,-0.44,40.375,-14.9375,580.125,0.805908203125,0.05194091796875,-0.163818359375,0.0211,-20.6875,42.6875,-19.75,8.78,-2.98,moving,2
6.37,1665288.229259857,25,3,3,3,0,-23.0,2.34,-0.56,2.93,-6.43,2.43,-0.98,38.25,-14.6875,580.1875,0.80609130859375,0.054931640625,-0.16180419921875,0.0211,-20.6875,42.6875,-19.75,8.78,-2.99,moving,2
6.38,1665288.244637135,25,3,3,3,0,-19.0,2.39,-0.94,2.97,-6.38,2.05,-1.66,39.0625,-14.5625,580.5625,0.8060302734375,0.05804443359375,-0.15972900390625,0.0211,-20.6875,42.6875,-19.8125,8.78,-3.0,moving,2
6.39,1665288.244637135,25,3,3,3,0,-11.0,2.4,-1.32,3.05,-6.37,1.67,-2.54,43.25,-14.375,581.25,0.8057861328125,0.0614013671875,-0.15728759765625,0.0211,-20.6875,42.6875,-19.75,8.78,-3.0,moving,2
6.4,1665288.274713389,25,3,3,3,0,-19.0,2.41,-1.62,2.97,-6.37,1.37,-2.84,46.4375,-14.5625,582.125,0.805419921875,0.06500244140625,-0.1546630859375,0.0215,-20.6875,43.5,-19.75,8.78,-2.99,moving,2
6.41,1665288.274713389,25,3,3,3,0,-32.0,2.64,-1.72,2.83,-6.14,1.27,-2.69,51.0,-15.4375,582.8125,0.80517578125,0.06884765625,-0.1517333984375,0.0215,-20.6875,43.5,-19.75,8.78,-3.0,moving,2
6.42,1665288.307128957,25,3,3,3,0,-52.0,2.61,-1.73,2.63,-6.16,1.26,-2.67,59.8125,-16.8125,583.4375,0.80499267578125,0.07318115234375,-0.14825439453125,0.0215,-20.6875,43.5,-19.6875,8.78,-3.0,moving,2
6.43,1665288.307128957,25,3,3,3,0,-75.0,2.53,-1.71,2.4,-6.24,1.3,-2.28,68.625,-18.375,583.75,0.8050537109375,0.07806396484375,-0.144287109375,0.0215,-20.6875,43.5,-19.6875,8.78,-3.02,moving,2
6.44,1665288.314538177,25,3,3,3,0,-110.0,2.53,-1.64,2.03,-6.24,1.4,-1.82,78.1875,-20.5625,583.75,0.8052978515625,0.08355712890625,-0.13970947265625,0.0215,-20.6875,43.5,-19.625,8.77,-3.04,moving,2
6.45,1665288.314538177,25,3,3,3,0,-209.0,2.93,-1.24,1.03,-5.83,1.83,-1.6,86.625,-22.5,583.5625,0.8056640625,0.089599609375,-0.13470458984375,0.02,-20.0,45.5,-19.5,8.76,-3.08,moving,2
6.46,1665288.320818817,25,3,3,3,0,-261.0,3.31,-1.19,0.49,-5.44,1.92,-1.21,92.75,-24.9375,583.0,0.80615234375,0.09600830078125,-0.12933349609375,0.02,-20.0,45.5,-19.4375,8.75,-3.12,moving,2
6.47,1665288.320818817,25,3,3,3,0,-316.0,3.81,-1.15,-0.06,-4.93,2.01,-0.6,96.3125,-27.5,582.125,0.8067626953125,0.102783203125,-0.1239013671875,0.02,-20.0,45.5,-19.375,8.74,-3.16,moving,2
6.48,1665288.351152638,25,3,3,3,0,-358.0,4.5,-1.08,-0.48,-4.22,2.13,-0.34,95.5625,-30.5,581.0625,0.807373046875,0.10968017578125,-0.11865234375,0.02,-20.0,45.5,-19.3125,8.73,-3.21,moving,2
6.49,1665288.351152638,25,3,3,3,0,-458.0,6.86,-0.89,-1.48,-1.84,2.36,-0.35,86.75,-34.75,580.0,0.80780029296875,0.116455078125,-0.1142578125,0.02,-20.0,45.5,-19.375,8.71,-3.25,moving,2
6.5,1665288.365951426,25,3,3,3,0,-488.0,8.42,-0.94,-1.76,-0.27,2.34,-0.43,70.125,-38.5,579.0625,0.8079833984375,0.1226806640625,-0.1112060546875,0.02,-19.5625,46.1875,-19.5,8.69,-3.29,moving,2
6.51,1665288.365951426,25,3,3,3,0,-497.0,10.32,-1.23,-1.82,1.65,2.07,-0.73,47.125,-40.125,578.5,0.8077392578125,0.12786865234375,-0.10980224609375,0.02,-19.5625,46.1875,-19.6875,8.67,-3.31,moving,2
6.52,1665288.379481252,25,3,3,3,0,-472.0,13.74,-2.9,-1.51,5.08,0.4,-1.59,22.5,-39.3125,578.5625,0.8070068359375,0.1318359375,-0.11004638671875,0.02,-19.5625,46.1875,-20.0,8.65,-3.3,moving,2
6.53,1665288.379481252,25,3,3,3,0,-473.0,15.08,-5.01,-1.47,6.43,-1.74,-3.53,-4.125,-35.5625,579.875,0.80548095703125,0.13433837890625,-0.11187744140625,0.02,-19.5625,46.1875,-20.3125,8.65,-3.27,moving,2
6.54,1665288.409842539,25,3,3,3,0,-429.0,15.03,-10.48,-0.97,6.37,-7.29,-7.24,-33.5625,-29.0,583.25,0.80255126953125,0.13519287109375,-0.1151123046875,0.02,-19.5625,46.1875,-20.75,8.65,-3.18,moving,2
6.55,1665288.409842539,25,3,3,3,0,-537.0,18.02,-15.29,-1.98,9.33,-12.27,-11.4,-92.5625,-14.875,589.25,0.7978515625,0.13232421875,-0.12152099609375,0.0182,-18.5625,48.0625,-21.1875,8.68,-3.02,moving,2
6.56,1665288.424649424,25,3,3,3,0,-1053.0,29.85,-13.89,-7.09,21.12,-11.03,-11.6,-78.875,-2.3125,595.3125,0.7933349609375,0.1292724609375,-0.12628173828125,0.0182,-18.5625,48.0625,-21.4375,8.72,-2.86,moving,2
6.57,1665288.424649424,25,3,3,3,0,-1114.0,31.64,-7.89,-7.69,22.91,-5.07,-5.13,2.8125,-6.25,597.5,0.7916259765625,0.1302490234375,-0.12603759765625,0.0182,-18.5625,48.0625,-21.5,8.73,-2.81,moving,2
6.58,1665288.456756398,25,3,3,3,0,-952.0,26.82,-4.19,-6.08,18.1,-1.3,5.48,31.375,-10.6875,594.625,0.7935791015625,0.1322021484375,-0.12481689453125,0.0182,-18.5625,48.0625,-21.5,8.71,-2.88,moving,2
6.59,1665288.456756398,25,3,3,3,0,-854.0,20.79,-2.59,-5.09,12.11,0.39,8.82,27.6875,-10.0625,590.25,0.79656982421875,0.1336669921875,-0.1240234375,0.0182,-18.5625,48.0625,-21.5,8.68,-2.98,moving,2
6.6,1665288.473354014,25,3,3,3,0,-726.0,13.51,-4.7,-3.81,4.86,-1.65,6.69,5.1875,-5.875,587.125,0.79864501953125,0.1339111328125,-0.12445068359375,0.0189,-18.5625,44.875,-21.5625,8.65,-3.05,moving,2
6.61,1665288.473354014,25,3,3,3,0,-726.0,13.51,-4.7,-3.81,4.86,-1.65,6.69,5.1875,-5.875,587.125,0.79864501953125,0.1339111328125,-0.12445068359375,0.0189,-18.5625,44.875,-21.5625,8.65,-3.05,moving,2
6.62,1665288.479018849,25,3,3,3,0,-604.0,11.89,-6.82,-2.57,3.25,-3.76,2.75,-31.8125,2.0,586.3125,0.7991943359375,0.1319580078125,-0.12677001953125,0.0189,-18.5625,44.875,-21.625,8.64,-3.06,moving,2
6.62,1665288.479018849,25,3,3,3,0,-480.0,11.28,-7.8,-1.31,2.63,-4.79,-0.98,-73.625,11.125,587.75,0.79815673828125,0.12762451171875,-0.13128662109375,0.0189,-18.5625,44.875,-21.8125,8.65,-3.0,moving,2
6.63,1665288.499353159,25,3,3,3,0,-415.0,10.12,-6.96,-0.64,1.44,-4.02,-2.27,-77.9375,15.5,589.8125,0.79669189453125,0.12274169921875,-0.1357421875,0.0189,-18.5625,44.875,-21.875,8.67,-2.93,moving,2
6.65,1665288.499353159,25,3,3,3,0,-313.0,8.2,-4.7,0.38,-0.47,-1.79,1.46,-64.1875,16.25,590.0625,0.79656982421875,0.1182861328125,-0.1395263671875,0.0189,-18.5625,44.875,-21.9375,8.67,-2.91,moving,2
6.65,1665288.514478688,25,3,3,3,0,-258.0,6.84,-3.6,0.92,-1.82,-0.66,6.12,-47.4375,16.875,588.0625,0.798095703125,0.1142578125,-0.142333984375,0.0193,-18.1875,43.375,-21.9375,8.66,-2.94,moving,2
6.66,1665288.514478688,25,3,3,3,0,-218.0,5.76,-2.63,1.31,-2.89,0.35,7.52,-35.5625,22.5,585.3125,0.8001708984375,0.1103515625,-0.1441650390625,0.0193,-18.1875,43.375,-21.8125,8.65,-2.99,moving,2
6.67,1665288.543888194,25,3,3,3,0,-210.0,4.71,-1.35,1.36,-3.93,1.68,7.28,-31.3125,29.5625,582.75,0.8023681640625,0.10614013671875,-0.14532470703125,0.0193,-18.1875,43.375,-21.6875,8.65,-3.04,moving,2
6.68,1665288.543888194,25,3,3,3,0,-171.0,4.31,-0.77,1.71,-4.33,2.3,5.94,-32.625,34.5,580.8125,0.8040771484375,0.10162353515625,-0.146240234375,0.0193,-18.1875,43.375,-21.4375,8.65,-3.07,moving,2
6.69,1665288.559363739,25,3,3,3,0,-134.0,3.53,-0.25,2.05,-5.13,2.84,4.13,-34.75,36.8125,579.75,0.80523681640625,0.09698486328125,-0.1470947265625,0.0193,-18.1875,43.375,-21.1875,8.66,-3.09,moving,2
6.7,1665288.559363739,25,3,3,3,0,-102.0,2.68,0.09,2.33,-5.99,3.19,2.8,-39.5,39.1875,579.375,0.805908203125,0.092041015625,-0.1480712890625,0.0186,-18.1875,42.1875,-21.0,8.67,-3.09,moving,2
6.71,1665288.573892303,25,3,3,3,0,-41.0,1.67,0.52,2.91,-7.01,3.61,2.16,-47.0,40.4375,579.3125,0.8062744140625,0.08673095703125,-0.14947509765625,0.0186,-18.1875,42.1875,-20.75,8.69,-3.09,moving,2
6.73,1665288.573892303,25,3,3,3,0,-28.0,1.44,0.86,3.0,-7.26,3.94,1.67,-51.0,39.6875,579.4375,0.806396484375,0.081298828125,-0.15118408203125,0.0186,-18.1875,42.1875,-20.5625,8.7,-3.07,moving,2
6.73,1665288.603911875,25,3,3,3,0,-31.0,1.41,1.19,2.94,-7.3,4.24,0.87,-49.625,36.5625,579.9375,0.8062744140625,0.076171875,-0.15289306640625,0.0186,-18.1875,42.1875,-20.375,8.72,-3.05,moving,2
6.74,1665288.603911875,25,3,3,3,0,-41.0,1.34,1.38,2.82,-7.4,4.42,0.59,-44.5625,31.5625,580.375,0.80609130859375,0.07171630859375,-0.15447998046875,0.0186,-18.1875,42.1875,-20.1875,8.74,-3.03,moving,2
6.75,1665288.619655202,25,3,3,3,0,-48.0,0.72,1.49,2.73,-8.02,4.52,1.35,-40.875,24.375,580.375,0.80609130859375,0.06787109375,-0.15625,0.0204,-18.875,40.6875,-20.125,8.75,-3.02,moving,2
6.76,1665288.619655202,25,3,3,3,0,-31.0,0.62,1.51,2.9,-8.12,4.55,3.0,-37.375,17.625,579.5,0.80657958984375,0.06451416015625,-0.1580810546875,0.0204,-18.875,40.6875,-20.0625,8.75,-3.03,moving,2
6.77,1665288.637148529,25,3,3,3,0,-34.0,0.52,1.61,2.86,-8.21,4.67,5.1,-33.625,11.5625,577.5625,0.8077392578125,0.06158447265625,-0.16009521484375,0.0204,-18.875,40.6875,-20.0625,8.74,-3.06,moving,2
6.78,1665288.637148529,25,3,3,3,0,-53.0,0.54,1.92,2.69,-8.17,5.04,7.1,-25.8125,6.0,574.5625,0.80963134765625,0.05926513671875,-0.161865234375,0.0204,-18.875,40.6875,-20.125,8.72,-3.11,moving,2
6.8,1665288.664738698,25,3,3,3,0,-145.0,2.6,2.22,1.76,-6.08,5.41,8.48,-12.0,2.0625,570.8125,0.81201171875,0.05780029296875,-0.162841796875,0.0204,-18.875,40.6875,-20.125,8.69,-3.19,moving,2
6.81,1665288.664738698,25,3,3,3,0,-226.0,4.46,2.18,0.95,-4.19,5.46,9.84,0.625,1.9375,566.375,0.81500244140625,0.05682373046875,-0.16302490234375,0.0204,-19.5625,37.1875,-20.125,8.66,-3.28,moving,2
6.82,1665288.680061371,25,3,3,3,0,-361.0,6.54,1.84,-0.4,-2.07,5.23,10.57,14.8125,2.9375,561.5625,0.81842041015625,0.056396484375,-0.16217041015625,0.0204,-19.5625,37.1875,-20.0,8.62,-3.39,moving,2
6.82,1665288.680061371,25,3,3,3,0,-690.0,10.62,0.05,-3.72,2.04,3.55,10.5,28.25,4.875,556.6875,0.82196044921875,0.05645751953125,-0.16021728515625,0.0204,-19.5625,37.1875,-19.875,8.58,-3.5,moving,2
6.83,1665288.694303273,25,3,3,3,0,-752.0,11.5,-1.42,-4.36,2.95,2.18,9.15,34.9375,4.125,552.375,0.82513427734375,0.0570068359375,-0.1578369140625,0.0204,-19.5625,37.1875,-19.6875,8.55,-3.61,moving,2
6.84,1665288.694303273,25,3,3,3,0,-591.0,10.43,-3.78,-2.75,1.9,-0.11,6.19,2.625,0.875,549.5625,0.82696533203125,0.0565185546875,-0.15777587890625,0.0204,-19.5625,37.1875,-19.6875,8.52,-3.66,moving,2
6.85,1665288.725244232,25,3,3,3,0,-424.0,9.65,-7.41,-1.04,1.11,-3.8,-1.43,-77.9375,2.75,550.625,0.825439453125,0.05279541015625,-0.16326904296875,0.0204,-19.5625,35.6875,-20.0,8.53,-3.61,moving,2
6.86,1665288.725244232,25,3,3,3,0,-547.0,19.1,-27.89,-2.18,10.5,-24.52,-15.13,-180.0,12.125,558.5625,0.818359375,0.04486083984375,-0.1751708984375,0.0204,-19.5625,35.6875,-20.5625,8.6,-3.36,moving,2
6.87,1665288.730916311,25,3,3,3,0,-547.0,19.1,-27.89,-2.18,10.5,-24.52,-15.13,-180.0,12.125,558.5625,0.818359375,0.04486083984375,-0.1751708984375,0.0204,-19.5625,35.6875,-20.5625,8.6,-3.36,moving,2
6.88,1665288.730916311,25,3,3,3,0,-677.0,24.98,-14.46,-3.43,16.27,-11.46,-28.09,-167.1875,29.5625,572.4375,0.807373046875,0.0374755859375,-0.18499755859375,0.0204,-19.5625,35.6875,-20.875,8.71,-3.0,moving,2
6.89,1665288.755155039,25,3,3,3,0,-464.0,26.06,-4.58,-1.32,17.27,-1.75,-18.93,19.5625,8.3125,581.0,0.80194091796875,0.03973388671875,-0.18280029296875,0.0204,-19.5625,35.6875,-20.6875,8.78,-2.83,moving,2
6.9,1665288.755155039,25,3,3,3,0,-250.0,25.42,-1.77,0.81,16.66,1.12,2.41,67.5625,-23.1875,579.3125,0.80364990234375,0.04443359375,-0.17926025390625,0.0204,-19.5625,35.6875,-20.6875,8.76,-2.89,moving,2
6.9,1665288.769239105,25,3,3,3,0,-272.0,18.52,-0.72,0.59,9.82,2.33,13.16,73.5625,-26.6875,572.625,0.8087158203125,0.04864501953125,-0.17578125,0.0215,-19.5625,36.875,-20.75,8.7,-3.06,moving,2
6.91,1665288.769239105,25,3,3,3,0,-362.0,16.33,-2.96,-0.3,7.68,0.25,11.41,63.75,-20.6875,566.875,0.81304931640625,0.0521240234375,-0.17254638671875,0.0215,-19.5625,36.875,-20.6875,8.65,-3.21,moving,2
6.92,1665288.784023529,25,3,3,3,0,-351.0,15.21,-5.74,-0.2,6.58,-2.46,3.98,42.1875,-12.6875,564.6875,0.8148193359375,0.0546875,-0.1702880859375,0.0215,-19.5625,36.875,-20.6875,8.63,-3.27,moving,2
6.93,1665288.784023529,25,3,3,3,0,-352.0,14.18,-7.47,-0.21,5.53,-4.24,-5.3,19.875,-6.0,566.9375,0.8134765625,0.05657958984375,-0.16900634765625,0.0215,-19.5625,36.875,-20.6875,8.64,-3.23,moving,2
6.94,1665288.816436411,25,3,3,3,0,-498.0,12.95,-7.75,-1.68,4.26,-4.6,-10.64,20.8125,-2.6875,571.625,0.810546875,0.0587158203125,-0.16729736328125,0.0215,-19.5625,36.875,-20.625,8.68,-3.14,moving,2
6.96,1665288.816436411,25,3,3,3,0,-465.0,12.25,-7.3,-1.36,3.55,-4.21,-7.82,27.1875,-6.25,574.9375,0.8084716796875,0.06121826171875,-0.16546630859375,0.02,-18.5625,39.1875,-20.5625,8.7,-3.08,moving,2
6.97,1665288.828982229,25,3,3,3,0,-402.0,11.73,-6.28,-0.72,3.03,-3.18,-1.17,37.125,-13.8125,575.0625,0.80859375,0.0640869140625,-0.1634521484375,0.02,-18.5625,39.1875,-20.5625,8.7,-3.09,moving,2
6.98,1665288.828982229,25,3,3,3,0,-303.0,10.64,-5.17,0.27,1.96,-2.02,3.35,46.875,-20.0,573.0,0.8101806640625,0.0675048828125,-0.1612548828125,0.02,-18.5625,39.1875,-20.625,8.67,-3.15,moving,2
6.98,1665288.844618825,25,3,3,3,0,-195.0,8.42,-3.41,1.34,-0.21,-0.18,5.44,54.0625,-23.125,569.875,0.81243896484375,0.0712890625,-0.15875244140625,0.02,-18.5625,39.1875,-20.625,8.64,-3.23,moving,2
6.99,1665288.844618825,25,3,3,3,0,-178.0,7.39,-2.61,1.52,-1.22,0.7,4.68,60.3125,-23.5,567.0,0.81451416015625,0.07550048828125,-0.15576171875,0.02,-18.5625,39.1875,-20.625,8.61,-3.31,moving,2
7.0,1665288.874139984,25,3,3,3,0,-161.0,6.52,-1.83,1.68,-2.06,1.53,2.25,62.9375,-22.0,565.25,0.81585693359375,0.07989501953125,-0.15240478515625,0.02,-18.875,39.875,-20.625,8.59,-3.37,moving,2
7.01,1665288.874139984,25,3,3,3,0,-145.0,5.33,-0.96,1.84,-3.24,2.43,0.01,56.1875,-20.3125,564.5625,0.81646728515625,0.08404541015625,-0.1494140625,0.02,-18.875,39.875,-20.625,8.58,-3.4,moving,2
7.03,1665288.889381521,25,3,3,3,0,-141.0,4.9,-0.66,1.88,-3.67,2.74,-1.95,48.8125,-18.5625,564.875,0.81640625,0.08782958984375,-0.146728515625,0.02,-18.875,39.875,-20.5625,8.57,-3.41,moving,2
7.04,1665288.889381521,25,3,3,3,0,-152.0,4.6,-0.47,1.77,-3.97,2.94,-3.36,47.125,-17.0,565.8125,0.81585693359375,0.091552734375,-0.14398193359375,0.02,-18.875,39.875,-20.5625,8.58,-3.41,moving,2
7.05,1665288.904455454,25,3,3,3,0,-169.0,4.27,-0.35,1.59,-4.31,3.04,-4.23,50.0625,-16.5,567.125,0.8150634765625,0.09552001953125,-0.1409912109375,0.02,-18.875,39.875,-20.5625,8.58,-3.4,moving,2
7.06,1665288.904455454,25,3,3,3,0,-172.0,3.74,-0.58,1.56,-4.85,2.79,-4.55,52.1875,-16.875,568.5,0.81414794921875,0.09954833984375,-0.13787841796875,0.0196,-19.1875,42.5625,-20.5,8.59,-3.38,moving,2
7.07,1665288.934689667,25,3,3,3,0,-162.0,3.48,-0.7,1.65,-5.11,2.67,-4.54,53.875,-18.0,569.875,0.813232421875,0.103759765625,-0.1346435546875,0.0196,-19.1875,42.5625,-20.5,8.6,-3.37,moving,2
7.07,1665288.934689667,25,3,3,3,0,-132.0,3.01,-0.81,1.95,-5.59,2.55,-4.42,55.5,-21.0,571.125,0.8123779296875,0.1082763671875,-0.1314697265625,0.0196,-19.1875,42.5625,-20.4375,8.6,-3.36,moving,2
7.08,1665288.949343679,25,3,3,3,0,-94.0,2.39,-0.84,2.33,-6.21,2.51,-4.04,57.75,-24.875,572.125,0.8115234375,0.1131591796875,-0.1282958984375,0.0196,-19.1875,42.5625,-20.5,8.6,-3.36,moving,2
7.09,1665288.949343679,25,3,3,3,0,-42.0,1.09,-0.8,2.86,-7.51,2.56,-3.38,60.9375,-28.6875,572.6875,0.81085205078125,0.11834716796875,-0.12518310546875,0.0196,-19.1875,42.5625,-20.5,8.6,-3.36,moving,2
7.11,1665288.967555715,25,3,3,3,0,-28.0,0.58,-0.52,3.01,-8.0,2.85,-2.42,63.5625,-33.1875,572.75,0.81048583984375,0.12396240234375,-0.12213134765625,0.0193,-20.0,43.75,-20.625,8.59,-3.37,moving,2
7.12,1665288.967555715,25,3,3,3,0,-33.0,0.24,-0.18,2.98,-8.33,3.21,-1.67,63.875,-37.75,572.375,0.8101806640625,0.12982177734375,-0.11932373046875,0.0193,-20.0,43.75,-20.75,8.57,-3.39,moving,2
7.12,1665288.979068125,25,3,3,3,0,-33.0,0.24,-0.18,2.98,-8.33,3.21,-1.67,63.875,-37.75,572.375,0.8101806640625,0.12982177734375,-0.11932373046875,0.0193,-20.0,43.75,-20.75,8.57,-3.39,moving,2
7.13,1665288.979068125,25,3,3,3,0,-44.0,0.18,0.1,2.9,-8.37,3.52,-0.86,59.375,-41.125,571.6875,0.81005859375,0.13568115234375,-0.1170654296875,0.0193,-20.0,43.75,-20.875,8.55,-3.42,moving,2
7.14,1665288.993887095,25,3,3,3,0,-98.0,1.3,0.91,2.39,-7.22,4.37,0.24,53.3125,-41.6875,570.5,0.8101806640625,0.1412353515625,-0.1153564453125,0.0193,-20.0,43.75,-21.0625,8.53,-3.45,moving,2
7.15,1665288.993887095,25,3,3,3,0,-157.0,2.45,1.27,1.82,-6.04,4.77,1.84,50.75,-39.1875,568.625,0.81072998046875,0.14630126953125,-0.11383056640625,0.0193,-20.0,43.75,-21.25,8.5,-3.5,moving,2
7.15,1665289.024620005,25,3,3,3,0,-238.0,3.67,1.43,1.03,-4.79,4.99,3.24,56.75,-35.375,566.0625,0.81182861328125,0.1513671875,-0.11175537109375,0.0186,-19.1875,47.6875,-21.375,8.46,-3.56,moving,2
7.16,1665289.024620005,25,3,3,3,0,-391.0,6.81,1.14,-0.48,-1.61,4.78,3.82,63.9375,-31.6875,563.125,0.81317138671875,0.15643310546875,-0.10906982421875,0.0186,-19.1875,47.6875,-21.375,8.43,-3.64,moving,2
7.17,1665289.038850474,25,3,3,3,0,-417.0,8.5,0.22,-0.74,0.1,3.93,3.75,60.125,-27.8125,560.3125,0.814453125,0.16107177734375,-0.1064453125,0.0186,-19.1875,47.6875,-21.375,8.4,-3.71,moving,2
7.19,1665289.038850474,25,3,3,3,0,-368.0,10.15,-1.4,-0.24,1.77,2.34,2.43,30.25,-25.0625,558.5625,0.8150634765625,0.1641845703125,-0.105712890625,0.0186,-19.1875,47.6875,-21.5,8.37,-3.75,moving,2
7.2,1665289.05477475,25,3,3,3,0,-270.0,11.86,-3.78,0.79,3.48,-0.06,-1.76,-28.25,-21.125,559.5625,0.81396484375,0.1644287109375,-0.10858154296875,0.0186,-19.1875,47.6875,-21.8125,8.37,-3.71,moving,2
7.21,1665289.05477475,25,3,3,3,0,-334.0,12.63,-18.9,0.23,4.22,-15.33,-10.0,-101.5,-12.0,565.5,0.809814453125,0.1610107421875,-0.11541748046875,0.0189,-17.75,45.6875,-22.3125,8.4,-3.56,moving,2
7.22,1665289.08432252,25,3,3,3,0,-797.0,17.96,-24.74,-4.29,9.46,-21.5,-22.48,-187.9375,5.875,578.3125,0.801025390625,0.15289306640625,-0.12640380859375,0.0189,-17.75,45.6875,-22.9375,8.49,-3.23,moving,2
7.23,1665289.08432252,25,3,3,3,0,-1074.0,22.92,-17.99,-7.02,14.33,-15.09,-25.42,-150.875,21.375,591.875,0.79168701171875,0.14569091796875,-0.13372802734375,0.0189,-17.75,45.6875,-23.25,8.59,-2.9,moving,2
7.23,1665289.099199392,25,3,3,3,0,-1058.0,25.55,-8.09,-6.87,16.93,-5.26,-8.26,9.125,6.375,595.5,0.789306640625,0.14630126953125,-0.13214111328125,0.0189,-17.75,45.6875,-23.1875,8.62,-2.83,moving,2
7.24,1665289.099199392,25,3,3,3,0,-869.0,17.59,-0.32,-5.0,9.02,2.69,15.43,67.25,-7.75,587.6875,0.7947998046875,0.14910888671875,-0.12908935546875,0.0189,-17.75,45.6875,-23.0625,8.56,-3.01,moving,2
7.25,1665289.114627126,25,3,3,3,0,-840.0,13.99,0.63,-4.73,5.49,3.86,18.94,63.375,-9.9375,578.25,0.80126953125,0.15167236328125,-0.126708984375,0.019,-18.1875,44.0625,-22.9375,8.49,-3.23,moving,2
7.27,1665289.114627126,25,3,3,3,0,-827.0,12.83,-0.02,-4.6,4.38,3.33,11.25,23.1875,-5.0625,572.875,0.804931640625,0.15234375,-0.12628173828125,0.019,-18.1875,44.0625,-22.875,8.45,-3.35,moving,2
7.28,1665289.145376597,25,3,3,3,0,-778.0,12.92,-2.17,-4.11,4.47,1.18,2.72,-29.5625,2.8125,572.0625,0.80548095703125,0.1505126953125,-0.12841796875,0.019,-18.1875,44.0625,-22.9375,8.44,-3.36,moving,2
7.29,1665289.145376597,25,3,3,3,0,-754.0,13.32,-8.75,-3.84,4.85,-5.47,-3.46,-66.375,8.6875,574.625,0.80377197265625,0.14691162109375,-0.13238525390625,0.019,-18.1875,44.0625,-23.125,8.46,-3.28,moving,2
7.3,1665289.158859263,25,3,3,3,0,-790.0,12.99,-9.41,-4.17,4.5,-6.24,-6.55,-87.875,11.625,578.8125,0.80084228515625,0.14227294921875,-0.137451171875,0.019,-18.1875,44.0625,-23.3125,8.49,-3.16,moving,2
7.31,1665289.158859263,25,3,3,3,0,-813.0,12.51,-8.87,-4.37,4.0,-5.79,-3.31,-76.875,10.125,581.375,0.79901123046875,0.13800048828125,-0.14208984375,0.019,-18.5625,41.375,-23.5,8.51,-3.08,moving,2
7.32,1665289.175088145,25,3,3,3,0,-688.0,10.69,-5.83,-3.1,2.19,-2.71,5.71,-39.1875,3.125,579.375,0.80035400390625,0.13543701171875,-0.14508056640625,0.019,-18.5625,41.375,-23.5625,8.49,-3.11,moving,2
7.32,1665289.175088145,25,3,3,3,0,-624.0,9.51,-4.48,-2.46,1.06,-1.25,12.76,-6.375,-0.25,573.6875,0.80413818359375,0.13409423828125,-0.146484375,0.019,-18.5625,41.375,-23.625,8.45,-3.22,moving,2
7.33,1665289.205073944,25,3,3,3,0,-569.0,8.3,-3.35,-1.92,-0.09,0.01,14.5,7.9375,1.75,567.125,0.8087158203125,0.1331787109375,-0.1468505859375,0.019,-18.5625,41.375,-23.5625,8.4,-3.36,moving,2
7.35,1665289.205073944,25,3,3,3,0,-535.0,6.93,-2.45,-1.58,-1.42,1.03,12.24,9.125,5.375,561.5,0.81256103515625,0.13226318359375,-0.1468505859375,0.019,-18.5625,41.375,-23.5,8.35,-3.48,moving,2
7.36,1665289.220820079,25,3,3,3,0,-438.0,5.13,-1.34,-0.63,-3.19,2.22,8.72,0.0,7.75,557.625,0.81524658203125,0.13104248046875,-0.14715576171875,0.0197,-18.5625,40.5625,-23.4375,8.32,-3.56,moving,2
7.37,1665289.220820079,25,3,3,3,0,-372.0,4.62,-0.98,0.01,-3.69,2.62,5.58,-11.5625,9.4375,555.375,0.81683349609375,0.12933349609375,-0.14788818359375,0.0197,-18.5625,40.5625,-23.375,8.31,-3.6,moving,2
7.38,1665289.234609833,25,3,3,3,0,-321.0,4.41,-0.74,0.53,-3.89,2.88,3.2,-20.9375,10.5625,554.25,0.817626953125,0.12738037109375,-0.14910888671875,0.0197,-18.5625,40.5625,-23.375,8.3,-3.62,moving,2
7.39,1665289.234609833,25,3,3,3,0,-321.0,4.41,-0.74,0.53,-3.89,2.88,3.2,-20.9375,10.5625,554.25,0.817626953125,0.12738037109375,-0.14910888671875,0.0197,-18.5625,40.5625,-23.375,8.3,-3.62,moving,2
7.39,1665289.249576915,25,3,3,3,0,-263.0,4.3,-0.45,1.11,-4.0,3.16,1.67,-29.125,12.125,554.0,0.81787109375,0.125,-0.1507568359375,0.0197,-18.5625,40.5625,-23.375,8.3,-3.62,moving,2
7.4,1665289.249576915,25,3,3,3,0,-185.0,4.1,-0.16,1.88,-4.21,3.44,0.54,-30.9375,13.25,554.25,0.81781005859375,0.12255859375,-0.15240478515625,0.0197,-18.5625,40.5625,-23.375,8.31,-3.6,moving,2
7.41,1665289.263932668,25,3,3,3,0,-156.0,4.12,-0.24,2.18,-4.19,3.33,-0.16,-37.1875,14.25,554.9375,0.8173828125,0.11981201171875,-0.15435791015625,0.0187,-18.1875,42.0625,-23.375,8.32,-3.57,moving,2
7.42,1665289.263932668,25,3,3,3,0,-121.0,4.04,-0.43,2.53,-4.28,3.11,0.0,-44.625,15.6875,555.625,0.81695556640625,0.1165771484375,-0.1568603515625,0.0187,-18.1875,42.0625,-23.4375,8.33,-3.54,moving,2
7.43,1665289.294802175,25,3,3,3,0,-83.0,3.88,-0.63,2.92,-4.46,2.88,0.36,-50.6875,17.75,556.25,0.8165283203125,0.1129150390625,-0.15960693359375,0.0187,-18.1875,42.0625,-23.4375,8.34,-3.51,moving,2
7.44,1665289.294802175,25,3,3,3,0,-24.0,3.21,-0.75,3.51,-5.13,2.73,0.91,-54.875,20.0,556.625,0.81622314453125,0.1087646484375,-0.16265869140625,0.0187,-18.1875,42.0625,-23.5,8.35,-3.49,moving,2
7.45,1665289.308782156,25,3,3,3,0,13.0,2.91,-0.82,3.89,-5.44,2.64,1.94,-55.75,22.1875,556.625,0.816162109375,0.1043701171875,-0.16571044921875,0.0187,-18.1875,42.0625,-23.5,8.36,-3.47,moving,2
7.46,1665289.308782156,25,3,3,3,0,33.0,2.71,-0.76,4.09,-5.64,2.7,3.5,-53.4375,23.6875,555.875,0.816650390625,0.099853515625,-0.1685791015625,0.02,-19.1875,41.75,-23.5,8.36,-3.46,moving,2
7.47,1665289.32438209,25,3,3,3,0,41.0,2.51,-0.58,4.17,-5.84,2.89,4.81,-49.0,24.25,554.5,0.81756591796875,0.0953369140625,-0.17120361328125,0.02,-19.1875,41.75,-23.4375,8.36,-3.48,moving,2
7.48,1665289.32438209,25,3,3,3,0,8.0,2.24,0.04,3.83,-6.1,3.54,5.84,-41.625,23.9375,552.5,0.81884765625,0.09112548828125,-0.17333984375,0.02,-19.1875,41.75,-23.375,8.35,-3.5,moving,2
7.48,1665289.356328542,25,3,3,3,0,-27.0,2.39,0.46,3.46,-5.94,4.01,6.88,-33.6875,22.5,550.0,0.82049560546875,0.0872802734375,-0.175048828125,0.02,-19.1875,41.75,-23.3125,8.34,-3.54,moving,2
7.5,1665289.356328542,25,3,3,3,0,-80.0,2.81,0.71,2.91,-5.5,4.31,7.89,-28.25,21.375,546.9375,0.82257080078125,0.08367919921875,-0.17645263671875,0.02,-19.1875,41.75,-23.25,8.32,-3.6,moving,2
7.51,1665289.370687551,25,3,3,3,0,-211.0,4.5,0.65,1.59,-3.8,4.32,8.56,-23.25,20.6875,543.5,0.8248291015625,0.080322265625,-0.17755126953125,0.02,-19.1875,39.5,-23.125,8.3,-3.66,moving,2
7.52,1665289.370687551,25,3,3,3,0,-294.0,5.54,0.2,0.74,-2.73,3.93,8.93,-17.0,20.75,539.8125,0.8272705078125,0.0771484375,-0.17822265625,0.02,-19.1875,39.5,-23.0,8.28,-3.73,moving,2
7.53,1665289.385099009,25,3,3,3,0,-374.0,6.52,-0.32,-0.07,-1.73,3.48,9.27,-12.3125,20.375,535.9375,0.829833984375,0.07421875,-0.17852783203125,0.02,-19.1875,39.5,-22.875,8.25,-3.8,moving,2
7.54,1665289.385099009,25,3,3,3,0,-460.0,7.53,-1.17,-0.95,-0.7,2.7,8.76,-15.4375,19.875,532.3125,0.83221435546875,0.07122802734375,-0.17913818359375,0.02,-19.1875,39.5,-22.75,8.23,-3.87,moving,2
7.55,1665289.416403249,25,3,3,3,0,-567.0,9.46,-3.4,-2.04,1.24,0.52,6.84,-25.1875,20.4375,529.625,0.8338623046875,0.06793212890625,-0.1802978515625,0.02,-19.1875,39.5,-22.6875,8.21,-3.92,moving,2
7.56,1665289.416403249,25,3,3,3,0,-583.0,10.44,-4.69,-2.2,2.22,-0.76,3.12,-40.625,22.3125,528.8125,0.834228515625,0.06414794921875,-0.182373046875,0.0207,-18.875,34.5,-22.6875,8.22,-3.92,moving,2
7.57,1665289.431468679,25,3,3,3,0,-589.0,9.86,-8.62,-2.26,1.62,-4.75,-1.96,-53.0625,25.9375,530.4375,0.83294677734375,0.06005859375,-0.18499755859375,0.0207,-18.875,34.5,-22.6875,8.24,-3.87,moving,2
7.58,1665289.431468679,25,3,3,3,0,-602.0,10.47,-13.15,-2.37,2.17,-9.41,-7.72,-92.4375,32.5,535.0625,0.82940673828125,0.0543212890625,-0.19000244140625,0.0207,-18.875,34.5,-22.75,8.29,-3.74,moving,2
7.59,1665289.447897227,25,3,3,3,0,-724.0,18.56,-12.49,-3.59,10.19,-8.92,-11.78,-99.25,39.125,541.625,0.82452392578125,0.04815673828125,-0.195068359375,0.0207,-18.875,34.5,-22.8125,8.36,-3.57,moving,2
7.6,1665289.447897227,25,3,3,3,0,-662.0,20.23,-7.99,-3.0,11.8,-4.51,-9.01,-15.75,30.4375,546.375,0.82177734375,0.04620361328125,-0.19451904296875,0.0207,-18.875,34.5,-22.5625,8.42,-3.48,moving,2
7.61,1665289.474737478,25,3,3,3,0,-532.0,20.15,-5.65,-1.73,11.73,-2.13,1.36,34.75,5.9375,545.6875,0.82275390625,0.0472412109375,-0.1917724609375,0.0207,-18.5625,32.0625,-22.375,8.42,-3.51,moving,2
7.62,1665289.474737478,25,3,3,3,0,-473.0,18.65,-4.14,-1.16,10.26,-0.53,6.71,44.8125,-9.0,542.3125,0.825439453125,0.04931640625,-0.189208984375,0.0207,-18.5625,32.0625,-22.3125,8.39,-3.6,moving,2
7.63,1665289.488874319,25,3,3,3,0,-456.0,14.79,-5.14,-0.99,6.42,-1.48,3.85,39.9375,-11.9375,540.125,0.8271484375,0.0516357421875,-0.18695068359375,0.0207,-18.5625,32.0625,-22.25,8.36,-3.66,moving,2
7.64,1665289.488874319,25,3,3,3,0,-486.0,14.03,-6.58,-1.3,5.66,-2.91,-1.24,28.0625,-9.75,540.4375,0.82720947265625,0.0537109375,-0.18536376953125,0.0207,-18.5625,32.0625,-22.25,8.36,-3.67,moving,2
7.65,1665289.504355764,25,3,3,3,0,-504.0,13.77,-8.33,-1.48,5.39,-4.69,-4.32,17.6875,-5.5625,542.25,0.826171875,0.05535888671875,-0.1842041015625,0.0207,-18.5625,32.0625,-22.25,8.38,-3.64,moving,2
7.65,1665289.504355764,25,3,3,3,0,-504.0,13.77,-8.33,-1.48,5.39,-4.69,-4.32,17.6875,-5.5625,542.25,0.826171875,0.05535888671875,-0.1842041015625,0.0207,-18.5625,32.0625,-22.25,8.38,-3.64,moving,2
7.66,1665289.519592947,25,3,3,3,0,-469.0,12.8,-8.94,-1.13,4.4,-5.33,-4.73,8.3125,-4.5625,544.3125,0.824951171875,0.05657958984375,-0.18365478515625,0.0197,-18.0625,33.25,-22.25,8.39,-3.6,moving,2
7.67,1665289.519592947,25,3,3,3,0,-442.0,11.97,-7.44,-0.86,3.57,-3.85,-2.83,19.75,-8.75,545.375,0.82440185546875,0.05841064453125,-0.18255615234375,0.0197,-18.0625,33.25,-22.25,8.4,-3.58,moving,2
7.68,1665289.534096527,25,3,3,3,0,-384.0,11.19,-5.93,-0.28,2.8,-2.31,1.32,39.25,-15.625,544.3125,0.8253173828125,0.06121826171875,-0.18048095703125,0.0197,-18.0625,33.25,-22.25,8.38,-3.62,moving,2
7.69,1665289.534096527,25,3,3,3,0,-326.0,10.11,-4.69,0.29,1.75,-0.99,5.04,51.9375,-21.0,541.375,0.82745361328125,0.06463623046875,-0.17791748046875,0.0197,-18.0625,33.25,-22.1875,8.35,-3.7,moving,2
7.7,1665289.564178884,25,3,3,3,0,-260.0,7.82,-2.85,0.95,-0.49,0.92,5.4,55.625,-23.5,538.1875,0.8297119140625,0.068359375,-0.1751708984375,0.0197,-18.0625,33.25,-22.1875,8.31,-3.78,moving,2
7.71,1665289.564178884,25,3,3,3,0,-250.0,6.98,-2.31,1.04,-1.3,1.53,3.38,52.8125,-23.6875,535.875,0.83135986328125,0.07220458984375,-0.17254638671875,0.0205,-19.0625,34.5,-22.1875,8.28,-3.85,moving,2
7.72,1665289.579248546,25,3,3,3,0,-252.0,6.31,-1.97,1.02,-1.95,1.9,0.42,48.0,-22.75,535.0625,0.83203125,0.07598876953125,-0.17010498046875,0.0205,-19.0625,34.5,-22.1875,8.27,-3.88,moving,2
7.73,1665289.579248546,25,3,3,3,0,-265.0,5.82,-1.84,0.9,-2.43,2.04,-2.24,43.875,-22.125,535.4375,0.8319091796875,0.07977294921875,-0.1678466796875,0.0205,-19.0625,34.5,-22.1875,8.26,-3.89,moving,2
7.74,1665289.594280447,25,3,3,3,0,-291.0,5.54,-2.07,0.64,-2.73,1.8,-4.11,41.4375,-21.875,536.75,0.8311767578125,0.08367919921875,-0.1656494140625,0.0205,-19.0625,34.5,-22.25,8.27,-3.88,moving,2
7.75,1665289.594280447,25,3,3,3,0,-290.0,5.24,-2.27,0.66,-3.04,1.58,-5.26,39.0,-21.375,538.5625,0.830078125,0.08746337890625,-0.16351318359375,0.0205,-19.0625,34.5,-22.25,8.28,-3.85,moving,2
7.76,1665289.624489228,25,3,3,3,0,-272.0,5.02,-2.45,0.84,-3.27,1.37,-5.6,37.875,-21.125,540.5625,0.82879638671875,0.09124755859375,-0.1614990234375,0.0215,-18.375,36.25,-22.25,8.29,-3.82,moving,2
7.77,1665289.624489228,25,3,3,3,0,-238.0,4.81,-2.63,1.18,-3.48,1.17,-5.37,41.25,-21.875,542.375,0.82763671875,0.09515380859375,-0.15924072265625,0.0215,-18.375,36.25,-22.3125,8.3,-3.8,moving,2
7.78,1665289.639632253,25,3,3,3,0,-153.0,4.15,-2.54,2.04,-4.15,1.24,-4.82,47.3125,-23.4375,543.875,0.82672119140625,0.0994873046875,-0.15667724609375,0.0215,-18.375,36.25,-22.3125,8.3,-3.79,moving,2
7.79,1665289.639632253,25,3,3,3,0,-129.0,3.64,-2.36,2.28,-4.66,1.42,-4.71,55.875,-24.75,545.1875,0.82586669921875,0.104248046875,-0.15350341796875,0.0215,-18.375,36.25,-22.3125,8.31,-3.78,moving,2
7.8,1665289.654046845,25,3,3,3,0,-120.0,3.06,-2.13,2.36,-5.24,1.64,-4.7,64.125,-26.0625,546.375,0.82513427734375,0.1094970703125,-0.14984130859375,0.0215,-18.375,36.25,-22.3125,8.31,-3.78,moving,2
7.81,1665289.654046845,25,3,3,3,0,-107.0,1.9,-1.3,2.49,-6.4,2.48,-4.62,72.0,-27.5,547.4375,0.824462890625,0.11517333984375,-0.1456298828125,0.0201,-18.375,38.25,-22.25,8.31,-3.78,moving,2
7.82,1665289.684064301,25,3,3,3,0,-101.0,1.39,-0.9,2.53,-6.92,2.89,-4.55,79.3125,-29.1875,548.3125,0.82379150390625,0.121337890625,-0.1409912109375,0.0201,-18.375,38.25,-22.1875,8.31,-3.79,moving,2
7.83,1665289.684064301,25,3,3,3,0,-92.0,1.04,-0.47,2.61,-7.26,3.33,-4.05,83.8125,-31.625,548.875,0.82330322265625,0.12786865234375,-0.13616943359375,0.0201,-18.375,38.25,-22.125,8.31,-3.8,moving,2
7.84,1665289.699221405,25,3,3,3,0,-84.0,0.93,-0.08,2.69,-7.37,3.74,-3.69,80.4375,-33.75,549.25,0.82275390625,0.13427734375,-0.1317138671875,0.0201,-18.375,38.25,-22.0625,8.3,-3.82,moving,2
7.85,1665289.699221405,25,3,3,3,0,-91.0,2.09,0.75,2.62,-6.21,4.58,-3.56,70.625,-33.5,549.625,0.8221435546875,0.1402587890625,-0.1279296875,0.0201,-18.375,38.25,-22.0625,8.3,-3.83,moving,2
7.86,1665289.714282847,25,3,3,3,0,-126.0,3.28,1.12,2.27,-5.01,4.96,-3.34,57.4375,-30.3125,550.0625,0.8214111328125,0.1453857421875,-0.125,0.019,-18.375,40.5625,-22.125,8.29,-3.84,moving,2
7.87,1665289.714282847,25,3,3,3,0,-171.0,4.58,1.33,1.83,-3.7,5.17,-2.36,49.4375,-25.625,550.25,0.8209228515625,0.149658203125,-0.1224365234375,0.019,-18.375,40.5625,-22.125,8.29,-3.84,moving,2
7.88,1665289.744934825,25,3,3,3,0,-225.0,5.89,1.33,1.28,-2.38,5.2,-0.96,47.75,-21.125,549.8125,0.82086181640625,0.15350341796875,-0.11993408203125,0.019,-18.375,40.5625,-22.125,8.28,-3.87,moving,2
7.89,1665289.744934825,25,3,3,3,0,-273.0,8.58,0.04,0.8,0.31,3.94,0.14,44.125,-16.5,548.9375,0.82110595703125,0.15673828125,-0.1175537109375,0.019,-18.375,40.5625,-22.125,8.27,-3.89,moving,2
7.9,1665289.759050507,25,3,3,3,0,-284.0,9.88,-1.82,0.69,1.61,2.09,0.64,24.6875,-11.0,548.1875,0.8214111328125,0.15863037109375,-0.11639404296875,0.019,-18.375,40.5625,-22.125,8.26,-3.91,moving,2
7.91,1665289.759050507,25,3,3,3,0,-263.0,10.98,-3.8,0.92,2.71,0.09,-0.81,-18.1875,-4.1875,548.8125,0.8209228515625,0.15814208984375,-0.1177978515625,0.0183,-17.5625,41.75,-22.1875,8.26,-3.9,moving,2
7.91,1665289.77425408,25,3,3,3,0,-263.0,10.98,-3.8,0.92,2.71,0.09,-0.81,-18.1875,-4.1875,548.8125,0.8209228515625,0.15814208984375,-0.1177978515625,0.0183,-17.5625,41.75,-22.1875,8.26,-3.9,moving,2
7.92,1665289.77425408,25,3,3,3,0,-277.0,11.03,-8.04,0.82,2.74,-4.23,-5.63,-64.0,3.3125,552.3125,0.818603515625,0.1552734375,-0.12176513671875,0.0183,-17.5625,41.75,-22.4375,8.28,-3.8,moving,2
7.93,1665289.789516042,25,3,3,3,0,-637.0,14.2,-17.15,-2.73,5.84,-13.54,-13.47,-114.125,16.375,560.25,0.8135986328125,0.14959716796875,-0.12799072265625,0.0183,-17.5625,41.75,-22.75,8.35,-3.61,moving,2
7.94,1665289.789516042,25,3,3,3,0,-861.0,17.96,-15.46,-4.93,9.52,-12.09,-18.39,-120.75,31.9375,570.5,0.80706787109375,0.142822265625,-0.13348388671875,0.0183,-17.5625,41.75,-22.9375,8.44,-3.36,moving,2
7.95,1665289.804690644,25,3,3,3,0,-908.0,21.53,-9.61,-5.43,13.02,-6.38,-12.68,-43.0625,32.4375,577.125,0.8031005859375,0.13934326171875,-0.13397216796875,0.0183,-17.5625,41.75,-22.8125,8.51,-3.22,moving,2
7.96,1665289.804690644,25,3,3,3,0,-917.0,22.53,-6.02,-5.56,14.02,-2.76,3.32,11.0625,21.0,575.75,0.80450439453125,0.13818359375,-0.13238525390625,0.0183,-16.875,41.6875,-22.5625,8.51,-3.26,moving,2
7.97,1665289.835431407,25,3,3,3,0,-716.0,16.13,-1.44,-3.58,7.66,1.95,13.29,19.75,11.0,569.625,0.8089599609375,0.13739013671875,-0.1314697265625,0.0183,-16.875,41.6875,-22.375,8.47,-3.39,moving,2
7.98,1665289.835431407,25,3,3,3,0,-635.0,13.7,-0.91,-2.78,5.26,2.58,10.51,2.625,7.5625,564.9375,0.812255859375,0.13623046875,-0.13165283203125,0.0183,-16.875,41.6875,-22.3125,8.43,-3.49,moving,2
7.99,1665289.849692312,25,3,3,3,0,-568.0,12.06,-1.75,-2.11,3.63,1.76,3.76,-25.6875,9.1875,563.6875,0.81317138671875,0.13409423828125,-0.13330078125,0.0183,-16.875,41.6875,-22.3125,8.42,-3.51,moving,2
8.0,1665289.849692312,25,3,3,3,0,-506.0,10.01,-5.78,-1.48,1.57,-2.31,-1.4,-45.9375,12.75,565.0,0.8123779296875,0.13104248046875,-0.1358642578125,0.0183,-16.875,41.6875,-22.375,8.44,-3.47,moving,2
8.01,1665289.865502127,25,3,3,3,0,-486.0,9.14,-7.47,-1.27,0.68,-4.07,-3.85,-61.5,16.75,567.6875,0.81060791015625,0.127197265625,-0.13916015625,0.0194,-17.1875,41.6875,-22.4375,8.46,-3.39,moving,2
8.02,1665289.865502127,25,3,3,3,0,-450.0,8.31,-7.19,-0.89,-0.17,-3.88,-4.56,-72.5625,20.8125,570.8125,0.80859375,0.12255859375,-0.1429443359375,0.0194,-17.1875,41.6875,-22.5,8.49,-3.31,moving,2
8.03,1665289.895225393,25,3,3,3,0,-433.0,7.61,-5.84,-0.72,-0.9,-2.58,-1.59,-62.5625,21.625,572.5,0.80755615234375,0.11810302734375,-0.14617919921875,0.0194,-17.1875,41.6875,-22.5625,8.51,-3.25,moving,2
8.04,1665289.895225393,25,3,3,3,0,-381.0,6.91,-3.48,-0.2,-1.59,-0.19,5.22,-30.6875,18.1875,570.6875,0.80889892578125,0.1148681640625,-0.1478271484375,0.0194,-17.1875,41.6875,-22.5,8.5,-3.28,moving,2
8.05,1665289.911114838,25,3,3,3,0,-365.0,6.42,-2.42,-0.07,-2.05,0.96,11.02,-3.8125,14.625,565.9375,0.8123779296875,0.11279296875,-0.1480712890625,0.0194,-17.1875,41.6875,-22.375,8.47,-3.38,moving,2
8.06,1665289.911114838,25,3,3,3,0,-359.0,5.85,-1.52,-0.03,-2.58,1.98,12.13,10.0625,14.0625,560.5,0.8162841796875,0.11126708984375,-0.14739990234375,0.0194,-18.0,40.5,-22.1875,8.44,-3.5,moving,2
8.07,1665289.925098237,25,3,3,3,0,-365.0,5.42,-0.84,-0.13,-2.99,2.74,9.19,7.875,15.5625,556.4375,0.8192138671875,0.10980224609375,-0.14666748046875,0.0194,-18.0,40.5,-22.0,8.41,-3.59,moving,2
8.08,1665289.925098237,25,3,3,3,0,-382.0,5.98,-1.04,-0.32,-2.42,2.58,4.31,-4.375,17.4375,554.75,0.82061767578125,0.1080322265625,-0.14642333984375,0.0194,-18.0,40.5,-21.875,8.4,-3.63,moving,2
8.09,1665289.955891368,25,3,3,3,0,-374.0,6.44,-1.63,-0.25,-1.97,1.98,0.26,-20.1875,18.0,555.0625,0.82061767578125,0.105712890625,-0.14703369140625,0.0194,-18.0,40.5,-21.8125,8.41,-3.62,moving,2
8.1,1665289.955891368,25,3,3,3,0,-370.0,6.6,-2.25,-0.22,-1.83,1.33,-2.05,-27.125,17.1875,556.4375,0.81982421875,0.1033935546875,-0.14801025390625,0.0194,-18.0,40.5,-21.75,8.43,-3.58,moving,2
8.11,1665289.971398977,25,3,3,3,0,-383.0,6.88,-2.73,-0.35,-1.57,0.8,-3.29,-26.0625,14.5625,558.375,0.818603515625,0.10137939453125,-0.14898681640625,0.019,-18.375,40.0625,-21.6875,8.45,-3.53,moving,2
8.12,1665289.971398977,25,3,3,3,0,-423.0,7.41,-3.18,-0.76,-1.06,0.31,-3.29,-26.0625,14.5625,560.3125,0.81744384765625,0.099365234375,-0.1500244140625,0.019,-18.375,40.0625,-21.6875,8.48,-3.49,moving,2
8.13,1665289.985020112,25,3,3,3,0,-433.0,7.48,-3.13,-0.86,-1.0,0.32,-2.36,-20.25,10.6875,561.75,0.8165283203125,0.09783935546875,-0.15081787109375,0.019,-18.375,40.0625,-21.625,8.49,-3.45,moving,2
8.14,1665289.985020112,25,3,3,3,0,-431.0,7.46,-2.9,-0.84,-1.03,0.54,-0.76,-10.5625,6.0,562.25,0.81622314453125,0.09698486328125,-0.1512451171875,0.019,-18.375,40.0625,-21.625,8.5,-3.44,moving,2
8.15,1665290.029546723,25,3,3,3,0,-398.0,7.31,-2.17,-0.51,-1.18,1.27,0.98,-0.5625,0.5625,561.8125,0.8165283203125,0.0968017578125,-0.15130615234375,0.019,-18.375,40.0625,-21.625,8.49,-3.45,moving,2
8.16,1665290.029546723,25,3,3,3,0,-371.0,7.23,-1.85,-0.24,-1.24,1.62,2.17,6.5625,-8.75,560.6875,0.81719970703125,0.09759521484375,-0.1513671875,0.019,-18.6875,39.375,-21.6875,8.48,-3.47,moving,2
8.17,1665290.034966726,25,3,3,3,0,-355.0,7.33,-1.66,-0.06,-1.13,1.83,2.17,6.5625,-8.75,559.5,0.81781005859375,0.09832763671875,-0.1514892578125,0.019,-18.6875,39.375,-21.75,8.47,-3.5,moving,2
8.18,1665290.034966726,25,3,3,3,0,-347.0,7.59,-1.6,0.02,-0.86,1.9,1.17,4.125,-10.875,558.75,0.818115234375,0.0992431640625,-0.15179443359375,0.019,-18.6875,39.375,-21.8125,8.46,-3.51,moving,2
8.18,1665290.04377886,25,3,3,3,0,-347.0,7.59,-1.6,0.02,-0.86,1.9,1.17,4.125,-10.875,558.75,0.818115234375,0.0992431640625,-0.15179443359375,0.019,-18.6875,39.375,-21.8125,8.46,-3.51,moving,2
8.19,1665290.04377886,25,3,3,3,0,-328.0,7.95,-2.15,0.23,-0.5,1.35,-0.12,0.0625,-12.0625,558.6875,0.8179931640625,0.10009765625,-0.15234375,0.019,-18.6875,39.375,-21.9375,8.45,-3.51,moving,2
8.2,1665290.058832042,25,3,3,3,0,-331.0,8.1,-2.62,0.21,-0.34,0.87,-1.05,-3.6875,-12.0625,559.0,0.8175048828125,0.10089111328125,-0.15313720703125,0.019,-18.6875,39.375,-22.0625,8.45,-3.5,moving,2
8.21,1665290.058832042,25,3,3,3,0,-333.0,8.32,-3.03,0.21,-0.12,0.44,-1.95,-6.5625,-9.3125,559.875,0.8167724609375,0.10137939453125,-0.1539306640625,0.0201,-19.0,39.6875,-22.1875,8.45,-3.47,moving,2
8.22,1665290.074203746,25,3,3,3,0,-348.0,8.56,-3.33,0.08,0.1,0.11,-1.99,-6.1875,-7.9375,560.6875,0.81597900390625,0.10186767578125,-0.1546630859375,0.0201,-19.0,39.6875,-22.25,8.45,-3.45,moving,2
8.23,1665290.074203746,25,3,3,3,0,-376.0,9.0,-3.8,-0.18,0.54,-0.36,-1.58,-5.0,-6.8125,561.375,0.81536865234375,0.10223388671875,-0.1552734375,0.0201,-19.0,39.6875,-22.375,8.45,-3.43,moving,2
8.24,1665290.104368541,25,3,3,3,0,-381.0,9.19,-3.91,-0.22,0.74,-0.48,-0.85,-2.3125,-5.75,561.75,0.8150634765625,0.10260009765625,-0.15570068359375,0.0201,-19.0,39.6875,-22.4375,8.45,-3.42,moving,2
8.25,1665290.104368541,25,3,3,3,0,-382.0,9.33,-3.99,-0.22,0.87,-0.56,0.07,0.875,-4.4375,561.6875,0.81500244140625,0.10296630859375,-0.15582275390625,0.0201,-19.0,39.6875,-22.4375,8.45,-3.42,moving,2
8.26,1665290.119462494,25,3,3,3,0,-378.0,9.49,-4.08,-0.18,1.04,-0.64,0.72,2.4375,-2.75,561.25,0.81524658203125,0.10321044921875,-0.1558837890625,0.0201,-17.5625,40.875,-22.5,8.44,-3.43,moving,2
8.27,1665290.119462494,25,3,3,3,0,-347.0,9.55,-4.1,0.12,1.11,-0.65,1.05,1.1875,-0.75,560.75,0.8155517578125,0.103271484375,-0.1558837890625,0.0201,-17.5625,40.875,-22.5,8.44,-3.44,moving,2
8.28,1665290.135344941,25,3,3,3,0,-334.0,9.48,-4.15,0.26,1.04,-0.69,1.1,-1.4375,1.1875,560.3125,0.81585693359375,0.10302734375,-0.156005859375,0.0201,-17.5625,40.875,-22.5,8.44,-3.45,moving,2
8.29,1665290.135344941,25,3,3,3,0,-325.0,9.41,-4.17,0.34,0.97,-0.71,0.92,-4.75,2.75,560.0,0.81610107421875,0.1025390625,-0.15625,0.0201,-17.5625,40.875,-22.5,8.43,-3.46,stop,2
8.3,1665290.165806855,25,3,3,3,0,-311.0,9.21,-4.12,0.48,0.77,-0.65,0.85,-6.4375,3.75,559.6875,0.8162841796875,0.10186767578125,-0.1566162109375,0.0201,-17.5625,40.875,-22.4375,8.43,-3.46,stop,2
8.31,1665290.165806855,25,3,3,3,0,-305.0,8.89,-3.94,0.54,0.45,-0.47,0.93,-5.25,4.125,559.375,0.8165283203125,0.10125732421875,-0.15679931640625,0.0187,-18.0,40.0625,-22.4375,8.43,-3.47,stop,2
8.32,1665290.182641897,25,3,3,3,0,-309.0,8.62,-3.73,0.49,0.18,-0.25,1.04,-3.3125,4.5,559.0,0.81683349609375,0.10064697265625,-0.15692138671875,0.0187,-18.0,40.0625,-22.4375,8.43,-3.47,stop,2
8.33,1665290.182641897,25,3,3,3,0,-320.0,8.42,-3.52,0.38,-0.01,-0.04,1.08,-2.5625,4.875,558.625,0.81719970703125,0.10009765625,-0.15692138671875,0.0187,-18.0,40.0625,-22.375,8.43,-3.48,stop,2
8.34,1665290.196032278,25,3,3,3,0,-337.0,8.05,-3.22,0.2,-0.38,0.26,1.06,-2.125,4.75,558.1875,0.8175048828125,0.099609375,-0.15692138671875,0.0187,-18.0,40.0625,-22.375,8.43,-3.49,stop,2
8.35,1665290.196032278,25,3,3,3,0,-340.0,7.93,-3.14,0.17,-0.49,0.35,0.98,-2.4375,4.375,557.875,0.81781005859375,0.09906005859375,-0.15692138671875,0.0187,-18.0,40.0625,-22.3125,8.43,-3.5,stop,2
8.36,1665290.224683727,25,3,3,3,0,-348.0,7.82,-3.07,0.09,-0.6,0.42,0.93,-3.125,3.9375,557.5,0.81805419921875,0.09857177734375,-0.15704345703125,0.0187,-18.0,41.25,-22.3125,8.43,-3.5,stop,2
8.37,1665290.224683727,25,3,3,3,0,-353.0,7.76,-3.09,0.03,-0.66,0.42,0.92,-4.1875,3.5,557.1875,0.81829833984375,0.0980224609375,-0.1572265625,0.0187,-18.0,41.25,-22.25,8.43,-3.51,stop,2
8.38,1665290.25421339,25,3,3,3,0,-361.0,7.83,-3.15,-0.05,-0.59,0.36,0.95,-5.0625,3.1875,556.8125,0.81854248046875,0.09747314453125,-0.157470703125,0.0187,-18.0,41.25,-22.25,8.42,-3.52,stop,2
8.39,1665290.25421339,25,3,3,3,0,-365.0,7.95,-3.24,-0.09,-0.47,0.27,0.96,-5.1875,2.875,556.5,0.81878662109375,0.096923828125,-0.15777587890625,0.0187,-18.0,41.25,-22.25,8.42,-3.52,stop,2
8.4,1665290.259709768,25,3,3,3,0,-363.0,8.08,-3.34,-0.07,-0.34,0.18,0.89,-5.3125,3.1875,556.1875,0.8189697265625,0.09637451171875,-0.15802001953125,0.0187,-18.0,41.25,-22.25,8.42,-3.53,stop,2
8.41,1665290.259709768,25,3,3,3,0,-361.0,8.23,-3.49,-0.05,-0.18,0.03,0.85,-5.5,3.75,555.875,0.8192138671875,0.09576416015625,-0.1583251953125,0.0201,-18.375,40.5,-22.25,8.42,-3.53,stop,2
8.42,1665290.285020722,25,3,3,3,0,-351.0,8.55,-3.78,0.04,0.12,-0.24,0.72,-5.0625,4.3125,555.625,0.81939697265625,0.09515380859375,-0.15850830078125,0.0201,-18.375,40.5,-22.25,8.42,-3.53,stop,2
8.43,1665290.285020722,25,3,3,3,0,-346.0,8.7,-3.95,0.09,0.28,-0.41,0.55,-4.75,4.875,555.5,0.81951904296875,0.09454345703125,-0.15863037109375,0.0201,-18.375,40.5,-22.1875,8.42,-3.54,stop,2
8.44,1665290.301610891,25,3,3,3,0,-341.0,8.82,-4.05,0.13,0.39,-0.5,0.49,-3.625,5.375,555.375,0.81964111328125,0.09393310546875,-0.15869140625,0.0201,-18.375,40.5,-22.1875,8.42,-3.54,stop,2
8.45,1665290.301610891,25,3,3,3,0,-337.0,8.97,-4.15,0.17,0.54,-0.6,0.56,-1.875,5.75,555.25,0.81982421875,0.0933837890625,-0.1585693359375,0.0201,-18.375,40.5,-22.125,8.42,-3.54,stop,2
8.46,1665290.315087657,25,3,3,3,0,-333.0,8.98,-4.11,0.2,0.55,-0.56,0.77,0.3125,5.875,555.0,0.82012939453125,0.0928955078125,-0.1583251953125,0.0197,-18.6875,40.5,-22.0625,8.42,-3.55,stop,2
8.47,1665290.315087657,25,3,3,3,0,-333.0,8.96,-4.03,0.18,0.53,-0.47,0.9,1.6875,5.6875,554.625,0.8204345703125,0.09246826171875,-0.15802001953125,0.0197,-18.6875,40.5,-22.0,8.42,-3.56,stop,2
8.48,1665290.346478526,25,3,3,3,0,-330.0,8.91,-3.95,0.21,0.49,-0.38,1.03,2.25,5.125,554.1875,0.82080078125,0.0921630859375,-0.15765380859375,0.0197,-18.6875,40.5,-21.9375,8.42,-3.57,stop,2
8.49,1665290.346478526,25,3,3,3,0,-323.0,8.75,-3.8,0.27,0.32,-0.22,1.0,1.9375,4.625,553.8125,0.8211669921875,0.091796875,-0.1573486328125,0.0197,-18.6875,40.5,-21.875,8.42,-3.58,stop,2
8.5,1665290.359082937,25,3,3,3,0,-319.0,8.67,-3.76,0.3,0.24,-0.17,0.89,0.875,3.875,553.4375,0.82147216796875,0.09149169921875,-0.15716552734375,0.0197,-18.6875,40.5,-21.875,8.42,-3.59,stop,2
8.51,1665290.359082937,25,3,3,3,0,-313.0,8.6,-3.77,0.0,0.09,-0.04,0.73,0.0625,3.5625,551.25,0.8270263671875,0.0810546875,-0.14013671875,0.0205,-19.375,41.25,-19.5,8.5,-3.73,stop,2
8.52,1665290.390485444,25,3,3,3,0,-305.0,8.46,-3.75,0.06,-0.04,-0.01,0.61,-0.5625,3.3125,551.0,0.82720947265625,0.08074951171875,-0.14007568359375,0.0205,-19.375,41.25,-19.5,8.5,-3.74,stop,2
8.53,1665290.390485444,25,3,3,3,0,-298.0,8.37,-3.76,0.13,-0.13,-0.02,0.58,-1.375,3.25,550.8125,0.827392578125,0.08038330078125,-0.14007568359375,0.0205,-19.375,41.25,-19.5,8.5,-3.74,stop,2
8.54,1665290.404360403,25,3,3,3,0,-296.0,8.29,-3.7,0.15,-0.21,0.05,0.65,-2.25,3.4375,550.5625,0.82757568359375,0.0799560546875,-0.14007568359375,0.0205,-19.375,41.25,-19.4375,8.5,-3.75,stop,2
8.55,1665290.404360403,25,3,3,3,0,-299.0,8.31,-3.69,0.11,-0.19,0.06,0.72,-2.4375,3.75,550.25,0.82781982421875,0.07952880859375,-0.14013671875,0.0205,-19.375,41.25,-19.4375,8.5,-3.75,stop,2
8.56,1665290.420058767,25,3,3,3,0,-303.0,8.33,-3.62,0.07,-0.17,0.13,0.73,-2.875,4.0625,550.0,0.8280029296875,0.07904052734375,-0.14013671875,0.019,-18.375,40.875,-19.375,8.5,-3.76,stop,2
8.57,1665290.420058767,25,3,3,3,0,-308.0,8.33,-3.64,0.01,-0.16,0.12,0.68,-4.0625,4.875,549.8125,0.82818603515625,0.07843017578125,-0.1402587890625,0.019,-18.375,40.875,-19.375,8.5,-3.76,stop,2
8.58,1665290.449413341,25,3,3,3,0,-319.0,8.32,-3.66,-0.09,-0.18,0.1,0.64,-4.4375,5.3125,549.5625,0.828369140625,0.07781982421875,-0.140380859375,0.019,-18.375,40.875,-19.3125,8.5,-3.77,stop,2
8.59,1665290.449413341,25,3,3,3,0,-329.0,8.35,-3.69,-0.2,-0.15,0.08,0.68,-4.4375,6.0,549.375,0.82855224609375,0.0771484375,-0.14044189453125,0.019,-18.375,40.875,-19.3125,8.5,-3.77,stop,2
8.6,1665290.464309785,25,3,3,3,0,-337.0,8.39,-3.71,-0.28,-0.11,0.06,0.7,-4.125,6.0625,549.1875,0.8287353515625,0.076416015625,-0.1405029296875,0.019,-18.375,40.875,-19.25,8.5,-3.77,stop,2
8.61,1665290.464309785,25,3,3,3,0,-348.0,8.48,-3.64,-0.4,-0.01,0.13,0.81,-3.5,5.875,548.875,0.8289794921875,0.0758056640625,-0.1405029296875,0.0197,-19.0,40.5,-19.25,8.5,-3.78,stop,2
8.62,1665290.47927532,25,3,3,3,0,-348.0,8.47,-3.61,-0.41,-0.02,0.17,0.9,-2.75,5.6875,548.5625,0.8292236328125,0.0751953125,-0.1405029296875,0.0197,-19.0,40.5,-19.1875,8.5,-3.79,stop,2
8.63,1665290.47927532,25,3,3,3,0,-346.0,8.48,-3.62,-0.39,-0.02,0.17,0.91,-2.625,5.25,548.25,0.82952880859375,0.0745849609375,-0.1405029296875,0.0197,-19.0,40.5,-19.125,8.5,-3.79,stop,2
8.64,1665290.509597504,25,3,3,3,0,-346.0,8.5,-3.61,-0.39,0.0,0.19,0.76,-2.375,4.9375,547.9375,0.8297119140625,0.0740966796875,-0.14044189453125,0.0197,-19.0,40.5,-19.125,8.5,-3.8,stop,2
8.65,1665290.509597504,25,3,3,3,0,-345.0,8.53,-3.61,-0.38,0.03,0.19,0.53,-2.625,4.9375,547.875,0.82977294921875,0.07366943359375,-0.14068603515625,0.0197,-19.0,40.5,-19.125,8.5,-3.8,stop,2
8.66,1665290.524770234,25,3,3,3,0,-345.0,8.57,-3.68,-0.39,0.07,0.11,0.29,-2.8125,4.625,547.875,0.82977294921875,0.07330322265625,-0.14093017578125,0.0201,-18.6875,40.5,-19.125,8.5,-3.8,stop,2
8.67,1665290.524770234,25,3,3,3,0,-346.0,8.54,-3.76,-0.4,0.04,0.03,0.11,-3.0,3.9375,547.9375,0.8297119140625,0.072998046875,-0.14117431640625,0.0201,-18.6875,40.5,-19.125,8.5,-3.8,stop,2
8.68,1665290.539044119,25,3,3,3,0,-339.0,8.61,-3.87,-0.33,0.1,-0.07,0.07,-2.6875,3.3125,548.0,0.82965087890625,0.07269287109375,-0.141357421875,0.0201,-18.6875,40.5,-19.125,8.5,-3.79,stop,2
8.69,1665290.539044119,25,3,3,3,0,-334.0,8.59,-3.87,-0.27,0.08,-0.08,0.1,-2.25,2.875,548.0,0.8297119140625,0.07244873046875,-0.1414794921875,0.0201,-18.6875,40.5,-19.125,8.5,-3.79,stop,2
8.7,1665290.553935599,25,3,3,3,0,-328.0,8.6,-3.88,-0.22,0.09,-0.09,0.2,-1.75,2.5,547.9375,0.8297119140625,0.07220458984375,-0.14154052734375,0.0201,-18.6875,40.5,-19.125,8.5,-3.79,stop,2
8.71,1665290.553935599,25,3,3,3,0,-325.0,8.6,-3.85,-0.19,0.09,-0.05,0.28,-1.75,2.5,547.8125,0.82977294921875,0.07196044921875,-0.1416015625,0.0197,-19.0,39.6875,-19.0625,8.5,-3.8,stop,2
8.72,1665290.584239065,25,3,3,3,0,-320.0,8.53,-3.85,-0.14,0.02,-0.05,0.34,-1.8125,2.4375,547.6875,0.82989501953125,0.07171630859375,-0.14166259765625,0.0197,-19.0,39.6875,-19.0625,8.5,-3.8,stop,2
8.73,1665290.584239065,25,3,3,3,0,-318.0,8.49,-3.84,-0.13,-0.01,-0.04,0.37,-1.875,2.875,547.5625,0.83001708984375,0.0714111328125,-0.1417236328125,0.0197,-19.0,39.6875,-19.0625,8.5,-3.8,stop,2
8.74,1665290.599378632,25,3,3,3,0,-321.0,8.46,-3.79,-0.15,-0.03,0.0,0.35,-2.0,3.0,547.4375,0.830078125,0.071044921875,-0.14178466796875,0.0197,-19.0,39.6875,-19.0625,8.5,-3.8,stop,2
8.75,1665290.599378632,25,3,3,3,0,-320.0,8.43,-3.77,-0.15,-0.06,0.03,0.35,-2.625,3.25,547.3125,0.83013916015625,0.0706787109375,-0.141845703125,0.0197,-19.0,39.6875,-19.0625,8.5,-3.8,stop,2
8.76,1665290.631049409,25,3,3,3,0,-324.0,8.43,-3.83,-0.19,-0.06,-0.02,0.31,-2.5,3.4375,547.25,0.83026123046875,0.07037353515625,-0.1419677734375,0.0201,-18.375,39.375,-19.0,8.5,-3.81,stop,2
8.77,1665290.631049409,25,3,3,3,0,-325.0,8.41,-3.85,-0.2,-0.09,-0.04,0.29,-2.6875,3.5,547.125,0.830322265625,0.07000732421875,-0.14202880859375,0.0201,-18.375,39.375,-19.0,8.5,-3.81,stop,2
8.78,1665290.659435151,25,3,3,3,0,-326.0,8.43,-3.89,-0.22,-0.06,-0.08,0.3,-2.3125,3.5,547.0,0.83038330078125,0.06964111328125,-0.14215087890625,0.0201,-18.375,39.375,-19.0,8.5,-3.81,stop,2
8.79,1665290.659435151,25,3,3,3,0,-332.0,8.49,-3.86,-0.27,-0.01,-0.05,0.32,-1.875,3.5,546.9375,0.83050537109375,0.0693359375,-0.1422119140625,0.0201,-18.375,39.375,-19.0,8.5,-3.81,stop,2
8.8,1665290.664392711,25,3,3,3,0,-333.0,8.5,-3.82,-0.29,0.0,0.0,0.29,-0.75,3.0,546.8125,0.83056640625,0.069091796875,-0.1422119140625,0.0201,-18.375,39.375,-19.0,8.5,-3.81,stop,2
8.81,1665290.664392711,25,3,3,3,0,-334.0,8.51,-3.81,-0.3,0.01,0.0,0.22,-0.25,3.0,546.6875,0.83062744140625,0.06890869140625,-0.14215087890625,0.0194,-18.375,39.6875,-18.9375,8.5,-3.81,stop,2
8.82,1665290.673965628,25,3,3,3,0,-334.0,8.53,-3.82,-0.3,0.02,0.0,0.14,-0.4375,3.0,546.6875,0.8306884765625,0.0687255859375,-0.14215087890625,0.0194,-18.375,39.6875,-18.9375,8.5,-3.82,stop,2
8.83,1665290.673965628,25,3,3,3,0,-331.0,8.56,-3.87,-0.28,0.05,-0.05,0.08,-0.625,2.8125,546.6875,0.8306884765625,0.06854248046875,-0.14215087890625,0.0194,-18.375,39.6875,-18.9375,8.5,-3.82,stop,2
8.84,1665290.705474742,25,3,3,3,0,-331.0,8.58,-3.89,-0.28,0.07,-0.07,0.04,-0.5625,2.4375,546.6875,0.8306884765625,0.06842041015625,-0.14215087890625,0.0194,-18.375,39.6875,-18.9375,8.5,-3.81,stop,2
8.85,1665290.705474742,25,3,3,3,0,-328.0,8.56,-3.9,-0.25,0.05,-0.08,0.03,-0.5625,2.1875,546.75,0.8306884765625,0.06829833984375,-0.14215087890625,0.0194,-18.375,39.6875,-18.9375,8.5,-3.81,stop,2
8.86,1665290.720182099,25,3,3,3,0,-326.0,8.56,-3.92,-0.23,0.05,-0.1,0.11,-0.375,1.5625,546.6875,0.83074951171875,0.06817626953125,-0.14215087890625,0.0205,-19.0,39.375,-18.9375,8.5,-3.82,stop,2
8.87,1665290.720182099,25,3,3,3,0,-321.0,8.53,-3.86,-0.18,0.02,-0.04,0.17,0.375,0.75,546.5625,0.830810546875,0.06817626953125,-0.14215087890625,0.0205,-19.0,39.375,-18.9375,8.5,-3.82,stop,2
8.88,1665290.735385997,25,3,3,3,0,-326.0,8.49,-3.83,-0.23,-0.01,-0.01,0.2,1.5625,0.0,546.4375,0.83087158203125,0.06829833984375,-0.14215087890625,0.0205,-19.0,39.375,-18.9375,8.5,-3.82,stop,2
8.89,1665290.735385997,25,3,3,3,0,-324.0,8.42,-3.77,-0.21,-0.07,0.05,0.2,2.0,-0.5625,546.3125,0.8309326171875,0.06842041015625,-0.14208984375,0.0205,-19.0,39.375,-18.9375,8.5,-3.82,stop,2
8.9,1665290.764928519,25,3,3,3,0,-325.0,8.45,-3.71,-0.22,-0.04,0.11,0.21,1.875,-1.1875,546.1875,0.83099365234375,0.068603515625,-0.14208984375,0.0205,-19.0,39.375,-18.9375,8.5,-3.83,stop,2
8.91,1665290.764928519,25,3,3,3,0,-326.0,8.44,-3.74,-0.23,-0.05,0.08,0.26,1.125,-1.875,546.0625,0.8310546875,0.06884765625,-0.14215087890625,0.0197,-18.6875,40.0625,-18.9375,8.5,-3.83,stop,2
8.92,1665290.77934018,25,3,3,3,0,-323.0,8.46,-3.73,-0.18,-0.02,0.1,0.21,0.375,-2.3125,545.9375,0.83111572265625,0.06903076171875,-0.142333984375,0.0197,-18.6875,40.0625,-19.0,8.49,-3.83,stop,2
8.93,1665290.77934018,25,3,3,3,0,-317.0,8.47,-3.69,-0.13,-0.01,0.13,0.21,0.0625,-2.4375,545.8125,0.83111572265625,0.0692138671875,-0.14251708984375,0.0197,-18.6875,40.0625,-19.0,8.49,-3.83,stop,2
8.94,1665290.793759817,25,3,3,3,0,-321.0,8.5,-3.63,-0.16,0.01,0.2,0.15,0.4375,-2.625,545.75,0.83111572265625,0.0694580078125,-0.14276123046875,0.0197,-18.6875,40.0625,-19.0625,8.49,-3.83,stop,2
8.95,1665290.793759817,25,3,3,3,0,-321.0,8.48,-3.65,-0.15,0.0,0.18,0.09,0.6875,-2.4375,545.75,0.8310546875,0.0697021484375,-0.14288330078125,0.0197,-18.6875,40.0625,-19.0625,8.49,-3.83,stop,2
8.96,1665290.824050223,25,3,3,3,0,-325.0,8.46,-3.69,-0.19,-0.02,0.14,0.0,0.5625,-2.3125,545.75,0.8310546875,0.0699462890625,-0.14300537109375,0.0205,-18.0,40.5,-19.125,8.49,-3.83,stop,2
8.97,1665290.824050223,25,3,3,3,0,-325.0,8.49,-3.75,-0.19,0.0,0.07,-0.11,0.1875,-2.3125,545.8125,0.8309326171875,0.07012939453125,-0.1431884765625,0.0205,-18.0,40.5,-19.125,8.48,-3.83,stop,2
8.98,1665290.839810721,25,3,3,3,0,-332.0,8.54,-3.85,-0.25,0.06,-0.02,-0.13,0.0625,-2.25,545.8125,0.83087158203125,0.07037353515625,-0.14337158203125,0.0205,-18.0,40.5,-19.1875,8.48,-3.83,stop,2
8.99,1665290.839810721,25,3,3,3,0,-334.0,8.55,-3.9,-0.27,0.07,-0.07,-0.07,0.125,-2.25,545.8125,0.83087158203125,0.070556640625,-0.14349365234375,0.0205,-18.0,40.5,-19.1875,8.48,-3.83,stop,2
9.0,1665290.87048341,25,3,3,3,0,-336.0,8.57,-3.88,-0.27,0.08,-0.05,0.1,0.625,-2.625,545.6875,0.83087158203125,0.07080078125,-0.14361572265625,0.0205,-18.0,40.5,-19.25,8.48,-3.83,stop,2
9.01,1665290.87048341,25,3,3,3,0,-336.0,8.56,-3.86,-0.27,0.08,-0.03,0.27,0.9375,-2.6875,545.5625,0.8309326171875,0.071044921875,-0.143798828125,0.0197,-18.6875,39.6875,-19.25,8.48,-3.83,stop,2
9.02,1665290.885607718,25,3,3,3,0,-326.0,8.57,-3.8,-0.17,0.09,0.03,0.44,0.875,-2.9375,545.3125,0.8310546875,0.07135009765625,-0.1439208984375,0.0197,-18.6875,39.6875,-19.3125,8.47,-3.83,stop,2
9.03,1665290.885607718,25,3,3,3,0,-325.0,8.53,-3.77,-0.15,0.05,0.06,0.54,0.4375,-2.8125,545.0,0.8311767578125,0.071533203125,-0.14410400390625,0.0197,-18.6875,39.6875,-19.3125,8.47,-3.84,stop,2
9.04,1665290.915935802,25,3,3,3,0,-323.0,8.51,-3.75,-0.13,0.04,0.09,0.59,0.4375,-2.8125,544.6875,0.831298828125,0.07171630859375,-0.144287109375,0.0197,-18.6875,39.6875,-19.375,8.47,-3.84,stop,2
9.05,1665290.915935802,25,3,3,3,0,-319.0,8.48,-3.7,-0.08,0.02,0.15,0.57,0.0,-2.3125,544.4375,0.8314208984375,0.07183837890625,-0.14447021484375,0.0197,-18.6875,39.6875,-19.375,8.46,-3.85,stop,2
9.06,1665290.921719697,25,3,3,3,0,-316.0,8.44,-3.72,-0.05,-0.01,0.13,0.58,-1.0,-1.75,544.1875,0.83154296875,0.0718994140625,-0.14471435546875,0.0201,-18.6875,39.375,-19.375,8.46,-3.85,stop,2
9.07,1665290.921719697,25,3,3,3,0,-316.0,8.37,-3.73,-0.05,-0.08,0.12,0.6,-1.875,-1.25,543.9375,0.8316650390625,0.07183837890625,-0.14495849609375,0.0201,-18.6875,39.375,-19.4375,8.46,-3.86,stop,2
9.08,1665290.944698416,25,3,3,3,0,-314.0,8.33,-3.77,-0.02,-0.12,0.09,0.64,-2.3125,-0.625,543.625,0.831787109375,0.07177734375,-0.14520263671875,0.0201,-18.6875,39.375,-19.4375,8.45,-3.86,stop,2
9.09,1665290.944698416,25,3,3,3,0,-316.0,8.33,-3.8,-0.05,-0.11,0.06,0.71,-2.4375,0.0,543.3125,0.83197021484375,0.07159423828125,-0.14544677734375,0.0201,-18.6875,39.375,-19.4375,8.45,-3.87,stop,2
9.1,1665290.959394827,25,3,3,3,0,-321.0,8.32,-3.79,-0.09,-0.12,0.08,0.76,-3.1875,0.625,543.0,0.8321533203125,0.07135009765625,-0.14569091796875,0.0201,-18.6875,39.375,-19.4375,8.45,-3.87,stop,2
9.11,1665290.959394827,25,3,3,3,0,-322.0,8.33,-3.81,-0.1,-0.11,0.06,0.78,-3.8125,1.0625,542.6875,0.83233642578125,0.071044921875,-0.14593505859375,0.0208,-18.6875,40.0625,-19.5,8.44,-3.87,stop,2
9.12,1665290.989772228,25,3,3,3,0,-324.0,8.34,-3.81,-0.11,-0.1,0.06,0.8,-4.25,1.75,542.375,0.83251953125,0.0706787109375,-0.146240234375,0.0208,-18.6875,40.0625,-19.5,8.44,-3.88,stop,2
9.13,1665290.989772228,25,3,3,3,0,-331.0,8.41,-3.84,-0.18,-0.02,0.04,0.82,-4.6875,2.375,542.0625,0.83270263671875,0.07025146484375,-0.14654541015625,0.0208,-18.6875,40.0625,-19.5,8.44,-3.88,stop,2
9.14,1665291.004273042,25,3,3,3,0,-339.0,8.39,-3.81,-0.27,-0.04,0.07,0.84,-4.8125,2.875,541.75,0.8328857421875,0.06976318359375,-0.1468505859375,0.0208,-18.6875,40.0625,-19.5,8.44,-3.89,stop,2
9.15,1665291.004273042,25,3,3,3,0,-341.0,8.45,-3.82,-0.29,0.01,0.07,0.89,-4.5625,3.4375,541.4375,0.83306884765625,0.06927490234375,-0.14715576171875,0.0208,-18.6875,40.0625,-19.5,8.43,-3.89,stop,2
9.16,1665291.019902721,25,3,3,3,0,-346.0,8.44,-3.78,-0.33,0.01,0.12,0.94,-4.5,3.5,541.0625,0.833251953125,0.06884765625,-0.1474609375,0.0201,-18.375,40.0625,-19.5,8.43,-3.9,stop,2
9.17,1665291.019902721,25,3,3,3,0,-347.0,8.44,-3.73,-0.34,0.01,0.17,0.91,-4.3125,3.75,540.75,0.83343505859375,0.068359375,-0.1478271484375,0.0201,-18.375,40.0625,-19.5,8.43,-3.9,stop,2
9.18,1665291.050819591,25,3,3,3,0,-349.0,8.46,-3.76,-0.36,0.03,0.14,0.75,-5.0625,3.875,540.5625,0.83355712890625,0.06787109375,-0.148193359375,0.0201,-18.375,40.0625,-19.5,8.43,-3.91,stop,2
9.19,1665291.050819591,25,3,3,3,0,-349.0,8.46,-3.75,-0.37,0.03,0.15,0.56,-4.9375,3.8125,540.375,0.83355712890625,0.06744384765625,-0.14862060546875,0.0201,-18.375,40.0625,-19.5,8.43,-3.91,stop,2
9.2,1665291.067842378,25,3,3,3,0,-348.0,8.42,-3.77,-0.35,0.0,0.13,0.35,-5.1875,3.6875,540.375,0.83355712890625,0.0670166015625,-0.1490478515625,0.0201,-18.375,40.0625,-19.5,8.43,-3.9,stop,2
9.21,1665291.067842378,25,3,3,3,0,-354.0,8.47,-3.73,-0.41,0.04,0.17,0.17,-4.3125,3.625,540.4375,0.83349609375,0.066650390625,-0.1494140625,0.019,-19.0,39.375,-19.5625,8.43,-3.9,stop,2
9.22,1665291.078868419,25,3,3,3,0,-355.0,8.43,-3.71,-0.42,0.0,0.18,0.06,-4.1875,3.5625,540.5625,0.8333740234375,0.06634521484375,-0.1497802734375,0.019,-19.0,39.375,-19.5625,8.43,-3.9,stop,2
9.23,1665291.078868419,25,3,3,3,0,-356.0,8.41,-3.72,-0.42,-0.01,0.17,0.0,-3.75,3.5625,540.6875,0.833251953125,0.0660400390625,-0.150146484375,0.019,-19.0,39.375,-19.5625,8.43,-3.89,stop,2
9.24,1665291.10972401,25,3,3,3,0,-355.0,8.36,-3.68,-0.41,-0.06,0.2,-0.12,-3.375,3.4375,540.875,0.83306884765625,0.0657958984375,-0.1505126953125,0.019,-19.0,39.375,-19.625,8.43,-3.89,stop,2
9.25,1665291.10972401,25,3,3,3,0,-351.0,8.37,-3.68,-0.37,-0.06,0.19,-0.29,-3.5625,3.0625,541.125,0.8328857421875,0.06561279296875,-0.15087890625,0.019,-19.0,39.375,-19.625,8.43,-3.88,stop,2
9.26,1665291.124185233,25,3,3,3,0,-349.0,8.36,-3.7,-0.35,-0.07,0.17,-0.42,-3.8125,2.875,541.4375,0.8326416015625,0.06536865234375,-0.1512451171875,0.0201,-18.375,39.375,-19.625,8.44,-3.87,stop,2
9.27,1665291.124185233,25,3,3,3,0,-348.0,8.36,-3.7,-0.32,-0.08,0.16,-0.45,-3.5625,2.5625,541.75,0.8323974609375,0.065185546875,-0.151611328125,0.0201,-18.375,39.375,-19.6875,8.44,-3.86,stop,2
9.28,1665291.139998831,25,3,3,3,0,-345.0,8.36,-3.73,-0.3,-0.07,0.12,-0.47,-3.3125,2.3125,542.0625,0.8321533203125,0.06500244140625,-0.15191650390625,0.0201,-18.375,39.375,-19.6875,8.44,-3.85,stop,2
9.29,1665291.139998831,25,3,3,3,0,-345.0,8.37,-3.7,-0.29,-0.07,0.14,-0.47,-2.9375,2.125,542.3125,0.83197021484375,0.0648193359375,-0.15216064453125,0.0201,-18.375,39.375,-19.6875,8.44,-3.85,stop,2
9.3,1665291.170269095,25,3,3,3,0,-344.0,8.4,-3.72,-0.28,-0.04,0.12,-0.49,-2.5625,1.75,542.625,0.83172607421875,0.06475830078125,-0.15240478515625,0.0201,-18.375,39.375,-19.6875,8.45,-3.84,stop,2
9.31,1665291.170269095,25,3,3,3,0,-343.0,8.41,-3.69,-0.27,-0.03,0.13,-0.49,-2.25,1.6875,542.9375,0.83154296875,0.06463623046875,-0.15264892578125,0.0205,-19.375,38.875,-19.75,8.45,-3.83,stop,2
9.32,1665291.183904186,25,3,3,3,0,-342.0,8.44,-3.7,-0.26,0.0,0.12,-0.53,-1.8125,1.1875,543.25,0.831298828125,0.0645751953125,-0.15283203125,0.0205,-19.375,38.875,-19.75,8.45,-3.82,stop,2
9.33,1665291.183904186,25,3,3,3,0,-343.0,8.47,-3.69,-0.27,0.01,0.12,-0.54,-1.3125,0.8125,543.5625,0.8310546875,0.0645751953125,-0.1529541015625,0.0205,-19.375,38.875,-19.75,8.45,-3.82,stop,2
9.34,1665291.199657808,25,3,3,3,0,-347.0,8.48,-3.68,-0.3,0.02,0.12,-0.5,-1.0625,0.625,543.8125,0.83087158203125,0.0645751953125,-0.15313720703125,0.0205,-19.375,38.875,-19.75,8.46,-3.81,stop,2
9.35,1665291.199657808,25,3,3,3,0,-348.0,8.48,-3.68,-0.3,0.02,0.12,-0.49,-0.25,0.0625,544.0625,0.8306884765625,0.064697265625,-0.15325927734375,0.0205,-19.375,38.875,-19.8125,8.46,-3.8,stop,2
9.36,1665291.229169079,25,3,3,3,0,-349.0,8.46,-3.64,-0.32,0.0,0.15,-0.49,0.125,-0.125,544.375,0.8304443359375,0.0648193359375,-0.15338134765625,0.0212,-19.375,39.0,-19.8125,8.46,-3.8,stop,2
9.37,1665291.229169079,25,3,3,3,0,-349.0,8.47,-3.65,-0.31,0.01,0.13,-0.53,0.25,-0.4375,544.625,0.83026123046875,0.06494140625,-0.153564453125,0.0212,-19.375,39.0,-19.8125,8.46,-3.79,stop,2
9.38,1665291.243877412,25,3,3,3,0,-349.0,8.5,-3.66,-0.31,0.03,0.12,-0.57,0.625,-0.625,544.9375,0.83001708984375,0.065185546875,-0.15362548828125,0.0212,-19.375,39.0,-19.875,8.46,-3.78,stop,2
9.39,1665291.243877412,25,3,3,3,0,-348.0,8.53,-3.67,-0.29,0.06,0.1,-0.6,1.125,-1.0,545.25,0.829833984375,0.0654296875,-0.15374755859375,0.0212,-19.375,39.0,-19.875,8.46,-3.78,stop,2
9.4,1665291.259959281,25,3,3,3,0,-347.0,8.59,-3.68,-0.28,0.12,0.09,-0.61,1.25,-0.9375,545.5625,0.82958984375,0.065673828125,-0.15380859375,0.0212,-19.375,39.0,-19.875,8.47,-3.77,stop,2
9.41,1665291.259959281,25,3,3,3,0,-344.0,8.6,-3.66,-0.25,0.13,0.1,-0.58,1.75,-1.25,545.8125,0.82940673828125,0.06597900390625,-0.15380859375,0.0197,-19.0,40.0625,-19.9375,8.47,-3.77,stop,2
9.42,1665291.291072114,25,3,3,3,0,-342.0,8.57,-3.64,-0.23,0.1,0.11,-0.55,2.125,-1.3125,546.0625,0.82916259765625,0.0662841796875,-0.15380859375,0.0197,-19.0,40.0625,-19.9375,8.47,-3.76,stop,2
9.43,1665291.291072114,25,3,3,3,0,-337.0,8.54,-3.63,-0.18,0.06,0.12,-0.57,2.375,-1.1875,546.375,0.8289794921875,0.06658935546875,-0.15374755859375,0.0197,-19.0,40.0625,-19.9375,8.47,-3.75,stop,2
9.44,1665291.304476696,25,3,3,3,0,-340.0,8.52,-3.64,-0.2,0.04,0.11,-0.6,2.5,-1.125,546.625,0.82879638671875,0.06683349609375,-0.1536865234375,0.0197,-19.0,40.0625,-19.9375,8.47,-3.75,stop,2
9.45,1665291.304476696,25,3,3,3,0,-341.0,8.52,-3.63,-0.21,0.04,0.11,-0.67,2.375,-1.25,546.9375,0.82861328125,0.067138671875,-0.15362548828125,0.0197,-19.0,40.0625,-20.0,8.47,-3.74,stop,2
9.46,1665291.319634289,25,3,3,3,0,-340.0,8.54,-3.64,-0.2,0.05,0.09,-0.64,2.1875,-1.25,547.25,0.828369140625,0.06744384765625,-0.153564453125,0.0205,-19.0,40.5,-20.0,8.48,-3.74,stop,2
9.47,1665291.319634289,25,3,3,3,0,-339.0,8.51,-3.6,-0.19,0.03,0.13,-0.57,2.1875,-1.4375,547.5625,0.82818603515625,0.0677490234375,-0.153564453125,0.0205,-19.0,40.5,-20.0,8.48,-3.73,stop,2
9.48,1665291.350236868,25,3,3,3,0,-337.0,8.5,-3.58,-0.16,0.02,0.14,-0.54,2.3125,-1.625,547.8125,0.8280029296875,0.06805419921875,-0.15350341796875,0.0205,-19.0,40.5,-20.0,8.48,-3.73,stop,2
9.49,1665291.350236868,25,3,3,3,0,-333.0,8.52,-3.55,-0.12,0.04,0.17,-0.53,2.125,-1.6875,548.0625,0.82781982421875,0.068359375,-0.15350341796875,0.0205,-19.0,40.5,-20.0,8.48,-3.72,stop,2
9.5,1665291.367566418,25,3,3,3,0,-330.0,8.53,-3.5,-0.09,0.04,0.21,-0.6,2.5625,-1.875,548.3125,0.82763671875,0.06866455078125,-0.1534423828125,0.0205,-19.0,40.5,-20.0625,8.48,-3.72,stop,2
9.51,1665291.367566418,25,3,3,3,0,-334.0,8.54,-3.43,-0.13,0.05,0.28,-0.64,2.9375,-1.625,548.6875,0.827392578125,0.06903076171875,-0.1533203125,0.0197,-18.6875,39.0,-20.0625,8.48,-3.71,stop,2
9.52,1665291.379557751,25,3,3,3,0,-335.0,8.5,-3.45,-0.14,0.01,0.24,-0.67,2.625,-1.3125,549.0625,0.82720947265625,0.0693359375,-0.15325927734375,0.0197,-18.6875,39.0,-20.0625,8.49,-3.7,stop,2
9.53,1665291.379557751,25,3,3,3,0,-338.0,8.46,-3.5,-0.16,-0.02,0.19,-0.66,2.0,-0.875,549.375,0.82696533203125,0.069580078125,-0.1531982421875,0.0197,-18.6875,39.0,-20.0625,8.49,-3.7,stop,2
9.54,1665291.409870169,25,3,3,3,0,-339.0,8.5,-3.55,-0.17,0.01,0.13,-0.64,0.5625,-0.625,549.75,0.82672119140625,0.06976318359375,-0.15325927734375,0.0197,-18.6875,39.0,-20.0625,8.49,-3.69,stop,2
9.55,1665291.409870169,25,3,3,3,0,-339.0,8.58,-3.54,-0.17,0.09,0.13,-0.61,0.0,-0.625,550.0625,0.82647705078125,0.06988525390625,-0.1533203125,0.0197,-18.6875,39.0,-20.125,8.49,-3.68,stop,2
9.56,1665291.425207734,25,3,3,3,0,-337.0,8.59,-3.53,-0.14,0.09,0.14,-0.47,0.0,-0.75,550.3125,0.8262939453125,0.07000732421875,-0.1534423828125,0.0201,-19.375,39.0,-20.125,8.49,-3.68,stop,2
9.57,1665291.425207734,25,3,3,3,0,-335.0,8.63,-3.5,-0.12,0.13,0.17,-0.31,0.1875,-1.0625,550.5,0.82611083984375,0.07012939453125,-0.15350341796875,0.0201,-19.375,39.0,-20.125,8.49,-3.67,stop,2
9.58,1665291.438937308,25,3,3,3,0,-337.0,8.59,-3.47,-0.14,0.09,0.19,-0.24,0.5,-1.0,550.6875,0.82598876953125,0.07025146484375,-0.15362548828125,0.0201,-19.375,39.0,-20.125,8.5,-3.67,stop,2
9.59,1665291.438937308,25,3,3,3,0,-344.0,8.6,-3.47,-0.2,0.1,0.19,-0.28,0.5625,-1.0,550.875,0.82586669921875,0.0704345703125,-0.1536865234375,0.0201,-19.375,39.0,-20.1875,8.5,-3.66,stop,2
9.6,1665291.472466727,25,3,3,3,0,-347.0,8.63,-3.5,-0.23,0.12,0.16,-0.31,0.3125,-0.9375,551.0625,0.82568359375,0.070556640625,-0.15380859375,0.0201,-19.375,39.0,-20.1875,8.5,-3.66,stop,2
9.61,1665291.472466727,25,3,3,3,0,-352.0,8.65,-3.56,-0.28,0.15,0.08,-0.28,0.0625,-0.875,551.25,0.8255615234375,0.0706787109375,-0.1539306640625,0.0205,-19.0,40.875,-20.1875,8.5,-3.65,stop,2
9.62,1665291.485638846,25,3,3,3,0,-353.0,8.68,-3.61,-0.29,0.18,0.03,-0.17,0.0,-0.9375,551.375,0.825439453125,0.07080078125,-0.15411376953125,0.0205,-19.0,40.875,-20.25,8.5,-3.65,stop,2
9.63,1665291.485638846,25,3,3,3,0,-351.0,8.64,-3.59,-0.27,0.14,0.05,-0.02,0.4375,-1.0,551.375,0.82537841796875,0.0709228515625,-0.15423583984375,0.0205,-19.0,40.875,-20.25,8.5,-3.65,stop,2
9.64,1665291.499001517,25,3,3,3,0,-347.0,8.62,-3.57,-0.22,0.12,0.07,0.05,0.375,-1.25,551.375,0.8253173828125,0.07110595703125,-0.15435791015625,0.0205,-19.0,40.875,-20.25,8.5,-3.65,stop,2
9.65,1665291.499001517,25,3,3,3,0,-343.0,8.55,-3.53,-0.18,0.05,0.11,0.1,0.375,-1.375,551.375,0.8253173828125,0.07122802734375,-0.15447998046875,0.0205,-19.0,40.875,-20.3125,8.49,-3.65,stop,2
9.66,1665291.529610078,25,3,3,3,0,-340.0,8.52,-3.45,-0.14,0.02,0.19,0.09,0.5,-1.4375,551.375,0.82525634765625,0.07135009765625,-0.1546630859375,0.0197,-18.0,40.875,-20.3125,8.49,-3.65,stop,2
9.67,1665291.529610078,25,3,3,3,0,-337.0,8.49,-3.42,-0.11,0.0,0.22,0.04,0.3125,-1.25,551.375,0.8251953125,0.07147216796875,-0.15478515625,0.0197,-18.0,40.875,-20.375,8.49,-3.64,stop,2
9.68,1665291.54544272,25,3,3,3,0,-336.0,8.48,-3.45,-0.1,-0.01,0.19,0.0,0.375,-1.125,551.4375,0.82513427734375,0.07159423828125,-0.1549072265625,0.0197,-18.0,40.875,-20.375,8.49,-3.64,stop,2
9.69,1665291.54544272,25,3,3,3,0,-340.0,8.47,-3.45,-0.13,-0.02,0.19,0.0,0.0,-1.0,551.5,0.8250732421875,0.07171630859375,-0.155029296875,0.0197,-18.0,40.875,-20.375,8.49,-3.64,stop,2
9.7,1665291.560676891,25,3,3,3,0,-341.0,8.49,-3.54,-0.14,0.0,0.1,0.0,-0.125,-1.0625,551.5,0.8250732421875,0.07177734375,-0.1551513671875,0.0197,-18.0,40.875,-20.375,8.49,-3.64,stop,2
9.71,1665291.560676891,25,3,3,3,0,-341.0,8.51,-3.56,-0.14,0.01,0.08,0.05,-0.3125,-0.9375,551.5,0.82501220703125,0.0718994140625,-0.15521240234375,0.0205,-18.6875,40.5,-20.4375,8.49,-3.64,stop,2
9.72,1665291.605314343,25,3,3,3,0,-345.0,8.55,-3.57,-0.17,0.06,0.07,0.19,-0.25,-0.875,551.4375,0.82501220703125,0.07196044921875,-0.15533447265625,0.0205,-18.6875,40.5,-20.4375,8.49,-3.64,stop,2
9.73,1665291.605314343,25,3,3,3,0,-345.0,8.56,-3.57,-0.17,0.07,0.06,0.27,-0.1875,-0.8125,551.3125,0.8250732421875,0.072021484375,-0.15545654296875,0.0205,-18.6875,40.5,-20.4375,8.49,-3.64,stop,2
9.74,1665291.613331717,25,3,3,3,0,-342.0,8.56,-3.55,-0.14,0.07,0.09,0.34,-0.375,-0.6875,551.1875,0.82513427734375,0.07208251953125,-0.155517578125,0.0205,-18.6875,40.5,-20.4375,8.49,-3.64,stop,2
9.75,1665291.613331717,25,3,3,3,0,-345.0,8.56,-3.52,-0.17,0.07,0.12,0.35,-0.4375,-0.5,551.0625,0.8251953125,0.07208251953125,-0.15557861328125,0.0205,-18.6875,40.5,-20.4375,8.49,-3.65,stop,2
9.76,1665291.620428519,25,3,3,3,0,-344.0,8.59,-3.49,-0.16,0.1,0.16,0.31,-0.625,-0.3125,550.9375,0.82525634765625,0.072021484375,-0.15570068359375,0.0208,-18.6875,40.875,-20.5,8.48,-3.65,stop,2
9.77,1665291.620428519,25,3,3,3,0,-342.0,8.55,-3.51,-0.14,0.07,0.13,0.26,-0.375,-0.25,550.875,0.8253173828125,0.072021484375,-0.15576171875,0.0208,-18.6875,40.875,-20.5,8.48,-3.65,stop,2
9.78,1665291.649896821,25,3,3,3,0,-343.0,8.56,-3.52,-0.15,0.08,0.12,0.2,-0.125,-0.125,550.875,0.8253173828125,0.07208251953125,-0.1558837890625,0.0208,-18.6875,40.875,-20.5,8.48,-3.65,stop,2
9.79,1665291.649896821,25,3,3,3,0,-342.0,8.56,-3.53,-0.13,0.07,0.12,0.16,-0.25,-0.1875,550.8125,0.8253173828125,0.07208251953125,-0.15594482421875,0.0208,-18.6875,40.875,-20.5,8.48,-3.65,stop,2
9.8,1665291.665197359,25,3,3,3,0,-347.0,8.57,-3.55,-0.18,0.09,0.09,0.14,-0.125,-0.0625,550.8125,0.8253173828125,0.07208251953125,-0.156005859375,0.0208,-18.6875,40.875,-20.5,8.48,-3.65,stop,2
9.81,1665291.665197359,25,3,3,3,0,-343.0,8.55,-3.62,-0.15,0.06,0.03,0.2,-0.1875,-0.125,550.6875,0.82537841796875,0.07208251953125,-0.156005859375,0.0201,-19.0,39.375,-20.5,8.48,-3.65,stop,2
9.82,1665291.68201051,25,3,3,3,0,-341.0,8.52,-3.63,-0.12,0.04,0.02,0.27,-0.25,-0.375,550.625,0.825439453125,0.07208251953125,-0.15606689453125,0.0201,-19.0,39.375,-20.5,8.48,-3.65,stop,2
9.83,1665291.68201051,25,3,3,3,0,-337.0,8.48,-3.6,-0.08,0.0,0.05,0.28,-0.1875,-0.4375,550.5,0.82550048828125,0.07208251953125,-0.1561279296875,0.0201,-19.0,39.375,-20.5,8.48,-3.66,stop,2
9.84,1665291.710109224,25,3,3,3,0,-337.0,8.51,-3.58,-0.08,0.03,0.08,0.33,-0.1875,-0.5,550.375,0.8255615234375,0.07208251953125,-0.15618896484375,0.0201,-19.0,39.375,-20.5,8.48,-3.66,stop,2
9.85,1665291.710109224,25,3,3,3,0,-337.0,8.53,-3.46,-0.08,0.05,0.19,0.35,0.5,-0.375,550.25,0.82562255859375,0.072021484375,-0.15618896484375,0.0201,-19.0,39.375,-20.5,8.48,-3.66,stop,2
9.86,1665291.724096203,25,3,3,3,0,-337.0,8.52,-3.41,-0.09,0.04,0.25,0.31,0.6875,-0.125,550.125,0.82568359375,0.07208251953125,-0.15618896484375,0.0205,-19.375,40.0625,-20.5,8.47,-3.66,stop,2
9.87,1665291.724096203,25,3,3,3,0,-339.0,8.5,-3.46,-0.1,0.02,0.19,0.15,0.1875,-0.0625,550.125,0.82568359375,0.07208251953125,-0.15625,0.0205,-19.375,40.0625,-20.5625,8.47,-3.66,stop,2
9.88,1665291.754955008,25,3,3,3,0,-339.0,8.5,-3.54,-0.1,0.02,0.12,0.02,-0.375,0.0,550.1875,0.82562255859375,0.07208251953125,-0.15631103515625,0.0205,-19.375,40.0625,-20.5625,8.47,-3.66,stop,2
9.89,1665291.754955008,25,3,3,3,0,-344.0,8.49,-3.69,-0.15,0.01,-0.03,-0.01,-0.625,0.0625,550.1875,0.82562255859375,0.07208251953125,-0.1563720703125,0.0205,-19.375,40.0625,-20.5625,8.47,-3.66,stop,2
9.9,1665291.769738903,25,3,3,3,0,-344.0,8.51,-3.73,-0.15,0.03,-0.06,0.03,-1.0,0.4375,550.1875,0.82562255859375,0.072021484375,-0.156494140625,0.0205,-19.375,40.0625,-20.5625,8.47,-3.66,stop,2
9.91,1665291.769738903,25,3,3,3,0,-338.0,8.52,-3.76,-0.09,0.04,-0.09,0.16,-1.1875,0.3125,550.125,0.82562255859375,0.07196044921875,-0.1566162109375,0.0201,-18.375,39.375,-20.5625,8.47,-3.66,stop,2
9.92,1665291.784275443,25,3,3,3,0,-338.0,8.55,-3.66,-0.09,0.07,0.0,0.26,-0.4375,0.5,550.0,0.82568359375,0.07196044921875,-0.1566162109375,0.0201,-18.375,39.375,-20.5625,8.47,-3.66,stop,2
9.93,1665291.784275443,25,3,3,3,0,-339.0,8.54,-3.64,-0.1,0.06,0.02,0.28,-0.0625,0.8125,549.875,0.8258056640625,0.0718994140625,-0.1566162109375,0.0201,-18.375,39.375,-20.5625,8.47,-3.66,stop,2
9.94,1665291.799688081,25,3,3,3,0,-339.0,8.6,-3.65,-0.1,0.13,0.01,0.23,-0.375,1.0,549.8125,0.82586669921875,0.07177734375,-0.1566162109375,0.0201,-18.375,39.375,-20.5625,8.47,-3.67,stop,2
9.95,1665291.799688081,25,3,3,3,0,-341.0,8.58,-3.67,-0.12,0.11,0.0,0.2,-0.8125,1.0,549.75,0.82586669921875,0.0716552734375,-0.1566162109375,0.0201,-18.375,39.375,-20.5625,8.47,-3.67,stop,2
9.96,1665291.829720023,25,3,3,3,0,-344.0,8.56,-3.7,-0.15,0.08,-0.02,0.22,-0.6875,1.0625,549.6875,0.825927734375,0.071533203125,-0.15667724609375,0.0197,-18.6875,40.5,-20.5625,8.47,-3.67,stop,2
9.97,1665291.829720023,25,3,3,3,0,-346.0,8.51,-3.67,-0.17,0.03,0.0,0.3,-0.1875,1.0,549.5625,0.8260498046875,0.07147216796875,-0.15667724609375,0.0197,-18.6875,40.5,-20.5625,8.47,-3.67,stop,2
9.98,1665291.844172782,25,3,3,3,0,-344.0,8.48,-3.64,-0.15,0.0,0.02,0.34,0.4375,0.75,549.4375,0.82611083984375,0.0714111328125,-0.15667724609375,0.0197,-18.6875,40.5,-20.5,8.47,-3.67,stop,2
9.99,1665291.844172782,25,3,3,3,0,-343.0,8.45,-3.61,-0.14,-0.01,0.07,0.28,0.8125,0.5625,549.3125,0.82623291015625,0.0714111328125,-0.1566162109375,0.0197,-18.6875,40.5,-20.5,8.47,-3.68,stop,2
10.0,1665291.859637381,25,3,3,3,0,-342.0,8.45,-3.53,-0.13,-0.01,0.14,0.19,1.25,0.5625,549.1875,0.8262939453125,0.0714111328125,-0.15655517578125,0.0197,-18.6875,40.5,-20.5,8.47,-3.68,stop,2
10.01,1665291.859637381,25,3,3,3,0,-340.0,8.47,-3.54,-0.12,0.0,0.13,0.1,1.3125,0.5625,549.1875,0.8262939453125,0.07147216796875,-0.156494140625,0.0194,-18.6875,40.5,-20.5,8.47,-3.68,stop,2
10.02,1665291.890916638,25,3,3,3,0,-338.0,8.46,-3.6,-0.09,0.0,0.08,0.04,1.25,0.5625,549.1875,0.8262939453125,0.07147216796875,-0.1563720703125,0.0194,-18.6875,40.5,-20.5,8.47,-3.68,stop,2
10.03,1665291.890916638,25,3,3,3,0,-336.0,8.43,-3.6,-0.07,-0.03,0.08,0.03,1.5,0.5625,549.25,0.8262939453125,0.071533203125,-0.15631103515625,0.0194,-18.6875,40.5,-20.5,8.47,-3.68,stop,2
10.04,1665291.904468192,25,3,3,3,0,-335.0,8.44,-3.62,-0.06,-0.02,0.06,0.03,1.75,0.375,549.25,0.8262939453125,0.0716552734375,-0.15618896484375,0.0194,-18.6875,40.5,-20.5,8.47,-3.68,stop,2
10.05,1665291.904468192,25,3,3,3,0,-333.0,8.45,-3.61,-0.05,-0.01,0.07,0.03,1.625,0.4375,549.25,0.8262939453125,0.07171630859375,-0.15606689453125,0.0194,-18.6875,40.5,-20.5,8.47,-3.68,stop,2
10.06,1665291.920157442,25,3,3,3,0,-333.0,8.46,-3.6,-0.04,0.0,0.08,0.0,1.375,0.375,549.25,0.82635498046875,0.07177734375,-0.156005859375,0.0201,-18.6875,40.5,-20.5,8.47,-3.68,stop,2
10.07,1665291.920157442,25,3,3,3,0,-330.0,8.44,-3.59,-0.01,-0.02,0.09,-0.02,1.125,0.25,549.25,0.82635498046875,0.07183837890625,-0.15594482421875,0.0201,-18.6875,40.5,-20.5,8.47,-3.68,stop,2
10.08,1665291.950184053,25,3,3,3,0,-327.0,8.5,-3.59,0.0,0.02,0.09,-0.07,0.75,0.25,549.25,0.82635498046875,0.0718994140625,-0.1558837890625,0.0201,-18.6875,40.5,-20.5,8.47,-3.68,stop,2
10.09,1665291.950184053,25,3,3,3,0,-326.0,8.53,-3.61,0.01,0.05,0.07,-0.07,1.0,0.0,549.25,0.82635498046875,0.07196044921875,-0.15582275390625,0.0201,-18.6875,40.5,-20.5,8.47,-3.68,stop,2
10.1,1665291.96505531,25,3,3,3,0,-322.0,8.57,-3.58,0.05,0.1,0.1,-0.1,1.6875,-0.0625,549.3125,0.8262939453125,0.072021484375,-0.15570068359375,0.0201,-18.6875,40.5,-20.5,8.47,-3.68,stop,2
10.11,1665291.96505531,25,3,3,3,0,-331.0,8.5,-3.54,-0.03,0.03,0.13,-0.1,2.375,0.0,549.375,0.8262939453125,0.0721435546875,-0.155517578125,0.0197,-18.6875,39.6875,-20.5,8.47,-3.68,stop,2
10.12,1665291.978993135,25,3,3,3,0,-330.0,8.46,-3.58,-0.02,0.0,0.09,-0.13,1.6875,0.1875,549.4375,0.8262939453125,0.072265625,-0.15545654296875,0.0197,-18.6875,39.6875,-20.4375,8.47,-3.68,stop,2
10.13,1665291.978993135,25,3,3,3,0,-336.0,8.46,-3.62,-0.08,0.0,0.06,-0.16,1.0,0.25,549.5,0.82623291015625,0.07232666015625,-0.15533447265625,0.0197,-18.6875,39.6875,-20.4375,8.47,-3.68,stop,2
10.14,1665292.0098873,25,3,3,3,0,-337.0,8.47,-3.65,-0.09,0.0,0.02,-0.17,-0.3125,0.3125,549.625,0.826171875,0.07232666015625,-0.1553955078125,0.0197,-18.6875,39.6875,-20.4375,8.47,-3.68,stop,2
10.15,1665292.0098873,25,3,3,3,0,-337.0,8.48,-3.68,-0.09,0.0,0.0,-0.12,-0.9375,0.125,549.6875,0.82611083984375,0.07232666015625,-0.15545654296875,0.0197,-18.6875,39.6875,-20.5,8.47,-3.68,stop,2
10.16,1665292.024000174,25,3,3,3,0,-335.0,8.49,-3.66,-0.06,0.01,0.01,-0.05,-1.0625,-0.125,549.6875,0.82611083984375,0.072265625,-0.155517578125,0.0205,-18.375,41.25,-20.5,8.47,-3.68,stop,2
10.17,1665292.024000174,25,3,3,3,0,-332.0,8.48,-3.6,-0.04,0.0,0.07,0.01,-0.75,-0.25,549.6875,0.8260498046875,0.072265625,-0.1556396484375,0.0205,-18.375,41.25,-20.5,8.47,-3.67,stop,2
10.18,1665292.038753877,25,3,3,3,0,-333.0,8.45,-3.59,-0.04,-0.02,0.08,0.02,0.0,-0.4375,549.6875,0.8260498046875,0.072265625,-0.1556396484375,0.0205,-18.375,41.25,-20.5,8.47,-3.67,stop,2
10.19,1665292.038753877,25,3,3,3,0,-337.0,8.45,-3.59,-0.08,-0.02,0.08,-0.08,-0.25,-0.1875,549.75,0.8260498046875,0.072265625,-0.1556396484375,0.0205,-18.375,41.25,-20.5,8.47,-3.67,stop,2
10.2,1665292.086747652,25,3,3,3,0,-342.0,8.47,-3.67,-0.14,0.0,0.0,-0.23,-0.75,0.3125,549.8125,0.82598876953125,0.072265625,-0.15570068359375,0.0205,-18.375,41.25,-20.5,8.47,-3.67,stop,2
10.21,1665292.086747652,25,3,3,3,0,-346.0,8.49,-3.78,-0.17,0.01,-0.11,-0.31,-1.375,0.1875,550.0,0.82586669921875,0.07220458984375,-0.15582275390625,0.0197,-19.0,40.0625,-20.5,8.47,-3.67,stop,2
10.22,1665292.100012382,25,3,3,3,0,-348.0,8.5,-3.84,-0.2,0.02,-0.17,-0.23,-1.5,0.3125,550.0625,0.82574462890625,0.07220458984375,-0.15594482421875,0.0197,-19.0,40.0625,-20.5,8.47,-3.66,stop,2
10.23,1665292.100012382,25,3,3,3,0,-347.0,8.51,-3.9,-0.18,0.03,-0.23,-0.05,-1.1875,0.125,550.0625,0.82574462890625,0.07220458984375,-0.15606689453125,0.0197,-19.0,40.0625,-20.5,8.47,-3.66,stop,2
10.24,1665292.105558036,25,3,3,3,0,-346.0,8.48,-3.83,-0.17,0.0,-0.16,0.08,-1.0,-0.1875,550.0,0.82574462890625,0.0721435546875,-0.15618896484375,0.0197,-19.0,40.0625,-20.5625,8.47,-3.66,stop,2
10.25,1665292.105558036,25,3,3,3,0,-344.0,8.46,-3.79,-0.15,-0.01,-0.12,0.16,-0.75,-0.5625,549.875,0.8258056640625,0.07220458984375,-0.1563720703125,0.0197,-19.0,40.0625,-20.5625,8.47,-3.67,stop,2
10.26,1665292.129271537,25,3,3,3,0,-342.0,8.51,-3.72,-0.12,0.03,-0.05,0.17,-0.4375,-0.5,549.8125,0.82586669921875,0.07220458984375,-0.1563720703125,0.0205,-19.0,41.25,-20.5625,8.47,-3.67,stop,2
10.27,1665292.129271537,25,3,3,3,0,-342.0,8.49,-3.72,-0.12,0.01,-0.05,0.1,-0.6875,-0.625,549.75,0.82586669921875,0.07220458984375,-0.156494140625,0.0205,-19.0,41.25,-20.5625,8.47,-3.67,stop,2
10.28,1665292.143407238,25,3,3,3,0,-343.0,8.48,-3.79,-0.13,0.0,-0.12,0.05,-1.25,-0.5625,549.6875,0.82586669921875,0.07220458984375,-0.1566162109375,0.0205,-19.0,41.25,-20.5625,8.47,-3.67,stop,2
10.29,1665292.143407238,25,3,3,3,0,-346.0,8.5,-3.89,-0.16,0.03,-0.22,0.02,-1.75,-0.5625,549.6875,0.82586669921875,0.07220458984375,-0.15679931640625,0.0205,-19.0,41.25,-20.625,8.47,-3.67,stop,2
10.3,1665292.159057303,25,3,3,3,0,-350.0,8.52,-4.05,-0.2,0.05,-0.38,0.06,-2.3125,-0.625,549.5625,0.82586669921875,0.07220458984375,-0.15704345703125,0.0205,-19.0,41.25,-20.625,8.47,-3.67,stop,2
10.31,1665292.159057303,25,3,3,3,0,-356.0,8.52,-4.14,-0.25,0.05,-0.46,0.19,-2.5,-0.625,549.5,0.82586669921875,0.0721435546875,-0.15728759765625,0.0205,-18.6875,40.875,-20.625,8.47,-3.67,stop,2
10.32,1665292.188707735,25,3,3,3,0,-355.0,8.48,-4.17,-0.24,0.01,-0.49,0.37,-2.1875,-0.5,549.375,0.82598876953125,0.07196044921875,-0.157470703125,0.0205,-18.6875,40.875,-20.625,8.46,-3.67,stop,2
10.33,1665292.188707735,25,3,3,3,0,-352.0,8.43,-4.15,-0.21,-0.02,-0.47,0.51,-1.625,-0.3125,549.125,0.82611083984375,0.0718994140625,-0.1575927734375,0.0205,-18.6875,40.875,-20.625,8.46,-3.67,stop,2
10.34,1665292.203782076,25,3,3,3,0,-354.0,8.38,-4.1,-0.23,-0.07,-0.42,0.67,-1.375,0.125,548.8125,0.8262939453125,0.07177734375,-0.15771484375,0.0205,-18.6875,40.875,-20.6875,8.46,-3.68,stop,2
10.35,1665292.203782076,25,3,3,3,0,-360.0,8.39,-4.09,-0.29,-0.06,-0.4,0.74,-0.875,0.75,548.5,0.82647705078125,0.07159423828125,-0.15777587890625,0.0205,-18.6875,40.875,-20.6875,8.46,-3.69,stop,2
10.36,1665292.220233858,25,3,3,3,0,-369.0,8.38,-4.08,-0.38,-0.07,-0.37,0.74,-0.375,1.5,547.875,0.82684326171875,0.07159423828125,-0.15789794921875,0.0201,-19.375,39.6875,-20.6875,8.45,-3.7,stop,2
10.37,1665292.220233858,25,3,3,3,0,-381.0,8.37,-4.08,-0.49,-0.07,-0.36,0.8,0.625,2.0,547.25,0.82720947265625,0.07159423828125,-0.15802001953125,0.0201,-19.375,39.6875,-20.6875,8.44,-3.71,stop,2
10.38,1665292.250377616,25,3,3,3,0,-402.0,8.27,-3.95,-0.71,-0.16,-0.23,0.92,2.125,2.5625,546.8125,0.82757568359375,0.07147216796875,-0.15777587890625,0.0201,-19.375,39.6875,-20.625,8.44,-3.72,stop,2
10.39,1665292.250377616,25,3,3,3,0,-414.0,8.19,-3.81,-0.83,-0.25,-0.08,0.99,4.0,2.625,546.375,0.82794189453125,0.07135009765625,-0.15740966796875,0.0201,-19.375,39.6875,-20.625,8.44,-3.73,stop,2
10.4,1665292.264678438,25,3,3,3,0,-428.0,8.06,-3.64,-0.99,-0.37,0.1,0.85,5.5,2.75,546.0,0.8282470703125,0.07135009765625,-0.15692138671875,0.0201,-19.375,39.6875,-20.5625,8.44,-3.74,stop,2
10.41,1665292.264678438,25,3,3,3,0,-429.0,7.84,-3.46,-1.01,-0.6,0.28,0.5,5.0,3.0,545.75,0.8284912109375,0.0712890625,-0.15643310546875,0.0205,-18.6875,40.5,-20.5,8.44,-3.75,stop,2
10.42,1665292.279145601,25,3,3,3,0,-426.0,7.73,-3.41,-0.98,-0.71,0.34,-0.08,3.75,3.375,545.75,0.82855224609375,0.07122802734375,-0.156005859375,0.0205,-18.6875,40.5,-20.5,8.44,-3.75,stop,2
10.43,1665292.279145601,25,3,3,3,0,-421.0,7.58,-3.38,-0.94,-0.86,0.37,-0.69,3.1875,3.75,546.125,0.82843017578125,0.0711669921875,-0.15557861328125,0.0205,-18.6875,40.5,-20.4375,8.44,-3.75,stop,2
10.44,1665292.310156384,25,3,3,3,0,-414.0,7.47,-3.34,-0.87,-0.97,0.39,-1.15,3.5625,4.125,546.6875,0.82818603515625,0.0711669921875,-0.15509033203125,0.0205,-18.6875,40.5,-20.375,8.45,-3.74,stop,2
10.45,1665292.310156384,25,3,3,3,0,-382.0,7.18,-3.13,-0.56,-1.27,0.6,-1.54,4.875,4.3125,547.4375,0.82781982421875,0.07122802734375,-0.15447998046875,0.0205,-18.6875,40.5,-20.3125,8.46,-3.73,stop,2
10.46,1665292.324238049,25,3,3,3,0,-382.0,7.18,-3.13,-0.56,-1.27,0.6,-1.54,4.875,4.3125,547.4375,0.82781982421875,0.07122802734375,-0.15447998046875,0.0205,-18.6875,40.5,-20.3125,8.46,-3.73,stop,2
10.47,1665292.324238049,25,3,3,3,0,-370.0,7.02,-2.98,-0.46,-1.44,0.73,-1.9,5.5,4.6875,548.3125,0.82733154296875,0.0712890625,-0.15380859375,0.0201,-18.6875,40.875,-20.25,8.47,-3.71,stop,2
10.48,1665292.339445772,25,3,3,3,0,-344.0,6.72,-2.83,-0.22,-1.77,0.84,-2.57,2.375,5.5625,550.6875,0.82611083984375,0.0712890625,-0.15264892578125,0.0201,-18.6875,40.875,-20.125,8.49,-3.67,stop,2
10.49,1665292.339445772,25,3,3,3,0,-334.0,6.44,-2.65,-0.12,-2.06,0.99,-2.9,-0.5625,5.625,552.0625,0.82525634765625,0.07110595703125,-0.15234375,0.0201,-18.6875,40.875,-20.0625,8.51,-3.65,stop,2
10.5,1665292.369794039,25,3,3,3,0,-323.0,6.17,-2.64,-0.01,-2.35,0.97,-3.13,-4.0,5.375,553.625,0.8243408203125,0.07080078125,-0.1522216796875,0.0201,-18.6875,40.875,-20.0625,8.52,-3.61,stop,2
10.51,1665292.369794039,25,3,3,3,0,-297.0,5.87,-2.7,0.23,-2.67,0.88,-3.16,-8.125,5.0625,555.1875,0.82330322265625,0.0703125,-0.1524658203125,0.0205,-18.375,40.0625,-20.0,8.54,-3.58,stop,2
10.52,1665292.385396252,25,3,3,3,0,-255.0,5.55,-2.79,0.65,-3.0,0.75,-3.08,-12.9375,4.875,556.75,0.822265625,0.069580078125,-0.153076171875,0.0205,-18.375,40.0625,-20.0625,8.55,-3.54,stop,2
10.53,1665292.385396252,25,3,3,3,0,-130.0,4.69,-2.94,1.9,-3.87,0.57,-2.94,-17.5625,6.0625,558.3125,0.8211669921875,0.068603515625,-0.1539306640625,0.0205,-18.375,40.0625,-20.0625,8.57,-3.51,stop,2
10.54,1665292.399606783,25,3,3,3,0,-41.0,4.24,-2.99,2.79,-4.33,0.47,-2.65,-20.5625,8.5,559.75,0.8201904296875,0.06719970703125,-0.1549072265625,0.0205,-18.375,40.0625,-20.0625,8.58,-3.47,stop,2
10.55,1665292.399606783,25,3,3,3,0,41.0,3.85,-3.0,3.62,-4.74,0.43,-2.25,-21.9375,12.1875,561.0625,0.81927490234375,0.06549072265625,-0.15582275390625,0.0205,-18.375,40.0625,-20.0,8.6,-3.44,stop,2
10.56,1665292.429464408,25,3,3,3,0,111.0,3.44,-2.85,4.31,-5.18,0.55,-2.04,-19.5625,16.0,562.375,0.8184814453125,0.0635986328125,-0.15643310546875,0.0201,-19.375,41.6875,-19.9375,8.62,-3.41,stop,2
10.57,1665292.429464408,25,3,3,3,0,184.0,2.94,-2.07,5.02,-5.69,1.3,-1.98,-13.6875,19.5625,563.625,0.81781005859375,0.06170654296875,-0.1563720703125,0.0201,-19.375,41.6875,-19.8125,8.63,-3.38,stop,2
10.58,1665292.444204561,25,3,3,3,0,172.0,3.06,-1.51,4.87,-5.59,1.84,-1.82,-6.0625,21.3125,564.75,0.8172607421875,0.06005859375,-0.15576171875,0.0201,-19.375,41.6875,-19.625,8.65,-3.36,stop,2
10.59,1665292.444204561,25,3,3,3,0,124.0,3.3,-0.9,4.35,-5.36,2.45,-1.2,1.0,21.1875,565.5625,0.81707763671875,0.0587158203125,-0.15460205078125,0.0201,-19.375,41.6875,-19.4375,8.67,-3.35,stop,2
10.6,1665292.460103975,25,3,3,3,0,-80.0,4.98,0.33,2.27,-3.69,3.7,0.26,9.0,18.5,565.6875,0.81732177734375,0.05780029296875,-0.153076171875,0.0201,-19.375,41.6875,-19.25,8.68,-3.36,stop,2
10.61,1665292.460103975,25,3,3,3,0,-181.0,5.9,0.72,1.23,-2.77,4.11,2.24,16.75,13.3125,564.75,0.81829833984375,0.0574951171875,-0.15130615234375,0.0205,-18.375,41.25,-19.0625,8.68,-3.39,stop,2
10.62,1665292.492730074,25,3,3,3,0,-283.0,7.13,0.68,0.19,-1.53,4.12,4.34,19.6875,6.9375,562.75,0.8199462890625,0.05755615234375,-0.14971923828125,0.0205,-18.375,41.25,-18.875,8.66,-3.44,stop,2
10.63,1665292.492730074,25,3,3,3,0,-409.0,8.86,0.29,-1.08,0.21,3.8,5.65,14.125,1.625,560.125,0.82177734375,0.05767822265625,-0.1488037109375,0.0205,-18.375,41.25,-18.8125,8.64,-3.5,stop,2
10.64,1665292.505501151,25,3,3,3,0,-642.0,13.12,-1.51,-3.41,4.49,2.03,4.97,-2.375,-0.1875,557.8125,0.8232421875,0.05712890625,-0.149169921875,0.0205,-18.375,41.25,-18.8125,8.62,-3.54,stop,2
10.65,1665292.505501151,25,3,3,3,0,-704.0,14.33,-3.56,-4.01,5.71,-0.01,1.81,-28.25,4.125,557.1875,0.82342529296875,0.05535888671875,-0.15106201171875,0.0205,-18.375,41.25,-18.9375,8.62,-3.55,stop,2
10.66,1665292.519431815,25,3,3,3,0,-731.0,11.96,-11.8,-4.24,3.31,-8.34,-4.26,-83.1875,12.5625,559.75,0.82110595703125,0.05084228515625,-0.15631103515625,0.0194,-19.0,41.25,-19.125,8.64,-3.46,stop,2
10.67,1665292.519431815,25,3,3,3,0,-673.0,13.95,-26.28,-3.63,5.26,-22.97,-8.48,-149.125,29.1875,564.625,0.81658935546875,0.0423583984375,-0.16534423828125,0.0194,-19.0,41.25,-19.375,8.69,-3.3,stop,2
10.68,1665292.550420788,25,3,3,3,0,-1015.0,33.88,-10.97,-7.08,25.15,-7.72,-4.98,-19.875,30.8125,567.4375,0.81494140625,0.0396728515625,-0.1651611328125,0.0194,-19.0,41.25,-19.1875,8.72,-3.24,stop,2
10.69,1665292.550420788,25,3,3,3,0,-655.0,30.29,-1.31,-3.5,21.6,2.03,7.43,61.625,-6.6875,563.6875,0.8179931640625,0.04248046875,-0.1612548828125,0.0194,-19.0,41.25,-19.0,8.69,-3.35,moving,2
10.7,1665292.564891247,25,3,3,3,0,-404.0,23.23,1.1,-0.99,14.59,4.61,12.6,61.625,-30.1875,557.25,0.822509765625,0.0465087890625,-0.1585693359375,0.0194,-19.0,41.25,-19.0625,8.63,-3.5,moving,2
10.71,1665292.564891247,25,3,3,3,0,-336.0,17.45,0.49,-0.28,8.86,4.08,7.72,35.9375,-30.4375,553.125,0.82513427734375,0.0496826171875,-0.15765380859375,0.0205,-19.375,40.875,-19.1875,8.58,-3.59,moving,2
10.72,1665292.579869844,25,3,3,3,0,-328.0,14.79,-8.74,-0.16,6.21,-5.16,-0.42,-25.125,-15.4375,553.25,0.82464599609375,0.0496826171875,-0.16015625,0.0205,-19.375,40.875,-19.4375,8.58,-3.57,moving,2
10.73,1665292.579869844,25,3,3,3,0,-328.0,14.79,-8.74,-0.16,6.21,-5.16,-0.42,-25.125,-15.4375,553.25,0.82464599609375,0.0496826171875,-0.16015625,0.0205,-19.375,40.875,-19.4375,8.58,-3.57,moving,2
10.73,1665292.594525321,25,3,3,3,0,-283.0,15.76,-10.51,0.32,7.14,-7.05,-9.21,-65.4375,-1.0,557.75,0.82098388671875,0.0474853515625,-0.1646728515625,0.0205,-19.375,40.875,-19.6875,8.61,-3.45,moving,2
10.74,1665292.594525321,25,3,3,3,0,-404.0,15.77,-7.94,-0.86,7.11,-4.59,-10.04,-32.5625,-1.9375,562.4375,0.8175048828125,0.04693603515625,-0.1668701171875,0.0205,-19.375,40.875,-19.875,8.65,-3.34,moving,2
10.75,1665292.624404105,25,3,3,3,0,-386.0,15.02,-5.34,-0.66,6.37,-2.02,-0.42,-19.25,-10.25,562.5625,0.8170166015625,0.04681396484375,-0.168701171875,0.0205,-19.375,40.875,-20.0,8.64,-3.32,moving,2
10.76,1665292.624404105,25,3,3,3,0,-350.0,14.05,-4.74,-0.26,5.42,-1.38,4.39,-18.0625,-15.5625,560.4375,0.8179931640625,0.046630859375,-0.17083740234375,0.019,-17.5625,39.6875,-20.25,8.62,-3.35,moving,2
10.77,1665292.639613008,25,3,3,3,0,-367.0,13.53,-4.42,-0.39,4.93,-1.04,2.84,-27.5,-13.5625,559.0,0.818359375,0.0460205078125,-0.17352294921875,0.019,-17.5625,39.6875,-20.4375,8.6,-3.37,moving,2
10.78,1665292.639613008,25,3,3,3,0,-399.0,13.51,-4.6,-0.67,4.91,-1.25,0.61,-36.4375,-10.8125,558.75,0.81793212890625,0.04498291015625,-0.1766357421875,0.019,-17.5625,39.6875,-20.6875,8.59,-3.35,moving,2
10.79,1665292.65413669,25,3,3,3,0,-486.0,12.29,-4.56,-1.51,3.7,-1.22,0.43,-33.375,-11.4375,558.5,0.8175048828125,0.044189453125,-0.1795654296875,0.019,-17.5625,39.6875,-20.9375,8.58,-3.34,moving,2
10.8,1665292.65413669,25,3,3,3,0,-519.0,11.11,-3.81,-1.81,2.53,-0.46,1.68,-19.0,-13.8125,557.5625,0.81768798828125,0.0440673828125,-0.181640625,0.019,-17.5625,39.6875,-21.125,8.57,-3.34,moving,2
10.81,1665292.669776176,25,3,3,3,0,-500.0,9.68,-2.87,-1.6,1.13,0.49,3.14,2.3125,-15.625,555.875,0.818603515625,0.04498291015625,-0.1822509765625,0.0201,-18.0,36.5625,-21.25,8.55,-3.37,moving,2
10.82,1665292.669776176,25,3,3,3,0,-461.0,8.55,-2.08,-1.19,0.02,1.33,3.85,19.875,-17.625,553.75,0.8199462890625,0.04681396484375,-0.1817626953125,0.0201,-18.0,36.5625,-21.3125,8.53,-3.42,moving,2
10.83,1665292.70098516,25,3,3,3,0,-361.0,6.69,-1.06,-0.18,-1.81,2.4,3.2,28.0625,-19.5625,551.875,0.82122802734375,0.0491943359375,-0.1807861328125,0.0201,-18.0,36.5625,-21.4375,8.5,-3.46,moving,2
10.84,1665292.70098516,25,3,3,3,0,-296.0,5.72,-0.83,0.47,-2.76,2.66,1.51,30.4375,-20.6875,550.6875,0.82208251953125,0.05194091796875,-0.1795654296875,0.0201,-18.0,36.5625,-21.5,8.48,-3.5,moving,2
10.85,1665292.715852348,25,3,3,3,0,-250.0,4.94,-0.61,0.94,-3.52,2.9,0.07,32.8125,-20.4375,550.25,0.822509765625,0.054931640625,-0.17816162109375,0.0201,-18.0,36.5625,-21.5625,8.47,-3.52,moving,2
10.86,1665292.715852348,25,3,3,3,0,-211.0,4.31,-0.47,1.34,-4.15,3.06,-1.28,36.75,-19.9375,550.3125,0.82257080078125,0.0582275390625,-0.17645263671875,0.0201,-18.375,35.875,-21.625,8.46,-3.53,moving,2
10.87,1665292.729610608,25,3,3,3,0,-182.0,3.44,-0.29,1.63,-5.02,3.23,-2.69,43.8125,-19.3125,551.0625,0.82232666015625,0.06195068359375,-0.17413330078125,0.0201,-18.375,35.875,-21.625,8.46,-3.53,moving,2
10.88,1665292.729610608,25,3,3,3,0,-180.0,3.11,-0.18,1.65,-5.35,3.34,-4.18,49.6875,-18.4375,552.4375,0.82177734375,0.06597900390625,-0.1712646484375,0.0201,-18.375,35.875,-21.5625,8.47,-3.52,moving,2
10.89,1665292.762882377,25,3,3,3,0,-192.0,2.68,-0.16,1.52,-5.79,3.34,-5.04,54.0625,-18.5625,554.125,0.82098388671875,0.0703125,-0.1680908203125,0.0201,-18.375,35.875,-21.5625,8.48,-3.5,moving,2
10.9,1665292.762882377,25,3,3,3,0,-214.0,2.52,-0.25,1.3,-5.96,3.23,-5.42,58.25,-20.9375,555.9375,0.820068359375,0.0750732421875,-0.1646728515625,0.0201,-18.375,35.875,-21.5,8.48,-3.49,moving,2
10.91,1665292.774094006,25,3,3,3,0,-219.0,1.99,-0.41,1.24,-6.5,3.06,-5.66,60.75,-23.5,557.75,0.819091796875,0.08013916015625,-0.16119384765625,0.0205,-18.6875,38.1875,-21.5,8.49,-3.47,moving,2
10.92,1665292.774094006,25,3,3,3,0,-220.0,1.86,-0.51,1.24,-6.63,2.95,-5.5,61.625,-25.8125,559.5,0.818115234375,0.08538818359375,-0.15777587890625,0.0205,-18.6875,38.1875,-21.5,8.5,-3.46,moving,2
10.93,1665292.806227429,25,3,3,3,0,-197.0,1.81,-0.53,1.47,-6.69,2.91,-5.36,61.375,-28.6875,561.0625,0.817138671875,0.0908203125,-0.154541015625,0.0205,-18.6875,38.1875,-21.5625,8.5,-3.45,moving,2
10.94,1665292.806227429,25,3,3,3,0,-116.0,1.53,-0.61,2.29,-6.96,2.82,-5.19,60.8125,-31.4375,562.5,0.81610107421875,0.09637451171875,-0.15142822265625,0.0205,-18.6875,38.1875,-21.625,8.5,-3.43,moving,2
10.95,1665292.819670178,25,3,3,3,0,-81.0,1.34,-0.73,2.66,-7.16,2.69,-4.71,61.4375,-33.125,563.6875,0.815185546875,0.10211181640625,-0.1484375,0.0205,-18.6875,38.1875,-21.6875,8.5,-3.43,moving,2
10.96,1665292.819670178,25,3,3,3,0,-40.0,1.09,-0.74,3.08,-7.39,2.68,-4.09,64.375,-34.5625,564.5,0.814453125,0.10797119140625,-0.145263671875,0.0194,-19.0,42.375,-21.75,8.49,-3.43,moving,2
10.97,1665292.836067273,25,3,3,3,0,-16.0,0.8,-0.71,3.33,-7.68,2.72,-3.76,71.5625,-35.875,565.0625,0.8138427734375,0.1142578125,-0.14166259765625,0.0194,-19.0,42.375,-21.8125,8.49,-3.44,moving,2
10.98,1665292.836067273,25,3,3,3,0,2.0,0.15,-0.49,3.53,-8.32,2.95,-3.4,77.375,-37.5,565.3125,0.81341552734375,0.12091064453125,-0.1378173828125,0.0194,-19.0,42.375,-21.875,8.48,-3.45,moving,2
10.99,1665292.849263969,25,3,3,3,0,2.0,0.15,-0.49,3.53,-8.32,2.95,-3.4,77.375,-37.5,565.3125,0.81341552734375,0.12091064453125,-0.1378173828125,0.0194,-19.0,42.375,-21.875,8.48,-3.45,moving,2
10.99,1665292.849263969,25,3,3,3,0,0.0,-0.16,-0.33,3.51,-8.62,3.14,-3.14,80.875,-39.875,565.375,0.81298828125,0.12786865234375,-0.1337890625,0.0194,-19.0,42.375,-21.9375,8.46,-3.47,moving,2
11.0,1665292.865479382,25,3,3,3,0,-8.0,-0.38,-0.11,3.45,-8.83,3.38,-2.86,81.125,-42.5,565.25,0.81256103515625,0.135009765625,-0.1298828125,0.0194,-19.0,42.375,-22.0625,8.45,-3.49,moving,2
11.01,1665292.865479382,25,3,3,3,0,-14.0,-0.57,0.1,3.4,-9.01,3.63,-2.3,79.0,-44.75,564.8125,0.81219482421875,0.14215087890625,-0.126220703125,0.019,-18.6875,45.5,-22.125,8.43,-3.52,moving,2
11.02,1665292.881085339,25,3,3,3,0,-20.0,0.08,0.57,3.36,-8.32,4.14,-1.22,73.625,-44.0,563.9375,0.81207275390625,0.14886474609375,-0.123046875,0.019,-18.6875,45.5,-22.25,8.41,-3.56,moving,2
11.03,1665292.881085339,25,3,3,3,0,-42.0,1.07,0.72,3.15,-7.31,4.33,0.42,62.6875,-37.9375,562.5,0.81231689453125,0.154541015625,-0.1204833984375,0.019,-18.6875,45.5,-22.375,8.38,-3.6,moving,2
11.04,1665292.9114238,25,3,3,3,0,-88.0,2.71,0.91,2.7,-5.64,4.56,1.84,55.1875,-29.0625,560.5625,0.81304931640625,0.15911865234375,-0.11810302734375,0.019,-18.6875,45.5,-22.4375,8.36,-3.65,moving,2
11.05,1665292.9114238,25,3,3,3,0,-142.0,4.67,1.13,2.15,-3.66,4.85,2.7,58.4375,-19.1875,558.3125,0.81414794921875,0.1630859375,-0.1151123046875,0.019,-18.6875,45.5,-22.375,8.33,-3.71,moving,2
11.06,1665292.924289441,25,3,3,3,0,-289.0,8.55,1.09,0.64,0.23,4.88,3.29,77.8125,-9.0625,555.5625,0.8157958984375,0.167236328125,-0.1103515625,0.019,-18.375,46.6875,-22.125,8.31,-3.79,moving,2
11.07,1665292.924289441,25,3,3,3,0,-467.0,11.07,-0.08,-1.2,2.77,3.79,3.13,101.0625,0.375,552.625,0.817626953125,0.17181396484375,-0.1033935546875,0.019,-18.375,46.6875,-21.6875,8.3,-3.88,moving,2
11.08,1665292.939659477,25,3,3,3,0,-598.0,13.7,-3.39,-2.55,5.39,0.52,-0.59,59.125,4.0,552.0625,0.8179931640625,0.17437744140625,-0.09893798828125,0.019,-18.375,46.6875,-21.4375,8.31,-3.91,moving,2
11.09,1665292.939659477,25,3,3,3,0,-259.0,12.34,-22.88,0.88,3.97,-19.14,-12.8,-94.375,7.9375,559.4375,0.81353759765625,0.1700439453125,-0.1041259765625,0.019,-18.375,46.6875,-21.75,8.36,-3.74,moving,2
11.1,1665292.969623262,25,3,3,3,0,-787.0,19.23,-30.47,-4.3,10.73,-27.12,-28.28,-211.4375,30.375,575.625,0.80340576171875,0.15936279296875,-0.114990234375,0.019,-18.375,46.6875,-22.25,8.49,-3.35,moving,2
11.11,1665292.969623262,25,3,3,3,0,-1140.0,27.82,-17.62,-7.87,19.21,-14.53,-25.52,-42.0625,36.4375,587.9375,0.7955322265625,0.15631103515625,-0.11395263671875,0.0176,-16.1875,47.5,-22.0625,8.6,-3.08,moving,2
11.12,1665293.001638684,25,3,3,3,0,-1305.0,32.91,-7.02,-9.54,24.3,-3.91,0.71,33.1875,4.8125,587.1875,0.79620361328125,0.1575927734375,-0.1114501953125,0.0176,-16.1875,47.5,-21.9375,8.61,-3.11,moving,2
11.13,1665293.001638684,25,3,3,3,0,-1010.0,24.55,-0.58,-6.6,16.0,2.69,14.63,43.9375,-8.4375,580.0,0.801025390625,0.15948486328125,-0.11004638671875,0.0176,-16.1875,47.5,-21.875,8.55,-3.27,moving,2
11.14,1665293.007029146,25,3,3,3,0,-1011.0,20.19,-1.35,-6.59,11.67,1.99,6.98,6.5,-11.75,576.625,0.8031005859375,0.16021728515625,-0.11077880859375,0.0176,-16.1875,47.5,-21.9375,8.52,-3.34,moving,2
11.15,1665293.007029146,25,3,3,3,0,-1057.0,18.36,-3.77,-7.02,9.84,-0.47,-1.81,-43.0,-7.8125,578.0,0.802001953125,0.15875244140625,-0.11407470703125,0.0176,-16.1875,47.5,-22.1875,8.52,-3.3,moving,2
11.16,1665293.030324394,25,3,3,3,0,-1023.0,17.0,-7.27,-6.64,8.47,-4.03,-2.28,-66.8125,0.6875,579.9375,0.80059814453125,0.15557861328125,-0.11846923828125,0.0181,-18.0625,48.5,-22.375,8.53,-3.23,moving,2
11.17,1665293.030324394,25,3,3,3,0,-806.0,14.21,-11.25,-4.44,5.67,-8.06,0.14,-85.0,8.0,581.125,0.79986572265625,0.15081787109375,-0.1240234375,0.0181,-18.0625,48.5,-22.625,8.53,-3.18,moving,2
11.18,1665293.044741467,25,3,3,3,0,-794.0,13.47,-8.32,-4.3,4.93,-5.14,2.63,-51.875,8.1875,580.75,0.80023193359375,0.1474609375,-0.12750244140625,0.0181,-18.0625,48.5,-22.75,8.53,-3.17,moving,2
11.19,1665293.044741467,25,3,3,3,0,-746.0,11.84,-6.49,-3.82,3.33,-3.24,8.04,-12.625,5.8125,577.375,0.8026123046875,0.1458740234375,-0.12872314453125,0.0181,-18.0625,48.5,-22.6875,8.5,-3.24,moving,2
11.2,1665293.074442192,25,3,3,3,0,-641.0,9.95,-5.47,-2.78,1.47,-2.13,10.79,2.25,6.875,572.5625,0.8060302734375,0.144775390625,-0.12908935546875,0.0181,-18.0625,48.5,-22.625,8.47,-3.34,moving,2
11.21,1665293.074442192,25,3,3,3,0,-468.0,6.2,-3.77,-1.07,-2.24,-0.33,9.48,5.375,11.6875,568.375,0.80914306640625,0.1435546875,-0.12890625,0.0191,-17.0,45.375,-22.5,8.44,-3.43,moving,2
11.22,1665293.089796155,25,3,3,3,0,-399.0,5.08,-2.9,-0.41,-3.34,0.6,6.96,4.8125,18.4375,565.375,0.8115234375,0.1419677734375,-0.12823486328125,0.0191,-17.0,45.375,-22.3125,8.43,-3.5,moving,2
11.23,1665293.089796155,25,3,3,3,0,-332.0,4.52,-2.21,0.22,-3.89,1.32,4.86,-6.375,23.25,563.5,0.813232421875,0.13970947265625,-0.1279296875,0.0191,-17.0,45.375,-22.125,8.42,-3.54,moving,2
11.24,1665293.105098523,25,3,3,3,0,-332.0,4.52,-2.21,0.22,-3.89,1.32,4.86,-6.375,23.25,563.5,0.813232421875,0.13970947265625,-0.1279296875,0.0191,-17.0,45.375,-22.125,8.42,-3.54,moving,2
11.25,1665293.105098523,25,3,3,3,0,-148.0,3.16,-1.22,2.03,-5.26,2.34,3.94,-19.1875,26.25,562.25,0.81451416015625,0.13665771484375,-0.12835693359375,0.0191,-17.0,45.375,-22.0,8.42,-3.57,moving,2
11.25,1665293.121283378,25,3,3,3,0,-67.0,2.96,-0.86,2.81,-5.46,2.72,4.04,-19.625,29.9375,560.9375,0.81585693359375,0.13330078125,-0.128662109375,0.0191,-17.0,45.375,-21.8125,8.42,-3.59,moving,2
11.26,1665293.121283378,25,3,3,3,0,-17.0,3.29,-0.34,3.28,-5.13,3.27,3.34,-18.0625,33.125,560.0,0.8170166015625,0.1298828125,-0.12860107421875,0.0198,-16.875,44.25,-21.5625,8.43,-3.61,moving,2
11.27,1665293.134063123,25,3,3,3,0,12.0,3.17,0.21,3.53,-5.27,3.83,1.82,-25.125,35.8125,559.875,0.81768798828125,0.1259765625,-0.12884521484375,0.0198,-16.875,44.25,-21.3125,8.45,-3.61,moving,2
11.28,1665293.134063123,25,3,3,3,0,2.0,2.68,0.65,3.4,-5.78,4.26,0.74,-37.5,38.5625,560.375,0.81787109375,0.12139892578125,-0.12969970703125,0.0198,-16.875,44.25,-21.125,8.47,-3.6,moving,2
11.29,1665293.165352836,25,3,3,3,0,13.0,2.47,0.57,3.49,-6.01,4.15,0.14,-44.625,40.8125,561.25,0.81787109375,0.1163330078125,-0.1309814453125,0.0198,-16.875,44.25,-20.9375,8.49,-3.57,moving,2
11.3,1665293.165352836,25,3,3,3,0,40.0,2.38,0.41,3.72,-6.13,3.96,0.31,-46.3125,41.625,562.0625,0.81781005859375,0.11114501953125,-0.13232421875,0.0198,-16.875,44.25,-20.6875,8.51,-3.55,moving,2
11.32,1665293.179437797,25,3,3,3,0,51.0,2.21,0.3,3.8,-6.32,3.83,1.09,-47.1875,39.875,562.5,0.8179931640625,0.10595703125,-0.13385009765625,0.0198,-18.6875,44.6875,-20.5,8.53,-3.53,moving,2
11.32,1665293.179437797,25,3,3,3,0,59.0,1.45,0.24,3.86,-7.09,3.77,2.05,-44.3125,36.375,562.4375,0.81842041015625,0.10107421875,-0.1353759765625,0.0198,-18.6875,44.6875,-20.375,8.54,-3.53,moving,2
11.33,1665293.195182304,25,3,3,3,0,42.0,1.03,0.2,3.66,-7.51,3.74,3.36,-37.4375,31.8125,561.625,0.8192138671875,0.0968017578125,-0.13671875,0.0198,-18.6875,44.6875,-20.1875,8.55,-3.54,moving,2
11.34,1665293.195182304,25,3,3,3,0,23.0,0.62,0.27,3.44,-7.91,3.84,4.76,-29.375,26.9375,560.0,0.82049560546875,0.09307861328125,-0.1378173828125,0.0198,-18.6875,44.6875,-20.0625,8.54,-3.56,moving,2
11.35,1665293.224096122,25,3,3,3,0,3.0,0.6,0.29,3.23,-7.93,3.9,5.93,-24.0625,21.75,557.75,0.8221435546875,0.0899658203125,-0.1387939453125,0.0198,-18.6875,44.6875,-19.9375,8.53,-3.6,moving,2
11.36,1665293.224096122,25,3,3,3,0,-41.0,1.12,0.17,2.76,-7.39,3.83,6.78,-17.9375,17.0,555.0,0.8240966796875,0.08734130859375,-0.13958740234375,0.0202,-19.0,42.75,-19.875,8.52,-3.66,moving,2
11.37,1665293.238850639,25,3,3,3,0,-72.0,1.96,0.32,2.44,-6.53,4.05,7.67,-14.5625,16.0,551.8125,0.8262939453125,0.08489990234375,-0.1402587890625,0.0202,-19.0,42.75,-19.8125,8.49,-3.72,moving,2
11.38,1665293.238850639,25,3,3,3,0,-129.0,3.33,0.65,1.86,-5.14,4.44,8.14,-14.6875,18.625,548.375,0.82861328125,0.082275390625,-0.14080810546875,0.0202,-19.0,42.75,-19.6875,8.47,-3.79,moving,2
11.4,1665293.255253959,25,3,3,3,0,-217.0,5.1,0.8,0.95,-3.34,4.66,8.21,-15.375,23.8125,545.0,0.83099365234375,0.0792236328125,-0.1412353515625,0.0202,-19.0,42.75,-19.5,8.45,-3.86,moving,2
11.4,1665293.255253959,25,3,3,3,0,-488.0,9.57,0.31,-1.78,1.14,4.23,7.89,-15.6875,27.5,541.75,0.833251953125,0.07586669921875,-0.14141845703125,0.0202,-19.0,42.75,-19.3125,8.43,-3.92,moving,2
11.41,1665293.28727227,25,3,3,3,0,-559.0,10.82,-0.85,-2.52,2.4,3.11,6.55,-21.375,28.0,539.25,0.8350830078125,0.07232666015625,-0.1419677734375,0.0209,-18.6875,40.75,-19.1875,8.42,-3.97,moving,2
11.42,1665293.28727227,25,3,3,3,0,-496.0,10.74,-2.28,-1.9,2.32,1.69,3.76,-53.8125,27.5,538.1875,0.83563232421875,0.06756591796875,-0.144775390625,0.0209,-18.6875,40.75,-19.125,8.42,-3.97,moving,2
11.43,1665293.301587618,25,3,3,3,0,-324.0,8.66,-10.1,-0.14,0.22,-6.19,-1.03,-97.3125,30.5,539.625,0.834228515625,0.06097412109375,-0.15045166015625,0.0209,-18.6875,40.75,-19.3125,8.44,-3.91,moving,2
11.44,1665293.301587618,25,3,3,3,0,-376.0,10.31,-19.49,-0.62,1.81,-15.75,-8.5,-177.5,44.3125,545.0625,0.82958984375,0.05029296875,-0.1610107421875,0.0209,-18.6875,40.75,-19.625,8.5,-3.74,moving,2
11.45,1665293.315231173,25,3,3,3,0,-597.0,19.11,-22.04,-2.82,10.51,-18.53,-17.04,-140.875,59.0,554.375,0.82281494140625,0.04095458984375,-0.16796875,0.0209,-18.6875,40.75,-19.625,8.6,-3.5,moving,2
11.46,1665293.315231173,25,3,3,3,0,-583.0,23.44,-12.26,-2.76,14.76,-8.88,-13.47,2.1875,46.9375,561.25,0.8189697265625,0.0389404296875,-0.165283203125,0.0202,-18.375,41.1875,-19.1875,8.67,-3.37,moving,2
11.48,1665293.344589897,25,3,3,3,0,-281.0,23.09,-4.14,0.21,14.42,-0.72,2.81,33.875,13.375,560.0625,0.82037353515625,0.039306640625,-0.16229248046875,0.0202,-18.375,41.1875,-18.9375,8.67,-3.42,moving,2
11.48,1665293.344589897,25,3,3,3,0,-274.0,20.33,-2.68,0.27,11.69,0.82,8.33,27.625,-3.125,556.0625,0.8232421875,0.0401611328125,-0.16064453125,0.0202,-18.375,41.1875,-18.875,8.64,-3.51,moving,2
11.49,1665293.359853935,25,3,3,3,0,-360.0,18.15,-3.08,-0.58,9.52,0.46,3.16,10.1875,-5.0625,554.5,0.82427978515625,0.04071044921875,-0.16021728515625,0.0202,-18.375,41.1875,-18.875,8.62,-3.55,moving,2
11.5,1665293.359853935,25,3,3,3,0,-360.0,18.15,-3.08,-0.58,9.52,0.46,3.16,10.1875,-5.0625,554.5,0.82427978515625,0.04071044921875,-0.16021728515625,0.0202,-18.375,41.1875,-18.875,8.62,-3.55,moving,2
11.51,1665293.364448499,25,3,3,3,0,-503.0,16.69,-4.99,-2.0,8.06,-1.46,-2.29,-3.9375,-2.5625,555.5,0.82354736328125,0.0408935546875,-0.16058349609375,0.0202,-18.375,41.1875,-18.875,8.63,-3.52,moving,2
11.51,1665293.364448499,25,3,3,3,0,-573.0,14.88,-9.37,-2.69,6.24,-5.89,-3.42,-20.625,-0.5625,557.1875,0.822265625,0.040283203125,-0.1619873046875,0.0198,-19.0,40.75,-19.0,8.64,-3.48,moving,2
11.52,1665293.391080823,25,3,3,3,0,-594.0,14.27,-9.16,-2.88,5.62,-5.71,-2.52,-21.8125,-3.375,558.375,0.8211669921875,0.0396728515625,-0.16363525390625,0.0198,-19.0,40.75,-19.125,8.65,-3.44,moving,2
11.53,1665293.391080823,25,3,3,3,0,-595.0,13.54,-7.82,-2.87,4.9,-4.37,0.07,-5.3125,-11.3125,558.1875,0.821044921875,0.04022216796875,-0.16455078125,0.0198,-19.0,40.75,-19.25,8.64,-3.44,moving,2
11.54,1665293.404206108,25,3,3,3,0,-542.0,12.64,-6.51,-2.32,4.02,-3.02,3.83,13.5,-19.5,556.125,0.82232666015625,0.04193115234375,-0.16461181640625,0.0198,-19.0,40.75,-19.375,8.62,-3.49,moving,2
11.56,1665293.404206108,25,3,3,3,0,-402.0,10.55,-4.43,-0.9,1.96,-0.88,5.48,23.875,-23.8125,553.125,0.82421875,0.0443115234375,-0.16412353515625,0.0198,-19.0,40.75,-19.5,8.58,-3.55,moving,2
11.57,1665293.419125785,25,3,3,3,0,-349.0,9.37,-3.89,-0.35,0.82,-0.28,4.92,27.5,-24.5625,550.375,0.825927734375,0.04693603515625,-0.1634521484375,0.0209,-20.25,40.0,-19.625,8.55,-3.61,moving,2
11.57,1665293.419125785,25,3,3,3,0,-320.0,8.63,-3.27,-0.05,0.09,0.37,2.35,29.625,-22.625,548.8125,0.82696533203125,0.04974365234375,-0.16241455078125,0.0209,-20.25,40.0,-19.6875,8.53,-3.65,moving,2
11.58,1665293.467714286,25,3,3,3,0,-292.0,7.19,-2.43,0.24,-1.33,1.23,-0.33,26.5,-20.25,548.5625,0.8271484375,0.05242919921875,-0.16143798828125,0.0209,-20.25,40.0,-19.8125,8.52,-3.66,moving,2
11.59,1665293.467714286,25,3,3,3,0,-291.0,6.72,-2.32,0.26,-1.8,1.33,-2.01,21.75,-18.1875,549.125,0.8267822265625,0.05499267578125,-0.16064453125,0.0209,-20.25,40.0,-19.875,8.52,-3.66,moving,2
11.6,1665293.473191785,25,3,3,3,0,-290.0,6.13,-2.34,0.29,-2.39,1.29,-2.86,19.6875,-17.125,550.125,0.826171875,0.057373046875,-0.159912109375,0.0209,-20.25,40.0,-19.9375,8.52,-3.64,moving,2
11.61,1665293.473191785,25,3,3,3,0,-277.0,5.49,-2.3,0.43,-3.03,1.31,-3.3,21.4375,-17.3125,551.25,0.82537841796875,0.0599365234375,-0.15911865234375,0.0202,-18.75,40.375,-20.0,8.52,-3.62,moving,2
11.63,1665293.479789482,25,3,3,3,0,-251.0,4.39,-2.09,0.7,-4.13,1.5,-3.5,25.125,-18.1875,552.5,0.82464599609375,0.06268310546875,-0.15802001953125,0.0202,-18.75,40.375,-20.0625,8.53,-3.6,moving,2
11.64,1665293.479789482,25,3,3,3,0,-210.0,4.02,-1.94,1.12,-4.5,1.64,-3.7,29.375,-19.875,553.75,0.8238525390625,0.06585693359375,-0.15667724609375,0.0202,-18.75,40.375,-20.1875,8.53,-3.58,moving,2
11.65,1665293.509493583,25,3,3,3,0,-160.0,3.88,-1.8,1.63,-4.65,1.77,-3.56,34.6875,-21.375,554.875,0.8231201171875,0.0693359375,-0.15509033203125,0.0202,-18.75,40.375,-20.25,8.53,-3.57,moving,2
11.65,1665293.509493583,25,3,3,3,0,-105.0,3.56,-1.65,2.19,-4.97,1.9,-3.32,38.8125,-22.9375,555.8125,0.822509765625,0.07305908203125,-0.15325927734375,0.0202,-18.75,40.375,-20.3125,8.53,-3.56,moving,2
11.66,1665293.524288342,25,3,3,3,0,-15.0,2.6,-0.94,3.1,-5.93,2.61,-3.09,43.1875,-23.875,556.625,0.822021484375,0.07708740234375,-0.15118408203125,0.0206,-20.25,43.875,-20.3125,8.53,-3.56,moving,2
11.67,1665293.524288342,25,3,3,3,0,19.0,2.1,-0.43,3.45,-6.42,3.12,-2.99,47.625,-24.0,557.3125,0.82159423828125,0.08135986328125,-0.14874267578125,0.0206,-20.25,43.875,-20.375,8.53,-3.56,moving,2
11.68,1665293.539334363,25,3,3,3,0,45.0,1.64,-0.03,3.72,-6.88,3.53,-2.8,49.875,-23.9375,557.9375,0.82122802734375,0.08563232421875,-0.14617919921875,0.0206,-20.25,43.875,-20.375,8.53,-3.56,moving,2
11.69,1665293.539334363,25,3,3,3,0,57.0,1.28,0.23,3.84,-7.24,3.8,-2.61,50.625,-24.375,558.4375,0.8209228515625,0.09002685546875,-0.14361572265625,0.0206,-20.25,43.875,-20.4375,8.52,-3.56,moving,2
11.71,1665293.570310193,25,3,3,3,0,49.0,0.4,0.58,3.78,-8.11,4.15,-2.62,50.5625,-25.875,558.875,0.820556640625,0.094482421875,-0.14105224609375,0.0206,-20.25,43.875,-20.5,8.52,-3.57,moving,2
11.72,1665293.570310193,25,3,3,3,0,15.0,0.0,0.66,3.44,-8.51,4.24,-2.39,53.4375,-27.9375,559.125,0.82025146484375,0.09918212890625,-0.138427734375,0.0206,-19.875,45.375,-20.5,8.51,-3.58,moving,2
11.73,1665293.5856679,25,3,3,3,0,-39.0,-0.25,0.62,2.9,-8.75,4.21,-2.12,57.6875,-30.125,559.25,0.820068359375,0.104248046875,-0.1356201171875,0.0206,-19.875,45.375,-20.5625,8.5,-3.59,moving,2
11.73,1665293.5856679,25,3,3,3,0,-107.0,-0.35,0.61,2.23,-8.85,4.23,-1.74,61.75,-31.875,559.0625,0.8199462890625,0.109619140625,-0.13262939453125,0.0206,-19.875,45.375,-20.625,8.49,-3.61,moving,2
11.74,1665293.615001233,25,3,3,3,0,-206.0,0.54,0.76,1.25,-7.93,4.4,-1.01,64.75,-32.6875,558.5,0.820068359375,0.1151123046875,-0.12945556640625,0.0206,-19.875,45.375,-20.6875,8.48,-3.64,moving,2
11.75,1665293.615001233,25,3,3,3,0,-239.0,1.55,0.99,0.92,-6.9,4.67,0.29,64.5625,-32.5625,557.3125,0.820556640625,0.1204833984375,-0.12640380859375,0.0206,-19.875,45.375,-20.75,8.46,-3.68,moving,2
11.76,1665293.620472791,25,3,3,3,0,-252.0,3.04,1.1,0.8,-5.38,4.83,1.58,57.3125,-30.4375,555.625,0.8212890625,0.125244140625,-0.1239013671875,0.0202,-18.75,45.375,-20.75,8.43,-3.73,moving,2
11.77,1665293.620472791,25,3,3,3,0,-252.0,3.04,1.1,0.8,-5.38,4.83,1.58,57.3125,-30.4375,555.625,0.8212890625,0.125244140625,-0.1239013671875,0.0202,-18.75,45.375,-20.75,8.43,-3.73,moving,2
11.78,1665293.646519462,25,3,3,3,0,-322.0,7.09,0.57,0.11,-1.31,4.35,1.97,44.0625,-26.0,553.9375,0.82208251953125,0.12908935546875,-0.1220703125,0.0202,-18.75,45.375,-20.8125,8.41,-3.77,moving,2
11.79,1665293.646519462,25,3,3,3,0,-388.0,9.18,-0.51,-0.53,0.78,3.28,1.27,26.0625,-19.875,552.8125,0.822509765625,0.13165283203125,-0.1212158203125,0.0202,-18.75,45.375,-20.875,8.39,-3.8,moving,2
11.8,1665293.65911545,25,3,3,3,0,-414.0,11.43,-2.29,-0.77,3.04,1.49,-0.67,1.1875,-13.3125,553.0,0.8221435546875,0.1326904296875,-0.12176513671875,0.0202,-18.75,45.375,-21.0,8.39,-3.79,moving,2
11.81,1665293.65911545,25,3,3,3,0,-369.0,12.37,-5.0,-0.28,3.96,-1.27,-4.75,-49.25,-3.9375,555.6875,0.8201904296875,0.1309814453125,-0.1251220703125,0.0202,-18.75,45.375,-21.25,8.4,-3.72,moving,2
11.82,1665293.674054741,25,3,3,3,0,-440.0,12.26,-19.45,-0.93,3.8,-15.91,-10.63,-142.4375,13.875,562.375,0.8155517578125,0.12396240234375,-0.13385009765625,0.0198,-18.0625,45.375,-21.6875,8.45,-3.53,moving,2
11.82,1665293.674054741,25,3,3,3,0,-1013.0,16.99,-21.68,-6.61,8.45,-18.38,-16.49,-144.3125,30.0625,571.75,0.80914306640625,0.1160888671875,-0.14154052734375,0.0198,-18.0625,45.375,-21.9375,8.53,-3.29,moving,2
11.83,1665293.704841606,25,3,3,3,0,-1085.0,23.94,-13.1,-7.38,15.35,-9.9,-11.08,10.4375,22.5,576.9375,0.80615234375,0.11590576171875,-0.1390380859375,0.0198,-18.0625,45.375,-21.6875,8.59,-3.2,moving,2
11.84,1665293.704841606,25,3,3,3,0,-1139.0,27.35,-5.9,-7.95,18.78,-2.59,7.04,73.75,2.75,573.0,0.8092041015625,0.1187744140625,-0.1341552734375,0.0198,-18.0625,45.375,-21.4375,8.56,-3.31,moving,2
11.86,1665293.719652234,25,3,3,3,0,-977.0,19.04,-0.86,-6.37,10.52,2.6,12.84,68.5625,-6.1875,566.375,0.8138427734375,0.12158203125,-0.13043212890625,0.0198,-18.0625,45.375,-21.25,8.51,-3.47,moving,2
11.87,1665293.719652234,25,3,3,3,0,-890.0,16.49,-2.37,-5.5,8.01,1.17,6.52,23.6875,-8.625,563.0,0.81597900390625,0.1229248046875,-0.129638671875,0.0206,-18.75,43.375,-21.1875,8.48,-3.54,moving,2
11.88,1665293.734298841,25,3,3,3,0,-906.0,16.86,-5.04,-5.63,8.37,-1.54,-1.96,-39.25,-5.1875,564.25,0.81488037109375,0.12152099609375,-0.13250732421875,0.0206,-18.75,43.375,-21.4375,8.49,-3.5,moving,2
11.89,1665293.734298841,25,3,3,3,0,-925.0,16.2,-6.97,-5.79,7.68,-3.56,-7.09,-50.9375,-0.8125,568.0,0.8121337890625,0.11968994140625,-0.1357421875,0.0206,-18.75,43.375,-21.625,8.51,-3.41,moving,2
11.9,1665293.765063082,25,3,3,3,0,-845.0,15.04,-11.19,-4.95,6.5,-7.86,-5.18,-53.8125,2.6875,571.0,0.8099365234375,0.11724853515625,-0.13909912109375,0.0206,-18.75,43.375,-21.8125,8.53,-3.32,moving,2
11.9,1665293.765063082,25,3,3,3,0,-745.0,13.78,-9.8,-3.94,5.24,-6.5,0.12,-47.375,2.5,571.4375,0.8094482421875,0.11474609375,-0.142333984375,0.0206,-18.75,43.375,-21.9375,8.53,-3.3,moving,2
11.91,1665293.78125754,25,3,3,3,0,-710.0,12.89,-7.53,-3.58,4.37,-4.17,6.54,-7.75,0.5,568.5625,0.81134033203125,0.1138916015625,-0.143310546875,0.0202,-17.25,43.0,-22.0,8.51,-3.35,moving,2
11.92,1665293.78125754,25,3,3,3,0,-577.0,9.78,-4.73,-2.26,1.3,-1.26,10.81,12.875,0.625,563.5,0.81475830078125,0.1136474609375,-0.14300537109375,0.0202,-17.25,43.0,-21.9375,8.47,-3.46,moving,2
11.94,1665293.795112765,25,3,3,3,0,-527.0,8.23,-4.06,-1.77,-0.2,-0.48,11.07,14.4375,3.375,558.3125,0.8182373046875,0.11322021484375,-0.14251708984375,0.0202,-17.25,43.0,-21.8125,8.43,-3.57,moving,2
11.95,1665293.795112765,25,3,3,3,0,-483.0,6.76,-3.37,-1.35,-1.63,0.29,9.1,14.875,6.75,554.125,0.82122802734375,0.11273193359375,-0.1417236328125,0.0202,-17.25,43.0,-21.6875,8.4,-3.66,moving,2
