timestamp,android_nano_timestamp,temperature,calib_mag,calib_accel,calib_gyro,calib_sys,acc_x,acc_y,acc_z,lacc_x,lacc_y,lacc_z,gyro_x,gyro_y,gyro_z,quat_w,quat_x,quat_y,quat_z,mag_x,mag_y,mag_z,gravity_x,gravity_y,gravity_z,label,person
4.9,1665521.47071159,25,3,3,3,3,-97.0,5.89,-2.91,2.9,-2.46,0.43,-2.28,-31.75,14.25,492.8125,0.43536376953125,0.69366455078125,0.31256103515625,0.0235,-12.375,7.6875,-24.1875,8.36,-3.34,moving,2
4.91,1665521.47071159,25,3,3,3,3,19.0,5.08,-2.4,4.06,-3.3,0.89,-3.41,-39.5,17.6875,495.5625,0.4366455078125,0.69073486328125,0.3131103515625,0.0235,-12.375,7.6875,-24.1875,8.38,-3.29,moving,2
4.92,1665521.485591351,25,3,3,3,3,64.0,5.0,-2.03,4.51,-3.41,1.19,-3.98,-45.4375,20.9375,498.75,0.4381103515625,0.68731689453125,0.31378173828125,0.0235,-12.375,7.6875,-24.125,8.41,-3.22,moving,2
4.93,1665521.485591351,25,3,3,3,3,74.0,5.3,-1.57,4.6,-3.13,1.57,-4.45,-45.8125,22.8125,502.6875,0.44110107421875,0.6827392578125,0.31353759765625,0.0242,-12.0625,6.5625,-24.125,8.44,-3.15,moving,2
4.94,1665521.514831667,25,3,3,3,3,22.0,6.84,-0.42,4.07,-1.62,2.65,-4.05,-43.3125,23.875,505.6875,0.442626953125,0.67926025390625,0.31439208984375,0.0242,-12.0625,6.5625,-24.0,8.47,-3.08,moving,2
4.95,1665521.514831667,25,3,3,3,3,-63.0,7.81,-0.33,3.19,-0.68,2.7,-2.45,-42.0,23.75,508.125,0.44451904296875,0.67608642578125,0.314697265625,0.0242,-12.0625,6.5625,-23.9375,8.49,-3.03,moving,2
4.96,1665521.532245485,25,3,3,3,3,-178.0,8.39,-0.52,2.03,-0.11,2.48,-0.23,-35.0625,21.875,509.6875,0.44671630859375,0.6737060546875,0.31439208984375,0.0242,-12.0625,6.5625,-23.875,8.51,-3.0,moving,2
4.97,1665521.532245485,25,3,3,3,3,-314.0,8.55,-1.13,0.66,0.02,1.87,1.5,-27.625,19.4375,510.4375,0.44903564453125,0.6719970703125,0.3135986328125,0.0242,-12.0625,6.5625,-23.75,8.52,-3.0,moving,2
4.98,1665521.544175457,25,3,3,3,3,-570.0,9.2,-2.95,-1.9,0.67,0.05,2.34,-29.8125,15.9375,512.0625,0.4532470703125,0.669189453125,0.3109130859375,0.0246,-12.0625,5.0625,-23.6875,8.52,-3.0,moving,2
4.99,1665521.544175457,25,3,3,3,3,-686.0,9.86,-3.9,-3.06,1.34,-0.9,2.14,-35.0,9.6875,513.3125,0.45538330078125,0.66766357421875,0.3092041015625,0.0246,-12.0625,5.0625,-23.75,8.52,-3.0,moving,2
5.0,1665521.574651532,25,3,3,3,3,-741.0,10.62,-5.08,-3.6,2.1,-2.08,1.66,-30.5625,2.25,514.625,0.456787109375,0.66650390625,0.3074951171875,0.0246,-12.0625,5.0625,-23.8125,8.52,-2.99,moving,2
5.01,1665521.574651532,25,3,3,3,3,-783.0,11.47,-6.36,-4.0,2.96,-3.36,2.03,-24.125,-4.8125,515.6875,0.45770263671875,0.66595458984375,0.30560302734375,0.0246,-12.0625,5.0625,-23.9375,8.51,-3.0,moving,2
5.02,1665521.58974577,25,3,3,3,3,-788.0,13.34,-6.08,-4.02,4.84,-3.06,2.94,-16.0,-13.1875,516.25,0.45819091796875,0.666259765625,0.30328369140625,0.0246,-12.0625,5.0625,-24.125,8.49,-3.01,moving,2
5.03,1665521.58974577,25,3,3,3,3,-712.0,13.74,-4.06,-3.22,5.27,-1.0,3.87,4.25,-23.3125,516.625,0.46002197265625,0.66650390625,0.29931640625,0.0242,-12.0625,3.5,-24.3125,8.46,-3.05,moving,2
5.04,1665521.605145794,25,3,3,3,3,-679.0,12.93,-2.36,-2.87,4.49,0.73,2.91,28.5,-29.4375,515.0,0.4583740234375,0.66943359375,0.29815673828125,0.0242,-12.0625,3.5,-24.5,8.43,-3.1,moving,2
5.05,1665521.605145794,25,3,3,3,3,-674.0,11.62,-1.85,-2.79,3.21,1.28,0.92,37.9375,-30.5,513.25,0.45587158203125,0.67242431640625,0.2979736328125,0.0242,-12.0625,3.5,-24.625,8.41,-3.13,moving,2
5.06,1665521.636447918,25,3,3,3,3,-571.0,9.36,-3.34,-1.74,0.97,-0.19,-0.98,34.9375,-29.875,512.1875,0.452880859375,0.67498779296875,0.29840087890625,0.0242,-12.0625,3.5,-24.8125,8.39,-3.15,moving,2
5.07,1665521.636447918,25,3,3,3,3,-534.0,8.35,-4.3,-1.34,-0.02,-1.15,-2.61,31.25,-29.4375,511.75,0.44964599609375,0.67706298828125,0.29931640625,0.0242,-12.0625,3.5,-24.9375,8.38,-3.15,moving,2
5.08,1665521.649180218,25,3,3,3,3,-493.0,7.34,-4.76,-0.91,-1.03,-1.62,-3.68,28.375,-29.5625,513.0625,0.4490966796875,0.67694091796875,0.29833984375,0.0246,-11.6875,2.25,-25.125,8.37,-3.13,moving,2
5.09,1665521.649180218,25,3,3,3,3,-429.0,6.24,-4.48,-0.24,-2.12,-1.36,-4.17,34.3125,-30.6875,512.875,0.44525146484375,0.678955078125,0.29986572265625,0.0246,-11.6875,2.25,-25.3125,8.36,-3.12,moving,2
5.1,1665521.664173993,25,3,3,3,3,-315.0,4.39,-2.76,0.91,-3.96,0.35,-4.2,53.375,-32.5625,511.5625,0.44073486328125,0.681884765625,0.30206298828125,0.0246,-11.6875,2.25,-25.375,8.35,-3.12,moving,2
5.11,1665521.664173993,25,3,3,3,3,-271.0,3.71,-1.98,1.36,-4.63,1.15,-4.12,69.6875,-33.75,509.1875,0.435791015625,0.68548583984375,0.3048095703125,0.0246,-11.6875,2.25,-25.5,8.34,-3.13,moving,2
5.12,1665521.695850018,25,3,3,3,3,-239.0,3.12,-1.4,1.69,-5.21,1.74,-4.53,79.375,-33.8125,506.375,0.430419921875,0.689453125,0.30804443359375,0.0246,-11.6875,2.25,-25.5,8.33,-3.14,moving,2
5.13,1665521.695850018,25,3,3,3,3,-234.0,2.34,-0.69,1.74,-5.99,2.46,-5.62,83.625,-33.25,503.8125,0.4254150390625,0.69287109375,0.311279296875,0.0246,-11.25,5.0,-25.5,8.33,-3.15,moving,2
5.14,1665521.701756105,25,3,3,3,3,-234.0,2.34,-0.69,1.74,-5.99,2.46,-5.62,83.625,-33.25,503.8125,0.4254150390625,0.69287109375,0.311279296875,0.0246,-11.25,5.0,-25.5,8.33,-3.15,moving,2
5.14,1665521.701756105,25,3,3,3,3,-247.0,2.47,-0.43,1.62,-5.85,2.71,-6.56,81.3125,-32.75,501.25,0.41943359375,0.6964111328125,0.31536865234375,0.0246,-11.25,5.0,-25.5625,8.33,-3.15,moving,2
5.15,1665521.728297691,25,3,3,3,3,-281.0,2.98,-0.25,1.28,-5.34,2.89,-7.02,76.4375,-31.5,499.0,0.41351318359375,0.69964599609375,0.3194580078125,0.0246,-11.25,5.0,-25.5625,8.33,-3.14,moving,2
5.16,1665521.728297691,25,3,3,3,3,-312.0,3.98,-0.15,0.97,-4.35,2.97,-7.1,70.6875,-29.5625,497.0625,0.4078369140625,0.70245361328125,0.32342529296875,0.0246,-11.25,5.0,-25.625,8.33,-3.13,moving,2
5.17,1665521.739786501,25,3,3,3,3,-315.0,5.85,-0.75,0.95,-2.49,2.36,-7.11,66.75,-27.4375,495.25,0.40240478515625,0.7049560546875,0.327392578125,0.0246,-11.25,5.0,-25.625,8.34,-3.11,moving,2
5.18,1665521.739786501,25,3,3,3,3,-339.0,6.98,-1.36,0.71,-1.36,1.72,-7.51,59.5,-24.125,493.8125,0.39703369140625,0.70709228515625,0.3314208984375,0.0235,-10.875,7.6875,-25.625,8.35,-3.09,moving,2
5.19,1665521.754856406,25,3,3,3,3,-400.0,8.2,-2.57,0.1,-0.15,0.47,-8.69,44.6875,-18.5,493.4375,0.39227294921875,0.7080078125,0.3355712890625,0.0235,-10.875,7.6875,-25.6875,8.36,-3.04,moving,2
5.2,1665521.754856406,25,3,3,3,3,-460.0,9.78,-3.91,-0.48,1.39,-0.95,-10.5,19.5625,-12.625,494.875,0.38818359375,0.70733642578125,0.3397216796875,0.0235,-10.875,7.6875,-25.6875,8.39,-2.96,moving,2
5.21,1665521.785725466,25,3,3,3,3,-622.0,13.92,-7.15,-2.09,5.5,-4.29,-10.78,9.0,-8.125,496.875,0.384521484375,0.70599365234375,0.3438720703125,0.0235,-10.875,7.6875,-25.75,8.42,-2.86,moving,2
5.22,1665521.785725466,25,3,3,3,3,-736.0,16.23,-8.62,-3.23,7.79,-5.81,-8.18,16.125,-5.75,497.8125,0.38153076171875,0.705322265625,0.3472900390625,0.0235,-10.875,7.6875,-25.75,8.44,-2.8,moving,2
5.23,1665521.800079673,25,3,3,3,3,-853.0,19.24,-9.33,-4.41,10.79,-6.53,-3.42,27.9375,-5.875,496.3125,0.37811279296875,0.70672607421875,0.35015869140625,0.0235,-10.5625,9.6875,-25.75,8.44,-2.79,moving,2
5.24,1665521.800079673,25,3,3,3,3,-1044.0,22.99,-8.54,-6.33,14.55,-5.71,0.42,35.25,-7.5,494.25,0.376708984375,0.70855712890625,0.350830078125,0.0235,-10.5625,9.6875,-25.6875,8.44,-2.82,moving,2
5.25,1665521.815208539,25,3,3,3,3,-1279.0,26.38,-3.13,-8.68,17.94,-0.28,0.2,33.4375,-6.3125,492.25,0.3753662109375,0.710205078125,0.3515625,0.0235,-10.5625,9.6875,-25.625,8.43,-2.84,moving,2
5.26,1665521.815208539,25,3,3,3,3,-1035.0,21.35,-2.31,-6.25,12.91,0.53,-1.25,24.1875,-1.5,491.0625,0.37420654296875,0.7110595703125,0.352783203125,0.0235,-10.5625,9.6875,-25.5625,8.43,-2.85,moving,2
5.27,1665521.844458864,25,3,3,3,3,-797.0,17.15,-3.04,-3.88,8.71,-0.17,-0.69,25.8125,0.3125,489.5625,0.37322998046875,0.71197509765625,0.3538818359375,0.0235,-10.5625,9.6875,-25.5,8.44,-2.86,moving,2
5.28,1665521.844458864,25,3,3,3,3,-561.0,11.6,-6.1,-1.54,3.16,-3.21,0.55,24.1875,4.1875,486.625,0.37066650390625,0.714111328125,0.3560791015625,0.0225,-10.1875,10.375,-25.375,8.44,-2.89,moving,2
5.29,1665521.859209922,25,3,3,3,3,-442.0,9.83,-6.55,-0.37,1.38,-3.65,0.68,0.625,8.375,486.1875,0.371337890625,0.7139892578125,0.356201171875,0.0225,-10.1875,10.375,-25.3125,8.44,-2.89,moving,2
5.3,1665521.859209922,25,3,3,3,3,-410.0,8.74,-5.64,-0.07,0.29,-2.74,0.16,6.4375,9.6875,485.4375,0.37176513671875,0.7139892578125,0.35675048828125,0.0225,-10.1875,10.375,-25.1875,8.45,-2.9,moving,2
5.31,1665521.875376833,25,3,3,3,3,-359.0,7.66,-4.17,0.41,-0.79,-1.25,0.48,23.1875,9.1875,483.5625,0.37176513671875,0.71478271484375,0.35772705078125,0.0225,-10.1875,10.375,-25.0625,8.45,-2.92,moving,2
5.32,1665521.875376833,25,3,3,3,3,-226.0,5.67,-2.37,1.72,-2.78,0.57,1.92,19.6875,10.5,481.5625,0.37225341796875,0.71563720703125,0.3580322265625,0.0225,-10.1875,10.375,-24.875,8.45,-2.95,moving,2
5.33,1665521.906046958,25,3,3,3,3,-147.0,4.81,-1.96,2.48,-3.64,1.01,2.09,6.125,12.5,480.3125,0.3734130859375,0.71588134765625,0.35791015625,0.0235,-10.5625,12.375,-24.75,8.46,-2.97,moving,2
5.34,1665521.906046958,25,3,3,3,3,-79.0,4.08,-1.72,3.15,-4.37,1.26,1.1,-4.625,14.75,479.875,0.374755859375,0.71539306640625,0.35791015625,0.0235,-10.5625,12.375,-24.625,8.46,-2.98,moving,2
5.35,1665521.919530397,25,3,3,3,3,-36.0,3.49,-1.48,3.56,-4.98,1.48,-0.12,-14.8125,16.9375,480.3125,0.376220703125,0.7142333984375,0.358154296875,0.0235,-10.5625,12.375,-24.5,8.47,-2.97,moving,2
5.36,1665521.919530397,25,3,3,3,3,25.0,2.83,-1.17,4.17,-5.66,1.77,-0.87,-24.625,18.9375,481.5,0.37799072265625,0.71240234375,0.3585205078125,0.0235,-10.5625,12.375,-24.4375,8.49,-2.94,moving,2
5.37,1665521.935310589,25,3,3,3,3,53.0,2.77,-0.94,4.42,-5.73,1.96,-0.99,-33.4375,20.6875,483.125,0.38006591796875,0.71014404296875,0.358642578125,0.0235,-10.5625,12.375,-24.3125,8.51,-2.91,moving,2
5.38,1665521.935310589,25,3,3,3,3,75.0,2.81,-0.68,4.64,-5.71,2.2,-0.6,-41.5,22.875,485.1875,0.38262939453125,0.70758056640625,0.3583984375,0.0235,-10.75,14.5625,-24.25,8.52,-2.88,moving,2
5.39,1665521.950729901,25,3,3,3,3,75.0,2.81,-0.68,4.64,-5.71,2.2,-0.6,-41.5,22.875,485.1875,0.38262939453125,0.70758056640625,0.3583984375,0.0235,-10.75,14.5625,-24.25,8.52,-2.88,moving,2
5.4,1665521.950729901,25,3,3,3,3,108.0,2.94,-0.42,4.95,-5.59,2.42,0.17,-49.75,25.375,487.4375,0.38580322265625,0.7047119140625,0.35772705078125,0.0235,-10.75,14.5625,-24.1875,8.54,-2.85,moving,2
5.4,1665521.966367596,25,3,3,3,3,134.0,2.88,-0.01,5.2,-5.67,2.8,1.33,-59.625,27.75,490.0,0.38970947265625,0.7015380859375,0.35638427734375,0.0235,-10.75,14.5625,-24.125,8.56,-2.82,moving,2
5.41,1665521.966367596,25,3,3,3,3,121.0,2.65,0.15,5.06,-5.91,2.95,2.43,-68.0625,29.3125,492.8125,0.39422607421875,0.69818115234375,0.35430908203125,0.0235,-10.75,14.5625,-24.0,8.57,-2.8,moving,2
5.42,1665521.995169435,25,3,3,3,3,81.0,2.42,0.24,4.65,-6.15,3.02,3.38,-69.6875,29.125,495.4375,0.3990478515625,0.69488525390625,0.35186767578125,0.0235,-10.75,14.5625,-24.0,8.58,-2.78,moving,2
5.43,1665521.995169435,25,3,3,3,3,-34.0,2.15,0.45,3.48,-6.43,3.24,4.31,-64.875,26.75,497.6875,0.40380859375,0.6920166015625,0.34912109375,0.0231,-12.0,15.75,-23.9375,8.58,-2.78,moving,2
5.44,1665522.010204266,25,3,3,3,3,-101.0,2.36,0.59,2.81,-6.22,3.39,5.7,-56.9375,22.375,499.1875,0.40838623046875,0.68988037109375,0.34588623046875,0.0231,-12.0,15.75,-23.875,8.58,-2.79,moving,2
5.45,1665522.010204266,25,3,3,3,3,-152.0,2.85,0.71,2.29,-5.71,3.54,7.57,-49.0,17.5625,499.9375,0.4129638671875,0.6885986328125,0.342041015625,0.0231,-12.0,15.75,-23.875,8.57,-2.83,moving,2
5.46,1665522.039822105,25,3,3,3,3,-196.0,3.63,0.78,1.85,-4.91,3.68,9.5,-40.8125,14.5625,499.75,0.4176025390625,0.68804931640625,0.337646484375,0.0231,-12.0,15.75,-23.875,8.55,-2.89,moving,2
5.47,1665522.039822105,25,3,3,3,3,-327.0,5.95,0.84,0.54,-2.57,3.82,11.03,-33.9375,13.3125,498.875,0.42230224609375,0.6881103515625,0.33282470703125,0.0231,-12.0,15.75,-23.8125,8.52,-2.97,moving,2
5.48,1665522.05440731,25,3,3,3,3,-429.0,7.21,0.62,-0.47,-1.28,3.69,12.07,-27.5,13.6875,497.3125,0.4271240234375,0.6885986328125,0.327880859375,0.0243,-13.75,13.5,-23.8125,8.49,-3.07,moving,2
5.49,1665522.05440731,25,3,3,3,3,-534.0,8.21,0.06,-1.54,-0.25,3.23,12.32,-21.375,14.5,495.25,0.431884765625,0.6893310546875,0.32305908203125,0.0243,-13.75,13.5,-23.75,8.46,-3.17,moving,2
5.5,1665522.069369427,25,3,3,3,3,-626.0,8.59,-1.03,-2.47,0.15,2.23,11.17,-20.125,14.9375,493.375,0.436279296875,0.68988037109375,0.3187255859375,0.0243,-13.75,13.5,-23.6875,8.43,-3.26,moving,2
5.51,1665522.069369427,25,3,3,3,3,-646.0,9.07,-4.54,-2.67,0.65,-1.23,8.13,-34.5625,16.0,493.0625,0.4403076171875,0.689208984375,0.3150634765625,0.0243,-13.75,13.5,-23.625,8.41,-3.31,moving,2
5.52,1665522.100213544,25,3,3,3,3,-631.0,9.57,-6.5,-2.5,1.15,-3.21,2.82,-79.6875,20.6875,496.625,0.44451904296875,0.685546875,0.311767578125,0.0243,-13.75,13.5,-23.75,8.42,-3.28,moving,2
5.53,1665522.100213544,25,3,3,3,3,-728.0,10.73,-9.91,-3.45,2.28,-6.73,-2.85,-122.75,28.4375,504.0625,0.44873046875,0.6787109375,0.30926513671875,0.0243,-12.25,9.5625,-23.9375,8.44,-3.17,moving,2
5.54,1665522.115261029,25,3,3,3,3,-884.0,14.22,-12.2,-4.99,5.73,-9.14,-5.23,-103.6875,27.5,510.875,0.4517822265625,0.6722412109375,0.308349609375,0.0243,-12.25,9.5625,-24.0,8.48,-3.06,moving,2
5.55,1665522.115261029,25,3,3,3,3,-758.0,20.66,-8.4,-3.73,12.17,-5.37,-1.47,-27.3125,8.5625,512.625,0.45257568359375,0.67047119140625,0.30816650390625,0.0243,-12.25,9.5625,-24.0,8.49,-3.02,moving,2
5.56,1665522.131102216,25,3,3,3,3,-567.0,20.9,-6.09,-1.82,12.43,-2.99,5.7,29.0,-14.0625,509.875,0.4525146484375,0.67327880859375,0.306640625,0.0243,-12.25,9.5625,-24.0625,8.46,-3.1,moving,2
5.57,1665522.131102216,25,3,3,3,3,-460.0,19.08,-3.8,-0.74,10.66,-0.59,8.28,46.5,-23.3125,505.5625,0.4521484375,0.67755126953125,0.30438232421875,0.0243,-12.25,9.5625,-24.125,8.42,-3.2,moving,2
5.58,1665522.160360842,25,3,3,3,3,-513.0,16.78,-2.81,-1.26,8.39,0.47,4.7,45.75,-20.5,502.1875,0.45098876953125,0.68115234375,0.3035888671875,0.0243,-12.25,5.0,-24.125,8.39,-3.28,moving,2
5.59,1665522.160360842,25,3,3,3,3,-641.0,13.23,-4.45,-2.54,4.84,-1.15,-1.32,44.5625,-15.6875,500.1875,0.44854736328125,0.68341064453125,0.30517578125,0.0243,-12.25,5.0,-24.125,8.38,-3.3,moving,2
5.6,1665522.174761273,25,3,3,3,3,-657.0,12.12,-5.76,-2.71,3.72,-2.48,-5.67,40.75,-13.125,499.5,0.44512939453125,0.6846923828125,0.30828857421875,0.0243,-12.25,5.0,-24.0625,8.39,-3.27,moving,2
5.61,1665522.174761273,25,3,3,3,3,-634.0,11.29,-6.25,-2.48,2.87,-3.01,-7.64,37.375,-14.1875,499.5,0.4412841796875,0.685546875,0.31201171875,0.0243,-12.25,5.0,-24.0625,8.41,-3.23,moving,2
5.62,1665522.190321372,25,3,3,3,3,-514.0,9.42,-4.37,-1.28,0.99,-1.17,-7.66,49.5,-19.0625,498.875,0.43670654296875,0.68707275390625,0.31597900390625,0.0243,-12.25,5.0,-24.0625,8.43,-3.19,moving,2
5.63,1665522.190321372,25,3,3,3,3,-435.0,8.46,-3.32,-0.5,0.03,-0.14,-5.63,64.9375,-24.125,496.9375,0.4320068359375,0.68975830078125,0.31951904296875,0.0254,-12.5625,6.5,-24.0625,8.43,-3.18,moving,2
5.64,1665522.22009066,25,3,3,3,3,-355.0,7.62,-2.62,0.3,-0.8,0.57,-3.61,68.0,-26.375,494.375,0.42755126953125,0.6929931640625,0.32232666015625,0.0254,-12.5625,6.5,-24.0625,8.42,-3.19,moving,2
5.65,1665522.22009066,25,3,3,3,3,-281.0,6.92,-2.13,1.04,-1.49,1.07,-3.23,65.5,-26.75,491.8125,0.4232177734375,0.6961669921875,0.3248291015625,0.0254,-12.5625,6.5,-24.125,8.42,-3.21,moving,2
5.66,1665522.225848757,25,3,3,3,3,-281.0,6.92,-2.13,1.04,-1.49,1.07,-3.23,65.5,-26.75,491.8125,0.4232177734375,0.6961669921875,0.3248291015625,0.0254,-12.5625,6.5,-24.125,8.42,-3.21,moving,2
5.66,1665522.225848757,25,3,3,3,3,-174.0,5.93,-1.66,2.11,-2.48,1.54,-4.17,60.375,-26.125,489.8125,0.4188232421875,0.69891357421875,0.32757568359375,0.0254,-12.5625,6.5,-24.125,8.41,-3.21,moving,2
5.67,1665522.251802452,25,3,3,3,3,-144.0,5.43,-1.62,2.42,-2.98,1.56,-5.76,54.6875,-25.5625,488.5,0.4141845703125,0.70111083984375,0.3306884765625,0.0254,-12.5625,6.5,-24.1875,8.42,-3.19,moving,2
5.68,1665522.251802452,25,3,3,3,3,-120.0,5.05,-1.6,2.67,-3.37,1.56,-7.62,50.25,-24.75,487.8125,0.40924072265625,0.70269775390625,0.33441162109375,0.024,-12.5625,9.5625,-24.25,8.43,-3.16,moving,2
5.69,1665522.265165367,25,3,3,3,3,-119.0,4.7,-1.67,2.69,-3.74,1.43,-9.07,48.75,-23.4375,487.5,0.40399169921875,0.703857421875,0.338623046875,0.024,-12.5625,9.5625,-24.25,8.44,-3.11,moving,2
5.7,1665522.265165367,25,3,3,3,3,-140.0,4.08,-1.87,2.48,-4.37,1.17,-9.98,49.125,-23.0625,487.375,0.3985595703125,0.70489501953125,0.34326171875,0.024,-12.5625,9.5625,-24.3125,8.46,-3.05,moving,2
5.71,1665522.280703412,25,3,3,3,3,-158.0,3.82,-1.94,2.32,-4.66,1.04,-10.56,50.5,-22.875,487.1875,0.39288330078125,0.70574951171875,0.34808349609375,0.024,-12.5625,9.5625,-24.375,8.48,-2.99,moving,2
5.72,1665522.280703412,25,3,3,3,3,-171.0,3.6,-1.91,2.2,-4.9,1.01,-10.66,53.4375,-23.375,486.875,0.38702392578125,0.70672607421875,0.35308837890625,0.024,-12.5625,9.5625,-24.4375,8.5,-2.92,moving,2
5.73,1665522.296669639,25,3,3,3,3,-175.0,3.23,-1.87,2.15,-5.28,1.0,-10.05,58.75,-25.0,486.125,0.38104248046875,0.70806884765625,0.35784912109375,0.0251,-12.25,12.5625,-24.4375,8.51,-2.87,moving,2
5.74,1665522.296669639,25,3,3,3,3,-149.0,2.89,-1.49,2.43,-5.63,1.33,-8.91,64.0625,-27.375,484.8125,0.37506103515625,0.7098388671875,0.3623046875,0.0251,-12.25,12.5625,-24.5,8.52,-2.83,moving,2
5.75,1665522.325195762,25,3,3,3,3,-118.0,2.78,-1.26,2.75,-5.74,1.55,-7.5,67.6875,-29.625,483.0625,0.369140625,0.71209716796875,0.3662109375,0.0251,-12.25,12.5625,-24.5625,8.52,-2.81,moving,2
5.76,1665522.325195762,25,3,3,3,3,-73.0,2.71,-0.94,3.21,-5.81,1.85,-5.88,68.875,-31.0,480.875,0.363525390625,0.71478271484375,0.369384765625,0.0251,-12.25,12.5625,-24.625,8.52,-2.8,moving,2
5.77,1665522.34278349,25,3,3,3,3,-29.0,2.8,-0.41,3.66,-5.71,2.39,-4.09,66.875,-30.75,478.4375,0.35833740234375,0.7176513671875,0.37188720703125,0.0251,-12.25,12.5625,-24.75,8.51,-2.81,moving,2
5.78,1665522.34278349,25,3,3,3,2,-46.0,2.92,-0.17,3.51,-5.58,2.66,-2.46,64.125,-28.4375,475.75,0.3538818359375,0.72064208984375,0.3736572265625,0.0232,-11.5,16.5,-24.8125,8.5,-2.83,moving,2
5.79,1665522.37106653,25,3,3,3,2,-83.0,3.21,0.08,3.14,-5.27,2.94,-0.91,60.75,-25.0625,472.8125,0.35009765625,0.7236328125,0.3748779296875,0.0232,-11.5,16.5,-24.8125,8.49,-2.86,moving,2
5.8,1665522.37106653,25,3,3,3,2,-127.0,3.88,0.16,2.7,-4.59,3.07,0.65,58.625,-21.5,469.625,0.34698486328125,0.726806640625,0.37554931640625,0.0232,-11.5,16.5,-24.875,8.47,-2.91,moving,2
5.81,1665522.38558419,25,3,3,3,2,-236.0,6.07,0.18,1.61,-2.37,3.15,1.85,56.6875,-18.0625,466.1875,0.34442138671875,0.72998046875,0.37579345703125,0.0232,-11.5,16.5,-24.8125,8.45,-2.97,moving,2
5.82,1665522.38558419,25,3,3,3,2,-303.0,7.68,-0.29,0.94,-0.75,2.73,2.42,52.4375,-14.3125,462.75,0.3424072265625,0.73297119140625,0.3758544921875,0.0232,-11.5,16.5,-24.8125,8.43,-3.03,moving,2
5.83,1665522.399557619,25,3,3,3,2,-370.0,9.34,-1.19,0.26,0.92,1.87,2.12,33.5625,-10.375,460.5,0.34112548828125,0.73504638671875,0.3756103515625,0.0229,-10.6875,16.5,-24.75,8.42,-3.07,moving,2
5.84,1665522.399557619,25,3,3,3,2,-410.0,11.09,-3.42,-0.12,2.67,-0.35,0.47,-7.5625,-5.0625,461.0625,0.3411865234375,0.7349853515625,0.375,0.0229,-10.6875,16.5,-24.875,8.41,-3.07,moving,2
5.85,1665522.430204307,25,3,3,3,2,-515.0,14.77,-11.74,-1.14,6.34,-8.75,-2.69,-74.3125,2.625,466.375,0.3431396484375,0.73138427734375,0.37396240234375,0.0229,-10.6875,16.5,-25.0625,8.43,-2.99,moving,2
5.86,1665522.430204307,25,3,3,3,2,-792.0,16.63,-14.61,-3.87,8.17,-11.73,-5.06,-98.875,13.0625,473.3125,0.345947265625,0.72601318359375,0.37353515625,0.0229,-10.6875,16.5,-25.25,8.45,-2.87,moving,2
5.87,1665522.444072268,25,3,3,3,2,-972.0,19.55,-14.13,-5.67,11.08,-11.31,-2.28,-56.5625,15.5,476.9375,0.34820556640625,0.7227783203125,0.3734130859375,0.0229,-10.6875,16.5,-25.3125,8.47,-2.81,moving,2
5.88,1665522.444072268,25,3,3,3,2,-1016.0,22.8,-10.43,-6.12,14.34,-7.57,5.14,-3.625,10.875,475.75,0.35028076171875,0.723388671875,0.3717041015625,0.0225,-10.6875,15.75,-25.1875,8.46,-2.86,moving,2
5.89,1665522.460158816,25,3,3,3,2,-1083.0,18.87,-2.24,-6.81,10.43,0.72,9.45,27.625,5.5,471.9375,0.3521728515625,0.7261962890625,0.3690185546875,0.0225,-10.6875,15.75,-25.0625,8.43,-2.96,moving,2
5.9,1665522.460158816,25,3,3,3,2,-934.0,15.52,-1.22,-5.33,7.11,1.83,8.13,21.0625,-4.125,469.0625,0.353271484375,0.72882080078125,0.36627197265625,0.0225,-10.6875,15.75,-25.0625,8.4,-3.05,moving,2
5.91,1665522.474519167,25,3,3,3,2,-934.0,15.52,-1.22,-5.33,7.11,1.83,8.13,21.0625,-4.125,469.0625,0.353271484375,0.72882080078125,0.36627197265625,0.0225,-10.6875,15.75,-25.0625,8.4,-3.05,moving,2
5.91,1665522.474519167,25,3,3,3,2,-821.0,13.82,-1.74,-4.18,5.43,1.34,4.23,-12.25,-6.4375,469.25,0.35430908203125,0.7293701171875,0.36395263671875,0.0225,-10.6875,15.75,-25.125,8.39,-3.08,moving,2
5.92,1665522.489687339,25,3,3,3,2,-643.0,11.87,-6.58,-2.38,3.48,-3.52,0.65,-37.125,-2.75,471.625,0.35546875,0.72808837890625,0.3624267578125,0.0225,-10.6875,15.75,-25.3125,8.38,-3.06,moving,2
5.93,1665522.489687339,25,3,3,3,2,-619.0,11.88,-8.27,-2.11,3.49,-5.26,-0.9,-70.0625,5.6875,476.1875,0.35784912109375,0.72491455078125,0.36083984375,0.0225,-10.6875,12.25,-25.4375,8.39,-3.01,moving,2
5.94,1665522.520228884,25,3,3,3,2,-628.0,11.67,-7.26,-2.18,3.26,-4.31,-1.78,-68.0625,13.625,480.5,0.3603515625,0.72137451171875,0.3599853515625,0.0225,-10.6875,12.25,-25.5625,8.4,-2.94,moving,2
5.95,1665522.520228884,25,3,3,3,2,-606.0,11.14,-5.55,-1.97,2.72,-2.63,0.42,-38.3125,16.25,482.3125,0.36273193359375,0.7193603515625,0.3592529296875,0.0225,-10.6875,12.25,-25.5,8.42,-2.92,moving,2
5.96,1665522.534887494,25,3,3,3,2,-512.0,9.44,-3.54,-1.04,1.02,-0.58,5.94,-26.625,17.75,482.25,0.3662109375,0.7188720703125,0.3568115234375,0.0225,-10.6875,12.25,-25.4375,8.41,-2.95,moving,2
5.97,1665522.534887494,25,3,3,3,2,-501.0,8.52,-3.0,-0.95,0.12,0.01,8.11,-21.8125,20.1875,481.3125,0.3702392578125,0.71893310546875,0.353759765625,0.0225,-10.6875,12.25,-25.3125,8.4,-3.01,moving,2
5.98,1665522.549954389,25,3,3,3,2,-480.0,7.61,-2.52,-0.76,-0.78,0.53,6.65,-23.5625,22.5625,480.75,0.37408447265625,0.718505859375,0.351318359375,0.0232,-11.0625,12.25,-25.1875,8.39,-3.06,moving,2
5.99,1665522.549954389,25,3,3,3,2,-461.0,6.89,-2.35,-0.59,-1.5,0.72,4.65,-28.5625,24.1875,480.8125,0.377685546875,0.7174072265625,0.34954833984375,0.0232,-11.0625,12.25,-25.0625,8.39,-3.08,moving,2
6.0,1665522.564066856,25,3,3,3,2,-406.0,5.46,-1.86,-0.06,-2.93,1.22,3.16,-31.125,24.125,481.375,0.38092041015625,0.7159423828125,0.3482666015625,0.0232,-11.0625,12.25,-24.9375,8.4,-3.09,moving,2
6.01,1665522.564066856,25,3,3,3,2,-375.0,4.94,-1.62,0.23,-3.46,1.46,2.25,-32.1875,23.0625,482.25,0.3839111328125,0.71429443359375,0.3472900390625,0.0232,-11.0625,12.25,-24.875,8.41,-3.09,moving,2
6.02,1665522.595228965,25,3,3,3,2,-329.0,4.59,-1.38,0.67,-3.82,1.7,1.92,-34.0625,21.0,483.375,0.38677978515625,0.71258544921875,0.34625244140625,0.0232,-11.0625,12.25,-24.8125,8.41,-3.08,moving,2
6.03,1665522.595228965,25,3,3,3,2,-281.0,4.33,-1.06,1.14,-4.08,2.0,1.96,-37.0625,18.1875,484.6875,0.3895263671875,0.7108154296875,0.344970703125,0.0232,-11.5,12.5625,-24.75,8.42,-3.07,moving,2
6.04,1665522.611456667,25,3,3,3,2,-206.0,3.79,-0.56,1.89,-4.63,2.5,2.18,-39.125,16.25,486.1875,0.39227294921875,0.70904541015625,0.34344482421875,0.0232,-11.5,12.5625,-24.75,8.42,-3.07,moving,2
6.05,1665522.611456667,25,3,3,3,2,-183.0,3.61,-0.27,2.12,-4.81,2.78,2.57,-38.25,15.125,487.625,0.39501953125,0.7073974609375,0.34173583984375,0.0232,-11.5,12.5625,-24.6875,8.43,-3.06,moving,2
6.06,1665522.625344444,25,3,3,3,2,-161.0,3.27,-0.06,2.34,-5.15,3.0,2.99,-37.875,13.5625,488.9375,0.39776611328125,0.7059326171875,0.33984375,0.0232,-11.5,12.5625,-24.6875,8.43,-3.07,moving,2
6.07,1665522.625344444,25,3,3,3,2,-132.0,2.8,0.12,2.63,-5.62,3.2,3.51,-39.125,12.4375,490.25,0.400634765625,0.70452880859375,0.337646484375,0.0232,-11.5,12.5625,-24.75,8.42,-3.07,moving,2
6.08,1665522.655429079,25,3,3,3,2,-69.0,2.32,0.44,3.27,-6.09,3.52,4.09,-42.8125,12.0625,491.625,0.4036865234375,0.70306396484375,0.3350830078125,0.024,-11.0625,13.0625,-24.75,8.42,-3.08,moving,2
6.09,1665522.655429079,25,3,3,3,2,-30.0,2.2,0.56,3.66,-6.2,3.65,4.47,-48.75,11.8125,493.3125,0.406982421875,0.701416015625,0.3321533203125,0.024,-11.0625,13.0625,-24.8125,8.41,-3.09,moving,2
6.1,1665522.669496381,25,3,3,3,2,-5.0,2.14,0.65,3.93,-6.26,3.75,4.89,-52.6875,11.9375,495.125,0.4105224609375,0.69964599609375,0.328857421875,0.024,-11.0625,13.0625,-24.875,8.4,-3.09,moving,2
6.11,1665522.669496381,25,3,3,3,2,2.0,2.29,0.63,4.02,-6.09,3.73,5.14,-54.75,12.3125,497.0,0.4141845703125,0.69781494140625,0.325439453125,0.024,-11.0625,13.0625,-24.9375,8.39,-3.1,moving,2
6.12,1665522.69944918,25,3,3,3,2,-32.0,2.64,0.62,3.68,-5.74,3.73,5.13,-52.8125,12.8125,498.75,0.4178466796875,0.69598388671875,0.3221435546875,0.024,-11.0625,13.0625,-25.0,8.38,-3.11,moving,2
6.13,1665522.69944918,25,3,3,3,2,-102.0,3.45,0.65,2.99,-4.92,3.78,5.14,-48.0,12.9375,500.1875,0.42132568359375,0.69439697265625,0.3189697265625,0.0243,-12.5,12.25,-25.0625,8.38,-3.13,moving,2
6.14,1665522.716049603,25,3,3,3,2,-181.0,4.49,0.62,2.2,-3.87,3.77,5.39,-40.4375,13.875,501.0,0.42474365234375,0.69305419921875,0.3160400390625,0.0243,-12.5,12.25,-25.0625,8.37,-3.15,moving,2
6.15,1665522.716049603,25,3,3,3,2,-367.0,7.1,0.09,0.33,-1.25,3.28,6.07,-29.625,15.5,500.9375,0.4281005859375,0.6922607421875,0.31329345703125,0.0243,-12.5,12.25,-25.0625,8.36,-3.18,moving,2
6.16,1665522.730361249,25,3,3,3,2,-479.0,8.5,-0.45,-0.8,0.15,2.78,6.69,-19.5625,17.8125,500.0625,0.4315185546875,0.69189453125,0.310791015625,0.0243,-12.5,12.25,-24.9375,8.35,-3.23,moving,2
6.17,1665522.730361249,25,3,3,3,2,-479.0,8.5,-0.45,-0.8,0.15,2.78,6.69,-19.5625,17.8125,500.0625,0.4315185546875,0.69189453125,0.310791015625,0.0243,-12.5,12.25,-24.9375,8.35,-3.23,moving,2
6.17,1665522.744684695,25,3,3,3,2,-594.0,9.62,-1.64,-1.96,1.28,1.63,6.24,-16.125,19.1875,499.0625,0.43475341796875,0.6915283203125,0.30865478515625,0.0243,-12.5,12.25,-24.8125,8.34,-3.27,moving,2
6.18,1665522.744684695,25,3,3,3,2,-635.0,10.63,-3.9,-2.39,2.29,-0.61,4.04,-35.125,20.375,499.6875,0.43798828125,0.68994140625,0.30670166015625,0.0243,-12.1875,9.1875,-24.75,8.34,-3.29,moving,2
6.19,1665522.759642051,25,3,3,3,2,-637.0,12.5,-10.71,-2.38,4.14,-7.48,-0.52,-91.4375,24.5625,504.75,0.4417724609375,0.68499755859375,0.304443359375,0.0243,-12.1875,9.1875,-24.875,8.36,-3.22,moving,2
6.2,1665522.759642051,25,3,3,3,2,-801.0,14.16,-14.74,-4.0,5.76,-11.65,-5.31,-128.8125,32.375,513.0625,0.4456787109375,0.67724609375,0.30279541015625,0.0243,-12.1875,9.1875,-25.0,8.4,-3.08,moving,2
6.21,1665522.789623456,25,3,3,3,2,-905.0,18.16,-14.78,-5.04,9.72,-11.81,-5.44,-87.25,29.5,518.875,0.44818115234375,0.67138671875,0.302734375,0.0243,-12.1875,9.1875,-25.0625,8.44,-2.97,moving,2
6.22,1665522.789623456,25,3,3,3,2,-828.0,21.81,-10.16,-4.27,13.37,-7.17,2.29,-7.3125,9.625,518.4375,0.4495849609375,0.67108154296875,0.302001953125,0.0243,-12.1875,9.1875,-25.0,8.43,-2.98,moving,2
6.23,1665522.80465552,25,3,3,3,2,-440.0,19.81,-2.81,-0.41,11.41,0.28,8.3,46.875,-12.9375,513.875,0.44989013671875,0.67498779296875,0.30023193359375,0.0254,-12.5,2.5625,-24.9375,8.4,-3.09,moving,2
6.24,1665522.80465552,25,3,3,3,2,-459.0,16.51,-1.93,-0.59,8.15,1.26,7.59,46.125,-19.5,509.6875,0.4495849609375,0.67901611328125,0.29840087890625,0.0254,-12.5,2.5625,-24.9375,8.36,-3.2,moving,2
6.25,1665522.81980115,25,3,3,3,2,-537.0,14.5,-2.73,-1.37,6.16,0.5,2.23,28.8125,-16.6875,507.875,0.448486328125,0.6812744140625,0.2979736328125,0.0254,-12.5,2.5625,-25.0,8.34,-3.24,moving,2
6.26,1665522.81980115,25,3,3,3,2,-614.0,12.83,-8.01,-2.13,4.49,-4.78,-2.75,14.3125,-10.125,507.9375,0.44671630859375,0.68182373046875,0.29913330078125,0.0254,-12.5,2.5625,-25.0625,8.34,-3.22,moving,2
6.27,1665522.850459475,25,3,3,3,2,-630.0,12.45,-9.22,-2.27,4.09,-6.04,-4.84,-12.125,-4.625,510.0,0.44549560546875,0.68072509765625,0.30023193359375,0.0254,-12.5,2.5625,-25.125,8.36,-3.17,moving,2
6.28,1665522.850459475,25,3,3,3,2,-642.0,11.63,-7.98,-2.38,3.26,-4.84,-4.39,0.0625,-6.25,511.25,0.44390869140625,0.68023681640625,0.30157470703125,0.0251,-12.0625,4.5625,-25.1875,8.37,-3.13,moving,2
6.29,1665522.866242922,25,3,3,3,2,-587.0,10.83,-6.01,-1.83,2.46,-2.85,-0.97,36.5625,-13.625,509.625,0.44189453125,0.68218994140625,0.30279541015625,0.0251,-12.0625,4.5625,-25.1875,8.36,-3.15,moving,2
6.3,1665522.866242922,25,3,3,3,2,-453.0,8.67,-3.48,-0.49,0.33,-0.25,3.94,54.375,-18.0625,505.8125,0.4404296875,0.6859130859375,0.3026123046875,0.0251,-12.0625,4.5625,-25.1875,8.33,-3.22,moving,2
6.31,1665522.879900067,25,3,3,3,2,-415.0,7.43,-2.64,-0.13,-0.87,0.67,5.31,68.375,-19.8125,500.8125,0.4388427734375,0.69049072265625,0.3023681640625,0.0251,-12.0625,4.5625,-25.125,8.3,-3.32,moving,2
6.32,1665522.879900067,25,3,3,3,2,-386.0,6.56,-2.11,0.13,-1.7,1.28,3.39,71.4375,-19.375,496.0625,0.43670654296875,0.69482421875,0.30303955078125,0.0251,-12.0625,4.5625,-25.0,8.27,-3.4,moving,2
6.33,1665522.910278974,25,3,3,3,3,-372.0,5.99,-1.74,0.27,-2.27,1.7,0.32,67.1875,-18.4375,492.3125,0.43389892578125,0.69842529296875,0.3046875,0.0248,-11.75,6.75,-24.9375,8.26,-3.45,moving,2
6.34,1665522.910278974,25,3,3,3,3,-335.0,5.02,-1.36,0.62,-3.23,2.11,-2.71,62.0625,-17.125,489.5625,0.43048095703125,0.701171875,0.30731201171875,0.0248,-11.75,6.75,-24.8125,8.26,-3.47,moving,2
6.35,1665522.925447716,25,3,3,3,3,-310.0,4.99,-1.33,0.86,-3.27,2.13,-4.74,56.0,-15.875,487.625,0.4267578125,0.70330810546875,0.310546875,0.0248,-11.75,6.75,-24.75,8.27,-3.46,moving,2
6.36,1665522.925447716,25,3,3,3,3,-291.0,5.2,-1.35,1.04,-3.07,2.09,-5.68,50.1875,-14.375,486.1875,0.42303466796875,0.7049560546875,0.31402587890625,0.0248,-11.75,6.75,-24.6875,8.28,-3.45,moving,2
6.37,1665522.939718142,25,3,3,3,3,-260.0,5.44,-1.52,1.34,-2.84,1.9,-6.21,48.5,-13.75,485.0,0.41925048828125,0.7064208984375,0.317626953125,0.0248,-11.75,6.75,-24.6875,8.29,-3.42,moving,2
6.38,1665522.939718142,25,3,3,3,3,-185.0,5.2,-2.05,2.08,-3.1,1.34,-6.55,52.125,-14.125,483.625,0.41522216796875,0.70794677734375,0.32147216796875,0.0244,-11.0,10.6875,-24.5625,8.3,-3.4,moving,2
6.39,1665522.970159467,25,3,3,3,3,-152.0,4.57,-2.24,2.39,-3.74,1.13,-6.78,59.75,-16.0,481.875,0.41082763671875,0.70977783203125,0.3255615234375,0.0244,-11.0,10.6875,-24.5,8.32,-3.38,moving,2
6.4,1665522.970159467,25,3,3,3,3,-130.0,3.78,-2.25,2.6,-4.55,1.11,-6.91,70.125,-18.6875,479.5,0.4058837890625,0.71209716796875,0.3299560546875,0.0244,-11.0,10.6875,-24.4375,8.33,-3.37,moving,2
6.41,1665522.985102582,25,3,3,3,3,-113.0,2.96,-1.96,2.76,-5.37,1.39,-6.79,80.875,-21.6875,476.5,0.40045166015625,0.71490478515625,0.3345947265625,0.0244,-11.0,10.6875,-24.3125,8.34,-3.36,moving,2
6.42,1665522.985102582,25,3,3,3,3,-120.0,1.62,-1.11,2.67,-6.73,2.24,-6.56,89.4375,-24.4375,473.0,0.3946533203125,0.71820068359375,0.3392333984375,0.0244,-11.0,10.6875,-24.25,8.35,-3.36,moving,2
6.43,1665523.000137657,25,3,3,3,3,-120.0,1.62,-1.11,2.67,-6.73,2.24,-6.56,89.4375,-24.4375,473.0,0.3946533203125,0.71820068359375,0.3392333984375,0.0244,-11.0,10.6875,-24.25,8.35,-3.36,moving,2
6.44,1665523.000137657,25,3,3,3,3,-130.0,1.27,-0.67,2.55,-7.08,2.69,-6.28,94.1875,-27.875,469.125,0.3885498046875,0.72174072265625,0.34381103515625,0.0237,-12.0625,13.75,-24.125,8.35,-3.37,moving,2
6.44,1665523.014759768,25,3,3,3,3,-141.0,1.13,-0.25,2.43,-7.22,3.11,-5.98,93.125,-30.375,465.375,0.38232421875,0.725341796875,0.34808349609375,0.0237,-12.0625,13.75,-24.0625,8.35,-3.37,moving,2
6.45,1665523.014759768,25,3,3,3,3,-111.0,2.28,0.46,2.73,-6.06,3.85,-5.33,85.875,-32.5,461.9375,0.37628173828125,0.72882080078125,0.35174560546875,0.0237,-12.0625,13.75,-24.0625,8.35,-3.38,moving,2
6.46,1665523.030638756,25,3,3,3,3,-100.0,3.33,0.81,2.84,-5.01,4.21,-4.21,74.1875,-32.75,459.0,0.37091064453125,0.73199462890625,0.35455322265625,0.0237,-12.0625,13.75,-24.0625,8.35,-3.4,moving,2
6.47,1665523.030638756,25,3,3,3,3,-101.0,4.61,1.12,2.85,-3.72,4.54,-2.51,62.1875,-29.6875,456.375,0.366455078125,0.73486328125,0.3564453125,0.0237,-12.0625,13.75,-24.125,8.34,-3.41,moving,2
6.48,1665523.061475263,25,3,3,3,3,-126.0,6.07,1.23,2.59,-2.24,4.69,-0.52,56.4375,-24.125,453.5,0.363037109375,0.73773193359375,0.35748291015625,0.023,-11.875,16.5,-24.125,8.32,-3.45,moving,2
6.49,1665523.061475263,25,3,3,3,3,-130.0,9.04,0.77,2.55,0.73,4.27,1.1,54.625,-16.5,450.25,0.36053466796875,0.7406005859375,0.358154296875,0.023,-11.875,16.5,-24.0625,8.31,-3.49,moving,2
6.5,1665523.075839439,25,3,3,3,3,-81.0,10.27,-0.66,3.03,1.97,2.88,2.16,42.4375,-8.625,447.25,0.359130859375,0.74285888671875,0.3582763671875,0.023,-11.875,16.5,-24.0,8.29,-3.54,moving,2
6.51,1665523.075839439,25,3,3,3,3,-80.0,11.08,-4.47,3.03,2.79,-0.9,1.93,7.5,-1.5625,446.4375,0.3592529296875,0.74359130859375,0.357666015625,0.023,-11.875,16.5,-23.9375,8.28,-3.56,moving,2
6.52,1665523.106129478,25,3,3,3,3,-4.0,11.58,-10.39,3.83,3.28,-6.9,-1.91,-90.8125,9.0,452.5,0.36224365234375,0.73944091796875,0.35595703125,0.023,-11.875,16.5,-24.25,8.3,-3.49,moving,2
6.53,1665523.106129478,25,3,3,3,2,-738.0,14.63,-15.5,-3.45,6.28,-12.17,-7.74,-135.75,20.8125,462.375,0.36590576171875,0.73199462890625,0.3555908203125,0.0223,-11.0625,16.875,-24.5625,8.34,-3.32,moving,2
6.54,1665523.111410199,25,3,3,3,2,-838.0,17.05,-12.38,-4.44,8.66,-9.17,-8.81,-56.375,21.125,467.125,0.3668212890625,0.72735595703125,0.35809326171875,0.0223,-11.0625,16.875,-24.5625,8.39,-3.2,moving,2
6.56,1665523.111410199,25,3,3,3,2,-829.0,18.39,-7.69,-4.38,10.01,-4.45,3.44,7.25,9.75,465.625,0.36810302734375,0.72802734375,0.35736083984375,0.0223,-11.0625,16.875,-24.4375,8.38,-3.24,moving,2
6.57,1665523.135013267,25,3,3,3,2,-830.0,17.23,-3.99,-4.41,8.9,-0.58,14.9,45.8125,-2.625,459.625,0.37017822265625,0.7327880859375,0.35284423828125,0.0223,-11.0625,16.875,-24.25,8.33,-3.41,moving,2
6.58,1665523.135013267,25,3,3,3,2,-744.0,11.65,0.23,-3.57,3.38,3.81,14.68,45.625,-6.25,453.8125,0.3719482421875,0.73760986328125,0.34820556640625,0.0223,-11.0625,16.875,-24.1875,8.26,-3.57,moving,2
6.58,1665523.151132693,25,3,3,3,2,-646.0,10.31,0.23,-2.59,2.07,3.87,7.37,4.0625,-3.875,452.125,0.37335205078125,0.7392578125,0.34521484375,0.023,-11.5,14.5625,-24.1875,8.23,-3.64,moving,2
6.59,1665523.151132693,25,3,3,3,2,-582.0,9.76,-1.02,-1.93,1.53,2.6,0.31,-33.375,-0.625,454.25,0.3743896484375,0.738037109375,0.343994140625,0.023,-11.5,14.5625,-24.3125,8.23,-3.62,moving,2
6.6,1665523.181199384,25,3,3,3,2,-428.0,9.64,-4.43,-0.36,1.38,-0.88,-4.07,-51.625,2.1875,458.4375,0.3751220703125,0.73516845703125,0.343994140625,0.023,-11.5,14.5625,-24.5,8.25,-3.55,moving,2
6.61,1665523.181199384,25,3,3,3,2,-461.0,9.71,-6.07,-0.66,1.43,-2.62,-6.27,-66.125,5.9375,463.875,0.3759765625,0.731201171875,0.3446044921875,0.023,-11.5,14.5625,-24.6875,8.28,-3.45,moving,2
6.64,1665523.210883466,25,3,3,3,2,-522.0,8.88,-6.03,-1.22,0.55,-2.77,-4.88,-54.5,6.0625,474.0625,0.3778076171875,0.7235107421875,0.34564208984375,0.022,-11.0625,13.0625,-25.0,8.33,-3.25,moving,2
6.65,1665523.210883466,25,3,3,3,2,-468.0,7.63,-3.61,-0.66,-0.7,-0.37,-0.34,-24.8125,1.875,475.6875,0.37860107421875,0.72235107421875,0.34503173828125,0.022,-11.0625,13.0625,-25.0625,8.33,-3.23,moving,2
6.66,1665523.226816205,25,3,3,3,2,-451.0,7.03,-2.72,-0.49,-1.28,0.54,4.03,-0.1875,-0.6875,474.875,0.37957763671875,0.72314453125,0.34344482421875,0.022,-11.0625,13.0625,-25.125,8.32,-3.27,moving,2
6.66,1665523.226816205,25,3,3,3,2,-440.0,6.74,-2.27,-0.39,-1.55,1.05,5.3,10.4375,-0.75,473.0625,0.38055419921875,0.724609375,0.3416748046875,0.022,-11.0625,13.0625,-25.0625,8.3,-3.33,moving,2
6.67,1665523.239700279,25,3,3,3,2,-435.0,6.47,-2.3,-0.34,-1.81,1.06,3.77,10.25,0.1875,471.625,0.38116455078125,0.7257080078125,0.34051513671875,0.022,-11.0625,13.0625,-25.0,8.28,-3.37,moving,2
6.68,1665523.239700279,25,3,3,3,2,-417.0,6.29,-2.77,-0.17,-1.99,0.61,1.5,5.6875,0.4375,470.9375,0.38140869140625,0.7261962890625,0.340087890625,0.0233,-11.0625,14.1875,-25.0,8.28,-3.39,moving,2
6.69,1665523.271256309,25,3,3,3,2,-401.0,6.45,-3.16,-0.01,-1.83,0.22,-0.15,-0.5,0.0,470.9375,0.38134765625,0.7261962890625,0.34014892578125,0.0233,-11.0625,14.1875,-25.0,8.28,-3.38,moving,2
6.7,1665523.271256309,25,3,3,3,2,-384.0,6.6,-3.39,0.16,-1.67,-0.01,-0.9,-4.1875,-1.5625,471.4375,0.38116455078125,0.72589111328125,0.34033203125,0.0233,-11.0625,14.1875,-25.0625,8.28,-3.37,moving,2
6.71,1665523.276657433,25,3,3,3,2,-384.0,6.6,-3.39,0.16,-1.67,-0.01,-0.9,-4.1875,-1.5625,471.4375,0.38116455078125,0.72589111328125,0.34033203125,0.0233,-11.0625,14.1875,-25.0625,8.28,-3.37,moving,2
6.72,1665523.276657433,25,3,3,3,2,-376.0,6.79,-3.32,0.24,-1.49,0.03,-0.59,-4.9375,-3.5,472.0,0.38092041015625,0.7257080078125,0.34027099609375,0.0233,-11.0625,14.1875,-25.0625,8.28,-3.36,moving,2
6.73,1665523.300845543,25,3,3,3,2,-389.0,7.24,-2.75,0.13,-1.03,0.61,0.66,-3.375,-5.8125,472.25,0.380859375,0.72589111328125,0.33966064453125,0.0233,-11.0625,14.1875,-25.125,8.28,-3.37,moving,2
6.74,1665523.300845543,25,3,3,3,2,-409.0,7.44,-2.58,-0.04,-0.82,0.8,1.89,-1.3125,-7.9375,472.1875,0.380859375,0.7264404296875,0.3385009765625,0.0244,-11.5,13.5,-25.25,8.26,-3.38,moving,2
6.74,1665523.314869754,25,3,3,3,2,-431.0,7.61,-2.35,-0.25,-0.63,1.05,2.75,1.1875,-9.625,471.8125,0.38092041015625,0.72735595703125,0.33709716796875,0.0244,-11.5,13.5,-25.3125,8.25,-3.41,moving,2
6.75,1665523.314869754,25,3,3,3,2,-476.0,7.87,-2.46,-0.69,-0.35,0.97,2.92,-0.1875,-10.6875,471.5,0.3809814453125,0.72821044921875,0.33551025390625,0.0244,-11.5,13.5,-25.375,8.23,-3.44,moving,2
6.76,1665523.331103722,25,3,3,3,2,-489.0,8.02,-2.72,-0.8,-0.19,0.73,2.18,-3.1875,-11.25,471.5625,0.380859375,0.7288818359375,0.33404541015625,0.0244,-11.5,13.5,-25.5,8.21,-3.45,moving,2
6.77,1665523.331103722,25,3,3,3,2,-496.0,8.28,-3.05,-0.85,0.08,0.41,1.22,-8.0,-11.4375,472.1875,0.38067626953125,0.7291259765625,0.33282470703125,0.0244,-11.5,13.5,-25.625,8.2,-3.46,moving,2
6.78,1665523.360739586,25,3,3,3,2,-495.0,8.5,-3.41,-0.82,0.31,0.04,0.37,-13.0625,-11.3125,473.3125,0.38043212890625,0.72906494140625,0.331787109375,0.0233,-11.5,14.5625,-25.8125,8.19,-3.45,moving,2
6.8,1665523.360739586,25,3,3,3,2,-484.0,8.69,-3.94,-0.68,0.51,-0.5,-0.05,-14.4375,-11.0,474.5625,0.380126953125,0.72882080078125,0.33087158203125,0.0233,-11.5,14.5625,-25.9375,8.18,-3.44,moving,2
6.81,1665523.376279259,25,3,3,3,2,-468.0,8.63,-3.9,-0.5,0.46,-0.46,0.05,-11.625,-10.9375,475.6875,0.3797607421875,0.728759765625,0.330078125,0.0233,-11.5,14.5625,-26.125,8.17,-3.43,moving,2
6.82,1665523.376279259,25,3,3,3,2,-443.0,8.42,-3.65,-0.23,0.25,-0.22,0.37,-5.6875,-10.6875,476.25,0.37933349609375,0.72894287109375,0.32928466796875,0.0233,-11.5,14.5625,-26.1875,8.16,-3.43,moving,2
6.83,1665523.389747724,25,3,3,3,2,-422.0,8.3,-3.42,-0.01,0.14,0.02,0.71,-1.25,-9.6875,476.5,0.37896728515625,0.72930908203125,0.32855224609375,0.0233,-11.5,14.5625,-26.3125,8.15,-3.44,moving,2
6.83,1665523.389747724,25,3,3,3,2,-410.0,8.23,-3.31,0.11,0.08,0.13,0.68,0.8125,-7.3125,476.3125,0.378173828125,0.72998046875,0.32830810546875,0.0237,-10.6875,11.0625,-26.375,8.15,-3.44,moving,2
6.84,1665523.420990847,25,3,3,3,2,-399.0,8.14,-3.42,0.23,0.0,0.02,0.52,0.125,-4.75,476.3125,0.37799072265625,0.730224609375,0.32794189453125,0.0237,-10.6875,11.0625,-26.4375,8.14,-3.45,moving,2
6.85,1665523.420990847,25,3,3,3,2,-394.0,8.09,-3.6,0.28,-0.04,-0.14,0.5,-0.625,-2.5,476.3125,0.37799072265625,0.7303466796875,0.32757568359375,0.0237,-10.6875,11.0625,-26.4375,8.14,-3.45,moving,2
6.86,1665523.434986493,25,3,3,3,2,-391.0,8.09,-3.73,0.32,-0.04,-0.26,0.64,-1.25,-0.5,476.25,0.378173828125,0.73046875,0.3272705078125,0.0237,-10.6875,11.0625,-26.4375,8.13,-3.46,moving,2
6.88,1665523.434986493,25,3,3,3,2,-389.0,8.08,-3.87,0.33,-0.05,-0.4,1.0,-2.0,1.125,476.1875,0.3785400390625,0.73052978515625,0.32684326171875,0.0237,-10.6875,11.0625,-26.4375,8.13,-3.47,moving,2
6.89,1665523.449945152,25,3,3,3,2,-385.0,8.03,-3.89,0.37,-0.09,-0.41,1.53,-3.25,2.1875,475.375,0.3778076171875,0.73126220703125,0.32708740234375,0.023,-10.6875,11.5,-26.4375,8.13,-3.48,moving,2
6.9,1665523.449945152,25,3,3,3,2,-384.0,7.96,-3.85,0.38,-0.16,-0.35,2.05,-4.5,2.75,475.125,0.37860107421875,0.73138427734375,0.32623291015625,0.023,-10.6875,11.5,-26.4375,8.12,-3.49,stop,2
6.91,1665523.480633914,25,3,3,3,2,-380.0,7.85,-3.77,0.42,-0.26,-0.26,2.32,-5.5625,3.4375,474.9375,0.37957763671875,0.7314453125,0.32525634765625,0.023,-10.6875,11.5,-26.4375,8.11,-3.51,stop,2
6.91,1665523.480633914,25,3,3,3,2,-376.0,7.68,-3.52,0.46,-0.43,0.0,2.36,-6.375,3.8125,474.6875,0.380615234375,0.73150634765625,0.32427978515625,0.023,-10.6875,11.5,-26.4375,8.11,-3.52,stop,2
6.92,1665523.49650045,25,3,3,3,2,-382.0,7.64,-3.4,0.4,-0.46,0.13,2.16,-6.9375,4.25,474.5625,0.38165283203125,0.7314453125,0.3233642578125,0.023,-10.6875,11.5,-26.375,8.1,-3.54,stop,2
6.93,1665523.49650045,25,3,3,3,2,-388.0,7.61,-3.34,0.34,-0.48,0.2,1.87,-7.1875,4.875,473.875,0.38116455078125,0.7320556640625,0.323486328125,0.0237,-10.6875,11.875,-26.375,8.1,-3.55,stop,2
6.95,1665523.509255252,25,3,3,3,2,-392.0,7.53,-3.35,0.3,-0.56,0.2,1.6,-7.5625,5.5625,473.8125,0.38214111328125,0.73187255859375,0.32281494140625,0.0237,-10.6875,11.875,-26.375,8.1,-3.56,stop,2
6.96,1665523.509255252,25,3,3,3,2,-404.0,7.46,-3.31,0.17,-0.63,0.25,1.33,-7.125,5.75,473.875,0.383056640625,0.73162841796875,0.322265625,0.0237,-10.6875,11.875,-26.3125,8.1,-3.56,stop,2
6.97,1665523.539419151,25,3,3,3,2,-418.0,7.52,-3.28,0.03,-0.57,0.29,1.02,-5.875,6.125,473.8125,0.38385009765625,0.73138427734375,0.3218994140625,0.0237,-10.6875,11.875,-26.3125,8.1,-3.57,stop,2
6.98,1665523.539419151,25,3,3,3,2,-432.0,7.63,-3.31,-0.12,-0.47,0.26,0.78,-4.625,6.1875,473.8125,0.38458251953125,0.7310791015625,0.32171630859375,0.0237,-10.6875,11.875,-26.25,8.1,-3.57,stop,2
6.99,1665523.554969526,25,3,3,3,3,-444.0,7.81,-3.34,-0.24,-0.29,0.23,0.66,-3.875,6.375,473.625,0.38507080078125,0.73095703125,0.32171630859375,0.023,-10.6875,10.6875,-26.25,8.1,-3.58,stop,2
6.99,1665523.554969526,25,3,3,3,3,-443.0,7.9,-3.48,-0.23,-0.2,0.09,0.51,-3.75,6.0625,473.5625,0.38568115234375,0.730712890625,0.32159423828125,0.023,-10.6875,10.6875,-26.1875,8.1,-3.58,stop,2
7.0,1665523.570860843,25,3,3,3,3,-437.0,8.0,-3.58,-0.18,-0.1,0.0,0.32,-3.3125,5.875,473.5625,0.38623046875,0.73040771484375,0.32159423828125,0.023,-10.6875,10.6875,-26.125,8.11,-3.58,stop,2
7.01,1665523.570860843,25,3,3,3,3,-430.0,8.09,-3.68,-0.11,-0.02,-0.1,0.29,-3.4375,5.4375,473.5625,0.38677978515625,0.73016357421875,0.32159423828125,0.023,-10.6875,10.6875,-26.125,8.11,-3.58,stop,2
7.03,1665523.600322879,25,3,3,3,3,-405.0,8.32,-3.81,0.12,0.21,-0.22,0.38,-3.25,5.4375,473.5625,0.38726806640625,0.72991943359375,0.321533203125,0.023,-10.6875,10.6875,-26.0625,8.11,-3.58,stop,2
7.04,1665523.600322879,25,3,3,3,3,-397.0,8.42,-3.88,0.19,0.3,-0.29,0.52,-3.25,5.375,473.5,0.38787841796875,0.72967529296875,0.32147216796875,0.0233,-10.6875,10.25,-26.0625,8.11,-3.58,stop,2
7.05,1665523.614883222,25,3,3,3,3,-389.0,8.49,-3.94,0.27,0.37,-0.35,0.65,-4.1875,5.0,473.5,0.388427734375,0.72943115234375,0.3212890625,0.0233,-10.6875,10.25,-26.0,8.11,-3.58,stop,2
7.06,1665523.614883222,25,3,3,3,3,-382.0,8.49,-3.98,0.33,0.37,-0.38,0.66,-5.3125,4.625,473.5625,0.38909912109375,0.72918701171875,0.32098388671875,0.0233,-10.6875,10.25,-26.0,8.11,-3.59,stop,2
7.07,1665523.630607099,25,3,3,3,3,-378.0,8.34,-4.01,0.37,0.22,-0.42,0.66,-6.375,4.1875,473.6875,0.38970947265625,0.72894287109375,0.3206787109375,0.0233,-10.6875,10.25,-26.0,8.12,-3.59,stop,2
7.08,1665523.630607099,25,3,3,3,3,-381.0,8.26,-3.96,0.34,0.14,-0.37,0.65,-6.6875,3.625,473.875,0.3902587890625,0.7286376953125,0.32037353515625,0.0233,-10.6875,10.25,-26.0,8.12,-3.59,stop,2
7.09,1665523.661478559,25,3,3,3,3,-386.0,8.19,-3.89,0.3,0.07,-0.3,0.64,-6.875,3.125,473.75,0.3900146484375,0.728759765625,0.32049560546875,0.0237,-11.5,11.5,-26.0,8.12,-3.59,stop,2
7.09,1665523.661478559,25,3,3,3,3,-392.0,8.06,-3.79,0.23,-0.05,-0.2,0.76,-7.0625,2.75,473.9375,0.390625,0.728515625,0.320068359375,0.0237,-11.5,11.5,-26.0,8.11,-3.59,stop,2
7.11,1665523.675493574,25,3,3,3,3,-393.0,8.0,-3.74,0.23,-0.11,-0.14,0.9,-7.375,2.4375,474.1875,0.39117431640625,0.72833251953125,0.31951904296875,0.0237,-11.5,11.5,-26.0,8.11,-3.59,stop,2
7.12,1665523.675493574,25,3,3,3,3,-393.0,7.97,-3.69,0.23,-0.14,-0.09,0.97,-8.0,2.1875,474.375,0.39178466796875,0.72808837890625,0.3189697265625,0.0237,-11.5,11.5,-26.0,8.11,-3.6,stop,2
7.13,1665523.689508181,25,3,3,3,3,-392.0,7.94,-3.64,0.24,-0.16,-0.04,0.94,-8.625,1.9375,474.6875,0.39239501953125,0.72784423828125,0.318359375,0.0237,-11.5,11.5,-26.0,8.11,-3.6,stop,2
7.14,1665523.689508181,25,3,3,3,3,-393.0,7.96,-3.73,0.23,-0.14,-0.12,0.82,-9.4375,2.1875,475.0,0.39288330078125,0.72760009765625,0.31787109375,0.0223,-11.0625,10.25,-26.0625,8.11,-3.6,stop,2
7.15,1665523.720342858,25,3,3,3,3,-394.0,8.01,-3.81,0.22,-0.09,-0.2,0.7,-10.375,2.625,475.4375,0.3935546875,0.72723388671875,0.3173828125,0.0223,-11.0625,10.25,-26.0625,8.11,-3.6,stop,2
7.16,1665523.720342858,25,3,3,3,3,-396.0,8.07,-3.91,0.2,-0.03,-0.31,0.57,-10.8125,3.0,475.8125,0.394287109375,0.726806640625,0.31689453125,0.0223,-11.0625,10.25,-26.0625,8.11,-3.6,stop,2
7.16,1665523.734682498,25,3,3,3,3,-400.0,8.17,-3.92,0.16,0.06,-0.32,0.6,-10.9375,3.375,476.125,0.39501953125,0.7264404296875,0.31640625,0.0223,-11.0625,10.25,-26.0625,8.11,-3.6,stop,2
7.18,1665523.734682498,25,3,3,3,3,-404.0,8.22,-3.91,0.12,0.11,-0.31,0.75,-10.375,3.5625,476.375,0.39581298828125,0.72607421875,0.31585693359375,0.0223,-11.0625,10.25,-26.0625,8.1,-3.6,stop,2
7.19,1665523.75030408,25,3,3,3,3,-405.0,8.25,-3.85,0.11,0.14,-0.24,0.89,-9.4375,3.6875,476.5625,0.39666748046875,0.7257080078125,0.3153076171875,0.023,-11.875,10.0,-26.0625,8.1,-3.6,stop,2
7.2,1665523.75030408,25,3,3,3,3,-407.0,8.22,-3.78,0.09,0.11,-0.17,1.0,-8.4375,3.9375,476.6875,0.3974609375,0.72540283203125,0.31475830078125,0.023,-11.875,10.0,-26.0,8.1,-3.61,stop,2
7.21,1665523.780937828,25,3,3,3,3,-407.0,8.21,-3.75,0.09,0.1,-0.13,1.05,-7.6875,3.8125,476.75,0.39825439453125,0.72515869140625,0.31427001953125,0.023,-11.875,10.0,-26.0,8.1,-3.61,stop,2
7.22,1665523.780937828,25,3,3,3,3,-412.0,8.13,-3.6,0.04,0.03,0.01,1.08,-6.75,3.8125,476.8125,0.39898681640625,0.7249755859375,0.31378173828125,0.023,-11.875,10.0,-26.0,8.1,-3.62,stop,2
7.23,1665523.796423627,25,3,3,3,3,-414.0,8.12,-3.59,0.01,0.02,0.03,1.07,-5.875,3.9375,476.8125,0.399658203125,0.72479248046875,0.31329345703125,0.023,-11.875,10.0,-26.0,8.1,-3.62,stop,2
7.24,1665523.796423627,25,3,3,3,3,-415.0,8.09,-3.55,0.0,0.0,0.07,1.05,-5.3125,4.0625,476.8125,0.40032958984375,0.724609375,0.3128662109375,0.0237,-10.6875,10.0,-26.0,8.1,-3.63,stop,2
7.24,1665523.810210655,25,3,3,3,3,-413.0,8.09,-3.59,0.02,0.0,0.04,0.98,-5.125,4.0625,476.8125,0.40093994140625,0.72442626953125,0.3125,0.0237,-10.6875,10.0,-25.9375,8.1,-3.63,stop,2
7.26,1665523.810210655,25,3,3,3,3,-413.0,8.09,-3.67,0.01,0.0,-0.03,0.86,-5.1875,3.9375,476.8125,0.401611328125,0.72418212890625,0.3121337890625,0.0237,-10.6875,10.0,-25.9375,8.1,-3.64,stop,2
7.27,1665523.839023766,25,3,3,3,3,-407.0,8.11,-3.69,0.07,0.01,-0.05,0.76,-5.375,4.0,476.875,0.40216064453125,0.7239990234375,0.311767578125,0.0237,-10.6875,10.0,-25.9375,8.1,-3.64,stop,2
7.28,1665523.839023766,25,3,3,3,3,-408.0,8.11,-3.68,0.07,0.01,-0.03,0.71,-4.6875,4.0,476.9375,0.40277099609375,0.7237548828125,0.3115234375,0.0237,-10.6875,10.0,-25.9375,8.1,-3.64,stop,2
7.29,1665523.855947146,25,3,3,3,3,-404.0,8.06,-3.6,0.1,-0.03,0.05,0.72,-3.4375,4.0,476.875,0.4033203125,0.72357177734375,0.31121826171875,0.0237,-10.6875,9.5625,-25.875,8.1,-3.65,stop,2
7.3,1665523.855947146,25,3,3,3,3,-407.0,8.02,-3.62,0.06,-0.07,0.03,0.71,-3.1875,4.3125,476.8125,0.40386962890625,0.72344970703125,0.31103515625,0.0237,-10.6875,9.5625,-25.875,8.1,-3.65,stop,2
7.31,1665523.871169762,25,3,3,3,3,-407.0,8.03,-3.7,0.06,-0.07,-0.04,0.73,-3.4375,4.375,476.75,0.4044189453125,0.7232666015625,0.310791015625,0.0237,-10.6875,9.5625,-25.8125,8.1,-3.66,stop,2
7.32,1665523.871169762,25,3,3,3,3,-407.0,8.05,-3.71,0.06,-0.04,-0.04,0.65,-4.5,4.8125,476.75,0.405029296875,0.7230224609375,0.310546875,0.0237,-10.6875,9.5625,-25.8125,8.1,-3.66,stop,2
7.33,1665523.901152387,25,3,3,3,3,-406.0,8.08,-3.76,0.06,-0.01,-0.09,0.6,-4.875,4.5625,476.75,0.40557861328125,0.7227783203125,0.31036376953125,0.0237,-10.6875,9.5625,-25.8125,8.1,-3.66,stop,2
7.34,1665523.901152387,25,3,3,3,3,-407.0,8.04,-3.75,0.05,-0.05,-0.08,0.64,-5.3125,4.4375,477.25,0.4072265625,0.721923828125,0.3094482421875,0.0241,-11.0625,8.75,-25.75,8.1,-3.66,stop,2
7.35,1665523.914506188,25,3,3,3,3,-406.0,8.02,-3.7,0.05,-0.08,-0.03,0.76,-5.1875,4.125,477.3125,0.4078369140625,0.72174072265625,0.30914306640625,0.0241,-11.0625,8.75,-25.75,8.1,-3.67,stop,2
7.36,1665523.914506188,25,3,3,3,3,-403.0,8.02,-3.62,0.09,-0.08,0.05,0.85,-4.625,3.625,477.3125,0.40838623046875,0.7215576171875,0.30877685546875,0.0241,-11.0625,8.75,-25.75,8.1,-3.67,stop,2
7.37,1665523.930288943,25,3,3,3,3,-405.0,8.03,-3.49,0.06,-0.07,0.18,0.87,-4.0,3.5625,477.25,0.408935546875,0.72137451171875,0.30841064453125,0.0241,-11.0625,8.75,-25.75,8.1,-3.68,stop,2
7.38,1665523.930288943,25,3,3,3,3,-408.0,8.03,-3.47,0.03,-0.06,0.2,0.77,-3.5,3.625,477.25,0.40948486328125,0.72125244140625,0.30816650390625,0.0241,-11.0625,8.75,-25.6875,8.1,-3.68,stop,2
7.39,1665523.961318362,25,3,3,3,3,-414.0,8.03,-3.53,-0.02,-0.06,0.15,0.55,-3.5625,3.9375,476.9375,0.40936279296875,0.72137451171875,0.308349609375,0.0233,-10.375,10.25,-25.6875,8.1,-3.68,stop,2
7.4,1665523.961318362,25,3,3,3,3,-421.0,8.05,-3.62,-0.1,-0.04,0.06,0.39,-3.4375,3.875,477.0,0.4097900390625,0.72119140625,0.3082275390625,0.0233,-10.375,10.25,-25.6875,8.1,-3.68,stop,2
7.41,1665523.974624148,25,3,3,3,3,-433.0,8.1,-3.68,-0.23,0.0,0.0,0.32,-3.25,3.8125,477.0625,0.41015625,0.720947265625,0.30810546875,0.0233,-10.375,10.25,-25.625,8.1,-3.68,stop,2
7.42,1665523.974624148,25,3,3,3,3,-436.0,8.13,-3.65,-0.26,0.02,0.03,0.34,-2.625,3.625,477.125,0.4105224609375,0.72076416015625,0.30804443359375,0.0233,-10.375,10.25,-25.625,8.1,-3.68,stop,2
7.43,1665523.989512291,25,3,3,3,3,-436.0,8.12,-3.63,-0.25,0.01,0.05,0.37,-1.5625,3.125,477.0625,0.41082763671875,0.72064208984375,0.30792236328125,0.0233,-10.375,10.25,-25.625,8.1,-3.68,stop,2
7.44,1665523.989512291,25,3,3,3,3,-422.0,8.11,-3.56,-0.12,0.0,0.12,0.33,-0.5625,2.625,477.0625,0.4111328125,0.72052001953125,0.30780029296875,0.0237,-10.6875,9.1875,-25.625,8.1,-3.69,stop,2
7.45,1665524.020649742,25,3,3,3,3,-416.0,8.08,-3.57,-0.06,-0.01,0.11,0.19,0.0,2.4375,477.0,0.41131591796875,0.720458984375,0.30780029296875,0.0237,-10.6875,9.1875,-25.5625,8.1,-3.69,stop,2
7.46,1665524.020649742,25,3,3,3,3,-409.0,8.1,-3.62,0.0,0.0,0.07,-0.04,0.0625,2.0625,476.9375,0.41143798828125,0.72039794921875,0.307861328125,0.0237,-10.6875,9.1875,-25.5625,8.1,-3.69,stop,2
7.47,1665524.034511152,25,3,3,3,3,-404.0,8.12,-3.66,0.04,0.01,0.02,-0.22,-0.0625,1.875,476.9375,0.4114990234375,0.72027587890625,0.30804443359375,0.0237,-10.6875,9.1875,-25.5625,8.11,-3.69,stop,2
7.48,1665524.034511152,25,3,3,3,3,-394.0,8.09,-3.75,0.15,-0.01,-0.06,-0.23,-0.625,1.625,477.0,0.41156005859375,0.72015380859375,0.30816650390625,0.0237,-10.6875,9.1875,-25.5625,8.11,-3.68,stop,2
7.49,1665524.05121566,25,3,3,3,3,-391.0,8.05,-3.72,0.17,-0.05,-0.03,-0.15,-0.875,1.375,477.625,0.41302490234375,0.71929931640625,0.307373046875,0.0241,-11.5,8.375,-25.5625,8.11,-3.68,stop,2
7.5,1665524.05121566,25,3,3,3,3,-391.0,8.04,-3.65,0.17,-0.06,0.02,-0.05,-0.6875,1.25,477.625,0.41314697265625,0.71917724609375,0.30743408203125,0.0241,-11.5,8.375,-25.5,8.11,-3.68,stop,2
7.51,1665524.080595258,25,3,3,3,3,-391.0,8.06,-3.63,0.16,-0.04,0.05,0.05,-0.5,1.375,477.5625,0.4132080078125,0.7191162109375,0.3074951171875,0.0241,-11.5,8.375,-25.5,8.11,-3.68,stop,2
7.52,1665524.080595258,25,3,3,3,3,-397.0,8.04,-3.66,0.1,-0.07,0.01,0.1,-0.5,1.5,477.5,0.41339111328125,0.7191162109375,0.3074951171875,0.0241,-11.5,8.375,-25.5,8.11,-3.68,stop,2
7.53,1665524.094784061,25,3,3,3,3,-400.0,8.09,-3.64,0.07,-0.02,0.03,0.07,-0.625,1.625,477.5,0.41351318359375,0.718994140625,0.30755615234375,0.0241,-11.5,8.375,-25.5,8.11,-3.68,stop,2
7.54,1665524.094784061,25,3,3,3,3,-401.0,8.11,-3.72,0.06,0.0,-0.03,-0.01,-0.8125,1.875,478.125,0.41510009765625,0.71807861328125,0.30670166015625,0.0244,-10.6875,8.0,-25.4375,8.12,-3.68,stop,2
7.55,1665524.110453942,25,3,3,3,3,-403.0,8.18,-3.72,0.03,0.06,-0.04,-0.04,-1.1875,1.875,478.125,0.41522216796875,0.71795654296875,0.30670166015625,0.0244,-10.6875,8.0,-25.4375,8.12,-3.68,stop,2
7.56,1665524.110453942,25,3,3,3,3,-405.0,8.25,-3.79,0.02,0.12,-0.1,-0.02,-1.0625,1.9375,478.1875,0.4154052734375,0.71783447265625,0.3067626953125,0.0244,-10.6875,8.0,-25.4375,8.12,-3.68,stop,2
7.57,1665524.140812584,25,3,3,3,3,-409.0,8.23,-3.74,-0.01,0.1,-0.06,0.03,-0.3125,2.0625,478.125,0.41552734375,0.7177734375,0.30682373046875,0.0244,-10.6875,8.0,-25.4375,8.12,-3.68,stop,2
7.58,1665524.140812584,25,3,3,3,3,-408.0,8.24,-3.76,-0.01,0.11,-0.07,0.06,0.0,2.0,478.0625,0.4156494140625,0.71771240234375,0.30694580078125,0.0244,-10.6875,8.0,-25.375,8.12,-3.68,stop,2
7.59,1665524.155936119,25,3,3,3,3,-408.0,8.19,-3.69,-0.01,0.06,0.0,0.11,0.5,1.875,478.0,0.41583251953125,0.71759033203125,0.30694580078125,0.0241,-11.875,9.5625,-25.375,8.12,-3.68,stop,2
7.6,1665524.155936119,25,3,3,3,3,-409.0,8.15,-3.67,-0.03,0.02,0.0,0.12,0.75,1.8125,477.8125,0.416015625,0.71759033203125,0.3070068359375,0.0241,-11.875,9.5625,-25.375,8.12,-3.68,stop,2
7.61,1665524.185284101,25,3,3,3,3,-410.0,8.15,-3.7,-0.04,0.03,-0.01,0.09,0.5,1.5625,477.75,0.4161376953125,0.71759033203125,0.3070068359375,0.0241,-11.875,9.5625,-25.375,8.12,-3.68,stop,2
7.62,1665524.185284101,25,3,3,3,3,-402.0,8.15,-3.69,0.03,0.02,0.0,0.04,0.0625,1.375,477.75,0.41619873046875,0.717529296875,0.30706787109375,0.0241,-11.875,9.5625,-25.3125,8.12,-3.68,stop,2
7.63,1665524.204180586,25,3,3,3,3,-404.0,8.13,-3.68,0.01,0.0,0.0,-0.03,0.0,1.125,477.6875,0.416259765625,0.71746826171875,0.30712890625,0.0241,-11.875,9.5625,-25.3125,8.13,-3.68,stop,2
7.64,1665524.204180586,25,3,3,3,3,-402.0,8.14,-3.69,0.02,0.0,0.0,-0.07,-0.25,1.0,477.6875,0.41644287109375,0.7174072265625,0.30712890625,0.0233,-11.5,9.1875,-25.3125,8.13,-3.68,stop,2
7.65,1665524.219781294,25,3,3,3,3,-399.0,8.13,-3.64,0.05,0.0,0.04,-0.06,0.0,0.75,477.6875,0.41644287109375,0.71734619140625,0.30712890625,0.0233,-11.5,9.1875,-25.3125,8.13,-3.68,stop,2
7.66,1665524.219781294,25,3,3,3,3,-398.0,8.12,-3.62,0.06,-0.01,0.06,0.0,0.5625,0.6875,477.625,0.41650390625,0.71734619140625,0.30718994140625,0.0233,-11.5,9.1875,-25.3125,8.13,-3.68,stop,2
7.67,1665524.229814415,25,3,3,3,3,-386.0,8.1,-3.64,0.18,-0.03,0.04,-0.07,0.3125,0.6875,477.5625,0.41656494140625,0.71734619140625,0.3072509765625,0.0233,-11.5,9.1875,-25.3125,8.13,-3.68,stop,2
7.68,1665524.229814415,25,3,3,3,3,-385.0,8.12,-3.64,0.19,-0.01,0.04,-0.16,0.1875,0.9375,477.5625,0.41656494140625,0.71728515625,0.307373046875,0.0233,-11.5,9.1875,-25.25,8.13,-3.68,stop,2
7.69,1665524.26088839,25,3,3,3,3,-385.0,8.13,-3.73,0.19,0.0,-0.05,-0.23,0.25,1.4375,477.625,0.41668701171875,0.71710205078125,0.3074951171875,0.0244,-11.875,9.5625,-25.25,8.13,-3.68,stop,2
7.7,1665524.26088839,25,3,3,3,3,-388.0,8.16,-3.75,0.15,0.02,-0.06,-0.22,0.0625,1.5625,477.5625,0.416748046875,0.717041015625,0.30767822265625,0.0244,-11.875,9.5625,-25.25,8.13,-3.68,stop,2
7.71,1665524.275544803,25,3,3,3,3,-388.0,8.17,-3.76,0.15,0.03,-0.08,-0.1,0.125,1.6875,477.5,0.4168701171875,0.7169189453125,0.30780029296875,0.0244,-11.875,9.5625,-25.25,8.14,-3.68,stop,2
7.72,1665524.275544803,25,3,3,3,3,-387.0,8.21,-3.72,0.16,0.07,-0.04,0.04,-0.0625,1.875,477.4375,0.4169921875,0.71685791015625,0.30792236328125,0.0244,-11.875,9.5625,-25.1875,8.14,-3.68,stop,2
7.73,1665524.289632612,25,3,3,3,3,-386.0,8.2,-3.69,0.16,0.06,-0.01,0.15,-0.4375,1.875,477.3125,0.41717529296875,0.716796875,0.30792236328125,0.0244,-11.875,9.5625,-25.1875,8.14,-3.68,stop,2
7.74,1665524.289632612,25,3,3,3,3,-386.0,8.19,-3.65,0.16,0.05,0.02,0.2,-1.0,2.1875,477.1875,0.41729736328125,0.716796875,0.30804443359375,0.0226,-11.0625,9.5625,-25.1875,8.14,-3.68,stop,2
7.75,1665524.321333133,25,3,3,3,3,-386.0,8.19,-3.68,0.16,0.05,0.0,0.18,-1.25,2.0625,477.125,0.41754150390625,0.7166748046875,0.30804443359375,0.0226,-11.0625,9.5625,-25.125,8.14,-3.68,stop,2
7.76,1665524.321333133,25,3,3,3,3,-386.0,8.19,-3.7,0.15,0.05,-0.01,0.17,-1.375,2.0,477.125,0.41778564453125,0.71661376953125,0.30804443359375,0.0226,-11.0625,9.5625,-25.125,8.14,-3.68,stop,2
7.77,1665524.334395552,25,3,3,3,3,-387.0,8.19,-3.69,0.14,0.04,0.0,0.15,-1.75,2.1875,477.125,0.41802978515625,0.7164306640625,0.3079833984375,0.0226,-11.0625,9.5625,-25.125,8.14,-3.68,stop,2
7.78,1665524.334395552,25,3,3,3,3,-390.0,8.2,-3.71,0.11,0.05,-0.02,0.13,-1.9375,2.0625,477.125,0.41827392578125,0.71630859375,0.3079833984375,0.0226,-11.0625,9.5625,-25.0625,8.14,-3.68,stop,2
7.79,1665524.350169437,25,3,3,3,3,-390.0,8.19,-3.72,0.1,0.04,-0.03,0.15,-2.0625,1.9375,477.0,0.418212890625,0.71636962890625,0.30810546875,0.0241,-11.5,10.25,-25.0625,8.15,-3.68,stop,2
7.8,1665524.350169437,25,3,3,3,3,-390.0,8.21,-3.72,0.1,0.06,-0.03,0.18,-2.4375,1.9375,477.0625,0.41845703125,0.7161865234375,0.30804443359375,0.0241,-11.5,10.25,-25.0625,8.15,-3.68,stop,2
7.81,1665524.382129845,25,3,3,3,3,-392.0,8.19,-3.72,0.08,0.04,-0.03,0.23,-2.5625,1.875,477.125,0.418701171875,0.716064453125,0.3079833984375,0.0241,-11.5,10.25,-25.0625,8.15,-3.68,stop,2
7.82,1665524.382129845,25,3,3,3,3,-391.0,8.17,-3.69,0.09,0.02,0.0,0.25,-2.625,1.8125,477.125,0.4189453125,0.7159423828125,0.307861328125,0.0241,-11.5,10.25,-25.0625,8.15,-3.68,stop,2
7.83,1665524.409761193,25,3,3,3,3,-390.0,8.16,-3.68,0.1,0.01,0.0,0.28,-2.5625,1.75,477.1875,0.41925048828125,0.7158203125,0.3077392578125,0.0241,-11.5,10.25,-25.0625,8.15,-3.68,stop,2
7.84,1665524.409761193,25,3,3,3,3,-392.0,8.17,-3.7,0.08,0.02,-0.01,0.26,-2.4375,1.75,477.25,0.41949462890625,0.7156982421875,0.3076171875,0.0237,-11.5,9.5625,-25.0625,8.15,-3.69,stop,2
7.85,1665524.419001061,25,3,3,3,3,-393.0,8.18,-3.7,0.07,0.03,-0.01,0.22,-2.25,1.875,477.25,0.41973876953125,0.715576171875,0.30755615234375,0.0237,-11.5,9.5625,-25.0,8.15,-3.69,stop,2
7.86,1665524.419001061,25,3,3,3,3,-395.0,8.2,-3.71,0.05,0.04,-0.02,0.19,-2.25,1.9375,477.3125,0.41998291015625,0.7154541015625,0.3074951171875,0.0237,-11.5,9.5625,-25.0,8.15,-3.69,stop,2
7.87,1665524.439748945,25,3,3,3,3,-394.0,8.17,-3.69,0.06,0.01,0.0,0.21,-1.9375,1.9375,477.3125,0.42022705078125,0.71533203125,0.30743408203125,0.0237,-11.5,9.5625,-25.0,8.15,-3.69,stop,2
7.88,1665524.439748945,25,3,3,3,3,-396.0,8.16,-3.66,0.03,0.0,0.02,0.25,-1.375,1.8125,477.25,0.42041015625,0.7152099609375,0.30731201171875,0.0237,-11.5,9.5625,-25.0,8.15,-3.69,stop,2
7.89,1665524.454805504,25,3,3,3,3,-397.0,8.18,-3.65,0.03,0.02,0.04,0.25,-0.875,1.75,477.25,0.420654296875,0.71514892578125,0.3072509765625,0.0241,-10.375,9.1875,-25.0,8.15,-3.69,stop,2
7.9,1665524.454805504,25,3,3,3,3,-400.0,8.16,-3.67,0.0,0.0,0.01,0.2,-0.75,1.875,477.1875,0.42083740234375,0.715087890625,0.3072509765625,0.0241,-10.375,9.1875,-24.9375,8.15,-3.69,stop,2
7.91,1665524.473029951,25,3,3,3,3,-401.0,8.19,-3.7,-0.02,0.03,-0.01,0.16,-0.75,1.875,477.125,0.4210205078125,0.71502685546875,0.3072509765625,0.0241,-10.375,9.1875,-24.9375,8.15,-3.69,stop,2
7.92,1665524.473029951,25,3,3,3,3,-402.0,8.22,-3.76,-0.03,0.06,-0.06,0.16,-0.3125,1.5625,477.0625,0.421142578125,0.7149658203125,0.3072509765625,0.0241,-10.375,9.1875,-24.9375,8.15,-3.69,stop,2
7.93,1665524.500477664,25,3,3,3,3,-398.0,8.23,-3.75,0.0,0.07,-0.05,0.15,-0.125,1.3125,476.9375,0.4212646484375,0.7149658203125,0.3072509765625,0.0241,-10.375,9.1875,-24.9375,8.15,-3.7,stop,2
7.94,1665524.500477664,25,3,3,3,3,-395.0,8.21,-3.69,0.03,0.06,0.0,0.19,0.0,1.1875,476.75,0.4210205078125,0.71514892578125,0.30743408203125,0.0241,-10.6875,10.0,-24.9375,8.15,-3.7,stop,2
7.95,1665524.514451663,25,3,3,3,3,-397.0,8.15,-3.67,0.01,0.0,0.03,0.19,0.8125,0.875,476.625,0.421142578125,0.7152099609375,0.30743408203125,0.0241,-10.6875,10.0,-24.875,8.15,-3.7,stop,2
7.96,1665524.514451663,25,3,3,3,3,-396.0,8.13,-3.7,0.02,-0.02,0.0,0.11,1.5,0.5,476.5,0.421142578125,0.71527099609375,0.30743408203125,0.0241,-10.6875,10.0,-24.875,8.15,-3.7,stop,2
7.97,1665524.53052873,25,3,3,3,3,-399.0,8.07,-3.74,-0.01,-0.07,-0.03,0.07,1.6875,0.6875,476.375,0.421142578125,0.71533203125,0.30755615234375,0.0241,-10.6875,10.0,-24.875,8.15,-3.7,stop,2
7.98,1665524.53052873,25,3,3,3,3,-398.0,8.14,-3.79,0.0,-0.01,-0.08,0.06,1.5625,0.5,476.25,0.42108154296875,0.71539306640625,0.3076171875,0.0241,-10.6875,10.0,-24.875,8.15,-3.7,stop,2
7.99,1665524.560182336,25,3,3,3,3,-395.0,8.17,-3.8,0.03,0.02,-0.09,0.1,0.9375,0.5,476.25,0.4212646484375,0.71533203125,0.30743408203125,0.0241,-10.6875,8.75,-24.875,8.15,-3.71,stop,2
8.0,1665524.560182336,25,3,3,3,3,-393.0,8.21,-3.78,0.04,0.06,-0.07,0.12,0.875,0.0625,476.125,0.42132568359375,0.71539306640625,0.30743408203125,0.0241,-10.6875,8.75,-24.875,8.15,-3.71,stop,2
8.01,1665524.576151411,25,3,3,3,3,-390.0,8.17,-3.74,0.07,0.02,-0.03,0.12,0.75,-0.1875,476.0625,0.42132568359375,0.7154541015625,0.30743408203125,0.0241,-10.6875,8.75,-24.875,8.15,-3.71,stop,2
8.02,1665524.576151411,25,3,3,3,3,-389.0,8.15,-3.71,0.08,0.0,0.0,0.1,0.6875,-0.4375,475.9375,0.42132568359375,0.71551513671875,0.30743408203125,0.0241,-10.6875,8.75,-24.875,8.15,-3.71,stop,2
8.03,1665524.604924523,25,3,3,3,3,-389.0,8.15,-3.67,0.08,0.0,0.04,0.12,0.875,-0.625,475.875,0.42132568359375,0.715576171875,0.307373046875,0.0241,-10.6875,8.75,-24.875,8.15,-3.71,stop,2
8.04,1665524.604924523,25,3,3,3,3,-388.0,8.14,-3.63,0.09,-0.01,0.08,0.11,1.4375,-0.75,475.75,0.421142578125,0.7156982421875,0.30743408203125,0.0226,-11.5,9.5625,-24.875,8.15,-3.71,stop,2
8.05,1665524.619852298,25,3,3,3,3,-386.0,8.13,-3.67,0.11,-0.01,0.04,0.03,1.8125,-0.8125,475.625,0.42108154296875,0.7158203125,0.3074951171875,0.0226,-11.5,9.5625,-24.875,8.15,-3.72,stop,2
8.06,1665524.619852298,25,3,3,3,3,-386.0,8.16,-3.73,0.11,0.01,-0.01,-0.09,1.5625,-0.875,475.5625,0.42095947265625,0.71588134765625,0.30755615234375,0.0226,-11.5,9.5625,-24.875,8.15,-3.72,stop,2
8.07,1665524.651589399,25,3,3,3,3,-387.0,8.15,-3.78,0.1,0.0,-0.06,-0.21,1.125,-0.5,475.5625,0.4208984375,0.7159423828125,0.30767822265625,0.0226,-11.5,9.5625,-24.875,8.15,-3.72,stop,2
8.08,1665524.651589399,25,3,3,3,3,-386.0,8.21,-3.85,0.1,0.05,-0.13,-0.21,0.9375,-0.4375,475.5,0.42083740234375,0.7159423828125,0.30780029296875,0.0226,-11.5,9.5625,-24.8125,8.15,-3.71,stop,2
8.09,1665524.657151004,25,3,3,3,3,-388.0,8.2,-3.84,0.08,0.05,-0.12,-0.16,0.75,-0.25,475.4375,0.42071533203125,0.7159423828125,0.30792236328125,0.0244,-11.5,10.0,-24.8125,8.15,-3.71,stop,2
8.1,1665524.657151004,25,3,3,3,3,-387.0,8.18,-3.79,0.1,0.03,-0.07,-0.01,0.4375,-0.375,475.4375,0.42071533203125,0.7159423828125,0.30792236328125,0.0244,-11.5,10.0,-24.8125,8.15,-3.71,stop,2
8.11,1665524.680813643,25,3,3,3,3,-384.0,8.17,-3.78,0.13,0.01,-0.06,0.09,0.5,-0.5,475.375,0.4207763671875,0.71600341796875,0.30792236328125,0.0244,-11.5,10.0,-24.8125,8.15,-3.72,stop,2
8.12,1665524.680813643,25,3,3,3,3,-386.0,8.12,-3.7,0.11,-0.02,0.01,0.12,0.25,-0.3125,475.3125,0.42083740234375,0.71600341796875,0.307861328125,0.0244,-11.5,10.0,-24.8125,8.15,-3.72,stop,2
8.13,1665524.697789391,25,3,3,3,3,-386.0,8.12,-3.7,0.11,-0.02,0.01,0.08,0.125,-0.5625,475.3125,0.4207763671875,0.71600341796875,0.307861328125,0.0244,-11.5,10.0,-24.8125,8.15,-3.72,stop,2
8.14,1665524.697789391,25,3,3,3,3,-387.0,8.13,-3.72,0.1,-0.02,0.0,-0.03,-0.3125,-0.5,475.125,0.42047119140625,0.71624755859375,0.30810546875,0.0241,-11.5,10.375,-24.8125,8.15,-3.72,stop,2
8.15,1665524.709751102,25,3,3,3,3,-390.0,8.13,-3.75,0.07,-0.02,-0.02,-0.09,-0.25,-0.5,475.125,0.42041015625,0.71624755859375,0.30816650390625,0.0241,-11.5,10.375,-24.8125,8.15,-3.72,stop,2
8.16,1665524.709751102,25,3,3,3,3,-391.0,8.12,-3.77,0.05,-0.03,-0.05,-0.1,-0.125,-0.5625,475.1875,0.42034912109375,0.71624755859375,0.30816650390625,0.0241,-11.5,10.375,-24.8125,8.15,-3.72,stop,2
8.17,1665524.739714237,25,3,3,3,3,-393.0,8.14,-3.75,0.04,-0.01,-0.03,-0.06,0.125,-0.5,475.1875,0.42034912109375,0.71624755859375,0.30816650390625,0.0241,-11.5,10.375,-24.8125,8.15,-3.72,stop,2
8.18,1665524.739714237,25,3,3,3,3,-394.0,8.16,-3.72,0.03,0.0,0.0,-0.01,0.25,-0.5,475.125,0.42041015625,0.71624755859375,0.3082275390625,0.0241,-11.5,10.375,-24.8125,8.15,-3.72,stop,2
8.19,1665524.753917809,25,3,3,3,3,-395.0,8.16,-3.76,0.02,0.0,-0.03,0.03,0.0,-0.75,475.375,0.42083740234375,0.7159423828125,0.307861328125,0.0244,-11.0625,8.75,-24.8125,8.15,-3.72,stop,2
8.2,1665524.753917809,25,3,3,3,3,-397.0,8.19,-3.77,0.0,0.04,-0.05,0.03,0.0,-0.75,475.4375,0.4207763671875,0.71600341796875,0.30780029296875,0.0244,-11.0625,8.75,-24.8125,8.15,-3.72,stop,2
8.21,1665524.78564486,25,3,3,3,3,-397.0,8.19,-3.77,0.0,0.03,-0.05,0.03,0.0,-0.75,475.4375,0.4207763671875,0.71600341796875,0.30780029296875,0.0244,-11.0625,8.75,-24.875,8.15,-3.72,stop,2
8.22,1665524.78564486,25,3,3,3,3,-396.0,8.16,-3.79,0.01,0.01,-0.07,0.05,-0.125,-0.625,475.4375,0.42071533203125,0.716064453125,0.3077392578125,0.0244,-11.0625,8.75,-24.875,8.15,-3.72,stop,2
8.23,1665524.799175052,25,3,3,3,3,-395.0,8.18,-3.76,0.02,0.03,-0.04,0.03,-0.125,-0.75,475.4375,0.420654296875,0.716064453125,0.3077392578125,0.0244,-11.0625,8.75,-24.875,8.15,-3.72,stop,2
8.24,1665524.799175052,25,3,3,3,3,-394.0,8.19,-3.78,0.04,0.04,-0.06,0.0,0.0,-0.75,474.875,0.41925048828125,0.7169189453125,0.30859375,0.0237,-11.5,11.0625,-24.875,8.15,-3.72,stop,2
8.25,1665524.814815962,25,3,3,3,3,-392.0,8.19,-3.8,0.05,0.04,-0.08,0.0,0.0,-0.75,474.875,0.419189453125,0.7169189453125,0.30853271484375,0.0237,-11.5,11.0625,-24.875,8.15,-3.72,stop,2
8.26,1665524.814815962,25,3,3,3,3,-393.0,8.17,-3.83,0.05,0.02,-0.11,0.0,0.0,-0.6875,474.9375,0.41912841796875,0.71697998046875,0.30853271484375,0.0237,-11.5,11.0625,-24.875,8.15,-3.72,stop,2
8.27,1665524.846606042,25,3,3,3,3,-394.0,8.15,-3.79,0.03,0.0,-0.07,0.0,0.0,-0.5625,474.9375,0.41912841796875,0.71697998046875,0.3084716796875,0.0237,-11.5,11.0625,-24.875,8.15,-3.72,stop,2
8.28,1665524.846606042,25,3,3,3,3,-395.0,8.19,-3.8,0.03,0.04,-0.08,0.0,0.125,-0.4375,474.9375,0.41912841796875,0.71697998046875,0.3084716796875,0.0237,-11.5,11.0625,-24.875,8.15,-3.72,stop,2
8.29,1665524.859621992,25,3,3,3,3,-390.0,8.19,-3.81,0.08,0.04,-0.09,0.12,0.1875,-0.375,475.3125,0.42010498046875,0.7164306640625,0.307861328125,0.0237,-12.1875,8.75,-24.875,8.15,-3.72,stop,2
8.3,1665524.859621992,25,3,3,3,3,-390.0,8.15,-3.78,0.07,0.0,-0.06,0.14,0.5,-0.5,475.25,0.42010498046875,0.71649169921875,0.30780029296875,0.0237,-12.1875,8.75,-24.875,8.14,-3.72,stop,2
8.31,1665524.875152266,25,3,3,3,3,-392.0,8.11,-3.75,0.05,-0.03,-0.03,0.15,0.1875,-0.25,475.25,0.420166015625,0.71649169921875,0.3077392578125,0.0237,-12.1875,8.75,-24.875,8.14,-3.72,stop,2
8.32,1665524.875152266,25,3,3,3,3,-392.0,8.11,-3.71,0.05,-0.03,0.01,0.16,0.5625,-0.3125,475.125,0.420166015625,0.716552734375,0.30767822265625,0.0237,-12.1875,8.75,-24.875,8.14,-3.72,stop,2
8.33,1665524.906626224,25,3,3,3,3,-393.0,8.1,-3.7,0.04,-0.04,0.02,0.16,0.8125,-0.3125,475.0625,0.42022705078125,0.71661376953125,0.30767822265625,0.0237,-12.1875,8.75,-24.875,8.14,-3.72,stop,2
8.34,1665524.906626224,25,3,3,3,3,-392.0,8.09,-3.71,0.05,-0.05,0.01,0.06,0.4375,-0.375,474.9375,0.4200439453125,0.71673583984375,0.30780029296875,0.0244,-11.5,10.25,-24.875,8.14,-3.72,stop,2
8.35,1665524.921364709,25,3,3,3,3,-394.0,8.13,-3.79,0.03,-0.01,-0.06,0.0,0.1875,-0.3125,474.9375,0.4200439453125,0.71673583984375,0.30780029296875,0.0244,-11.5,10.25,-24.875,8.14,-3.72,stop,2
8.36,1665524.921364709,25,3,3,3,3,-395.0,8.12,-3.88,0.02,-0.02,-0.16,0.03,0.125,-0.3125,474.9375,0.4200439453125,0.71673583984375,0.30780029296875,0.0244,-11.5,10.25,-24.875,8.14,-3.72,stop,2
8.37,1665524.934883711,25,3,3,3,3,-396.0,8.14,-3.87,0.02,0.0,-0.14,0.1,0.375,-0.375,474.9375,0.4200439453125,0.71673583984375,0.3077392578125,0.0244,-11.5,10.25,-24.875,8.14,-3.73,stop,2
8.38,1665524.934883711,25,3,3,3,3,-399.0,8.14,-3.87,-0.01,0.0,-0.13,0.18,0.125,-0.6875,474.875,0.4200439453125,0.716796875,0.3076171875,0.0244,-11.5,10.25,-24.875,8.14,-3.73,stop,2
8.39,1665524.96626396,25,3,3,3,3,-399.0,8.12,-3.89,-0.01,-0.02,-0.16,0.21,-0.125,-0.75,474.875,0.42010498046875,0.71685791015625,0.3074951171875,0.0241,-11.875,9.5625,-24.875,8.14,-3.73,stop,2
8.4,1665524.96626396,25,3,3,3,3,-399.0,8.1,-3.96,-0.01,-0.03,-0.22,0.23,-0.6875,-0.9375,474.9375,0.420166015625,0.7169189453125,0.30731201171875,0.0241,-11.875,9.5625,-24.875,8.14,-3.73,stop,2
8.41,1665524.99622148,25,3,3,3,3,-399.0,8.12,-4.0,0.0,-0.01,-0.27,0.31,-1.0,-1.125,474.875,0.420166015625,0.71697998046875,0.30706787109375,0.0241,-11.875,9.5625,-24.9375,8.14,-3.73,stop,2
8.42,1665524.99622148,25,3,3,3,3,-396.0,8.1,-4.05,0.03,-0.03,-0.3,0.43,-1.25,-1.125,474.8125,0.4202880859375,0.71710205078125,0.3067626953125,0.0241,-11.875,9.5625,-24.9375,8.13,-3.74,stop,2
8.43,1665525.015895593,25,3,3,3,3,-396.0,8.04,-4.05,0.03,-0.08,-0.3,0.54,-1.1875,-1.1875,474.75,0.42041015625,0.71722412109375,0.30645751953125,0.0241,-11.875,9.5625,-24.9375,8.13,-3.74,stop,2
8.44,1665525.015895593,25,3,3,3,3,-398.0,8.03,-4.02,0.01,-0.09,-0.26,0.62,-0.875,-0.5,475.1875,0.4219970703125,0.716552734375,0.30523681640625,0.0237,-11.0625,8.0,-24.9375,8.13,-3.75,stop,2
8.45,1665525.030385095,25,3,3,3,3,-403.0,8.0,-3.98,-0.03,-0.12,-0.22,0.69,0.0,0.25,474.9375,0.42218017578125,0.7166748046875,0.30487060546875,0.0237,-11.0625,8.0,-24.9375,8.12,-3.76,stop,2
8.46,1665525.030385095,25,3,3,3,3,-418.0,8.03,-4.0,-0.18,-0.09,-0.23,0.7,1.1875,1.0625,474.625,0.42242431640625,0.7169189453125,0.30462646484375,0.0237,-11.0625,8.0,-24.9375,8.12,-3.77,stop,2
8.47,1665525.04015251,25,3,3,3,3,-429.0,8.0,-4.04,-0.3,-0.11,-0.25,0.64,2.25,2.1875,474.25,0.42266845703125,0.71710205078125,0.30438232421875,0.0237,-11.0625,8.0,-24.9375,8.12,-3.78,stop,2
8.48,1665525.04015251,25,3,3,3,3,-440.0,7.94,-4.04,-0.41,-0.17,-0.25,0.49,3.8125,2.9375,473.75,0.4228515625,0.71722412109375,0.304443359375,0.0237,-11.0625,8.0,-24.875,8.12,-3.79,stop,2
8.49,1665525.05518083,25,3,3,3,3,-453.0,7.84,-3.99,-0.56,-0.27,-0.2,0.26,5.5,3.4375,473.3125,0.423095703125,0.71734619140625,0.30462646484375,0.0241,-11.0625,9.1875,-24.8125,8.12,-3.79,stop,2
8.5,1665525.05518083,25,3,3,3,3,-468.0,7.45,-3.71,-0.72,-0.67,0.08,-0.11,6.6875,3.875,472.8125,0.42315673828125,0.7174072265625,0.3050537109375,0.0241,-11.0625,9.1875,-24.75,8.12,-3.8,stop,2
8.5,1665525.070972334,25,3,3,3,3,-468.0,7.45,-3.71,-0.72,-0.67,0.08,-0.11,6.6875,3.875,472.8125,0.42315673828125,0.7174072265625,0.3050537109375,0.0241,-11.0625,9.1875,-24.75,8.12,-3.8,stop,2
8.51,1665525.070972334,25,3,3,3,3,-467.0,7.29,-3.58,-0.72,-0.83,0.21,-0.6,6.6875,4.3125,472.375,0.423095703125,0.71746826171875,0.30572509765625,0.0241,-11.0625,9.1875,-24.6875,8.13,-3.79,stop,2
8.52,1665525.084717248,25,3,3,3,3,-463.0,7.13,-3.41,-0.69,-1.0,0.37,-1.15,6.4375,4.625,472.125,0.42291259765625,0.71734619140625,0.306640625,0.0241,-11.0625,9.1875,-24.625,8.13,-3.79,stop,2
8.53,1665525.084717248,25,3,3,3,3,-456.0,6.95,-3.31,-0.63,-1.19,0.46,-1.62,5.6875,5.1875,472.0,0.42266845703125,0.71710205078125,0.30767822265625,0.0241,-11.0625,9.1875,-24.5625,8.14,-3.78,stop,2
8.54,1665525.114943729,25,3,3,3,3,-438.0,6.45,-3.11,-0.46,-1.7,0.65,-2.1,4.875,5.8125,472.1875,0.42279052734375,0.71649169921875,0.30859375,0.0241,-11.875,9.1875,-24.5,8.16,-3.76,stop,2
8.55,1665525.114943729,25,3,3,3,3,-429.0,6.15,-3.01,-0.38,-2.01,0.73,-2.58,4.25,6.5,472.375,0.42242431640625,0.71600341796875,0.31005859375,0.0241,-11.875,9.1875,-24.375,8.17,-3.74,stop,2
8.56,1665525.130057092,25,3,3,3,3,-431.0,5.84,-2.88,-0.41,-2.35,0.83,-3.14,4.1875,7.5,472.625,0.4219970703125,0.71533203125,0.31170654296875,0.0241,-11.875,9.1875,-24.3125,8.19,-3.72,stop,2
8.57,1665525.130057092,25,3,3,3,3,-442.0,5.36,-2.51,-0.53,-2.84,1.17,-3.69,4.1875,7.9375,473.0,0.42144775390625,0.714599609375,0.31365966796875,0.0241,-11.875,9.1875,-24.25,8.21,-3.69,stop,2
8.58,1665525.144900191,25,3,3,3,3,-447.0,5.19,-2.37,-0.6,-3.04,1.28,-4.05,3.3125,7.8125,473.5,0.42083740234375,0.7137451171875,0.315673828125,0.0241,-11.875,9.1875,-24.125,8.23,-3.65,stop,2
8.59,1665525.144900191,25,3,3,3,3,-447.0,5.15,-2.3,-0.61,-3.1,1.31,-4.34,0.0,8.0,474.0,0.41961669921875,0.71307373046875,0.31805419921875,0.0233,-10.6875,10.25,-24.0625,8.25,-3.61,stop,2
8.6,1665525.160443566,25,3,3,3,3,-420.0,5.29,-2.31,-0.35,-2.98,1.26,-4.4,-6.1875,8.5625,475.1875,0.419189453125,0.71173095703125,0.31988525390625,0.0233,-10.6875,10.25,-24.0,8.28,-3.57,stop,2
8.61,1665525.160443566,25,3,3,3,3,-317.0,5.55,-2.49,0.66,-2.74,1.03,-4.11,-15.875,9.75,476.875,0.419189453125,0.71002197265625,0.3212890625,0.0233,-10.6875,10.25,-24.0,8.3,-3.52,stop,2
8.62,1665525.190910526,25,3,3,3,3,-247.0,5.44,-2.78,1.36,-2.87,0.69,-3.79,-27.375,12.1875,479.1875,0.41973876953125,0.70782470703125,0.32220458984375,0.0233,-10.6875,10.25,-24.0,8.32,-3.47,stop,2
8.63,1665525.190910526,25,3,3,3,3,-153.0,5.39,-3.08,2.3,-2.95,0.33,-3.7,-38.3125,16.1875,482.0,0.42083740234375,0.70501708984375,0.32293701171875,0.0233,-10.6875,10.25,-24.0,8.35,-3.41,stop,2
8.64,1665525.205020471,25,3,3,3,3,-59.0,5.23,-3.34,3.24,-3.14,0.0,-3.66,-48.125,21.625,485.25,0.422607421875,0.70159912109375,0.32342529296875,0.0248,-10.375,9.5625,-24.0,8.37,-3.35,stop,2
8.65,1665525.205020471,25,3,3,3,3,129.0,5.09,-3.63,5.12,-3.31,-0.35,-3.6,-55.0,27.8125,488.75,0.42486572265625,0.6976318359375,0.32391357421875,0.0248,-10.375,9.5625,-23.9375,8.4,-3.28,stop,2
8.66,1665525.220310103,25,3,3,3,3,173.0,5.11,-3.49,5.54,-3.32,-0.28,-3.33,-55.625,33.5625,492.0,0.4276123046875,0.6934814453125,0.32452392578125,0.0248,-10.375,9.5625,-23.8125,8.44,-3.21,stop,2
8.67,1665525.220310103,25,3,3,3,3,180.0,5.43,-3.11,5.59,-3.04,0.04,-2.53,-51.6875,37.5,494.75,0.43072509765625,0.689453125,0.32513427734375,0.0248,-10.375,9.5625,-23.625,8.47,-3.15,stop,2
8.68,1665525.251194828,25,3,3,3,3,152.0,6.33,-2.64,5.27,-2.17,0.47,-1.01,-42.875,38.0625,496.5,0.4339599609375,0.68603515625,0.32550048828125,0.0248,-10.375,9.5625,-23.4375,8.5,-3.11,stop,2
8.69,1665525.251194828,25,3,3,3,3,-101.0,8.91,-1.89,2.7,0.38,1.21,1.05,-29.4375,34.25,496.3125,0.43560791015625,0.68463134765625,0.32647705078125,0.0241,-11.5,10.25,-23.1875,8.52,-3.1,stop,2
8.7,1665525.266111128,25,3,3,3,3,-276.0,10.67,-1.76,0.92,2.14,1.37,4.01,-19.9375,26.875,495.75,0.4388427734375,0.6834716796875,0.3253173828125,0.0241,-11.5,10.25,-23.0,8.52,-3.13,stop,2
8.71,1665525.266111128,25,3,3,3,3,-423.0,12.42,-2.16,-0.56,3.9,1.02,6.72,-14.5,17.625,494.5,0.442138671875,0.68341064453125,0.322998046875,0.0241,-11.5,10.25,-22.9375,8.51,-3.18,stop,2
8.72,1665525.296770145,25,3,3,3,3,-514.0,13.29,-2.92,-1.48,4.8,0.32,7.65,-13.6875,10.8125,493.125,0.44512939453125,0.6837158203125,0.320068359375,0.0241,-11.5,10.25,-22.875,8.49,-3.24,stop,2
8.73,1665525.296770145,25,3,3,3,3,-569.0,13.96,-6.39,-2.03,5.48,-3.1,7.12,-29.6875,11.5,492.8125,0.44854736328125,0.68328857421875,0.3167724609375,0.0241,-11.5,10.25,-22.875,8.47,-3.29,stop,2
8.74,1665525.309757124,25,3,3,3,3,-612.0,14.73,-9.93,-2.45,6.26,-6.62,6.02,-54.6875,18.6875,493.875,0.4522705078125,0.68157958984375,0.3134765625,0.0241,-12.1875,8.375,-22.875,8.46,-3.31,stop,2
8.75,1665525.309757124,25,3,3,3,3,-771.0,17.4,-13.7,-4.04,8.93,-10.38,5.26,-63.5625,21.0625,495.8125,0.4566650390625,0.678955078125,0.3099365234375,0.0241,-12.1875,8.375,-22.9375,8.46,-3.32,stop,2
8.76,1665525.326989709,25,3,3,3,3,-979.0,26.17,-11.34,-6.1,17.72,-8.0,4.57,-48.8125,7.125,497.375,0.4595947265625,0.6773681640625,0.30657958984375,0.0241,-12.1875,8.375,-23.0,8.45,-3.33,stop,2
8.77,1665525.326989709,25,3,3,3,3,-979.0,26.17,-11.34,-6.1,17.72,-8.0,4.57,-48.8125,7.125,497.375,0.4595947265625,0.6773681640625,0.30657958984375,0.0241,-12.1875,8.375,-23.0,8.45,-3.33,stop,2
8.77,1665525.339979821,25,3,3,3,3,-672.0,25.14,-4.1,-3.01,16.71,-0.73,2.79,-0.625,-14.875,497.125,0.45947265625,0.67840576171875,0.30487060546875,0.0241,-12.1875,8.375,-23.1875,8.43,-3.36,stop,2
8.78,1665525.339979821,25,3,3,3,3,-636.0,20.66,0.32,-2.63,12.24,3.7,0.41,22.8125,-23.625,496.25,0.45758056640625,0.680419921875,0.3046875,0.0241,-12.1875,8.375,-23.3125,8.41,-3.38,stop,2
8.79,1665525.355457808,25,3,3,3,3,-683.0,16.61,-0.65,-3.07,8.19,2.69,-2.91,5.0625,-21.25,498.375,0.4578857421875,0.6793212890625,0.30328369140625,0.0244,-12.1875,4.5625,-23.5,8.41,-3.35,stop,2
8.8,1665525.355457808,25,3,3,3,3,-601.0,13.92,-7.34,-2.21,5.49,-4.06,-6.42,-22.25,-14.0625,501.75,0.4559326171875,0.6778564453125,0.30419921875,0.0244,-12.1875,4.5625,-23.6875,8.42,-3.28,stop,2
8.81,1665525.389358728,25,3,3,3,3,-605.0,13.61,-7.97,-2.23,5.16,-4.76,-7.1,-17.8125,-10.1875,504.875,0.45391845703125,0.67633056640625,0.3056640625,0.0244,-12.1875,4.5625,-23.8125,8.44,-3.2,stop,2
8.82,1665525.389358728,25,3,3,3,3,-591.0,12.62,-6.32,-2.08,4.17,-3.14,-5.23,22.3125,-12.875,505.1875,0.451171875,0.6768798828125,0.3079833984375,0.0244,-12.1875,4.5625,-23.875,8.45,-3.17,stop,2
8.83,1665525.400272953,25,3,3,3,3,-543.0,11.65,-4.17,-1.6,3.19,-0.98,-1.99,44.4375,-15.8125,503.4375,0.44854736328125,0.6790771484375,0.30975341796875,0.0244,-12.1875,4.5625,-23.875,8.45,-3.18,stop,2
8.84,1665525.400272953,25,3,3,3,3,-433.0,9.04,-2.36,-0.51,0.59,0.83,-1.32,45.6875,-16.375,501.6875,0.4464111328125,0.68115234375,0.31103515625,0.0241,-11.875,6.0625,-23.875,8.44,-3.2,stop,2
8.85,1665525.415383996,25,3,3,3,3,-404.0,7.89,-2.23,-0.22,-0.55,0.95,-3.38,36.1875,-15.0,500.6875,0.44366455078125,0.68267822265625,0.31304931640625,0.0241,-11.875,6.0625,-23.875,8.44,-3.19,stop,2
8.86,1665525.415383996,25,3,3,3,3,-382.0,6.89,-2.33,0.0,-1.56,0.82,-5.97,27.75,-13.875,500.875,0.44049072265625,0.68341064453125,0.31573486328125,0.0241,-11.875,6.0625,-23.875,8.45,-3.15,stop,2
8.87,1665525.447563724,25,3,3,3,3,-364.0,6.14,-2.28,0.19,-2.32,0.82,-7.72,26.8125,-14.125,501.5,0.43682861328125,0.6837158203125,0.319091796875,0.0241,-11.875,6.0625,-23.9375,8.47,-3.1,stop,2
8.88,1665525.447563724,25,3,3,3,3,-315.0,5.0,-2.1,0.68,-3.48,0.94,-8.22,31.25,-15.875,502.0625,0.43280029296875,0.68426513671875,0.3226318359375,0.0241,-11.875,6.0625,-24.0,8.49,-3.05,stop,2
8.89,1665525.459888716,25,3,3,3,3,-283.0,4.6,-1.9,1.01,-3.89,1.09,-7.87,38.3125,-18.3125,501.0625,0.4263916015625,0.6865234375,0.32781982421875,0.0251,-11.875,9.5625,-24.0,8.5,-3.0,stop,2
8.9,1665525.459888716,25,3,3,3,3,-257.0,4.26,-1.65,1.27,-4.25,1.31,-7.09,49.1875,-21.4375,500.375,0.4217529296875,0.68817138671875,0.33135986328125,0.0251,-11.875,9.5625,-24.0625,8.51,-2.97,moving,2
8.91,1665525.4921755,25,3,3,3,3,-205.0,3.63,-1.09,1.8,-4.88,1.85,-6.5,60.6875,-25.4375,498.875,0.416748046875,0.69049072265625,0.3349609375,0.0251,-11.875,9.5625,-24.0625,8.51,-2.95,moving,2
8.92,1665525.4921755,25,3,3,3,3,-178.0,3.22,-0.86,2.08,-5.29,2.07,-6.25,70.625,-29.5625,496.875,0.4112548828125,0.693359375,0.338623046875,0.0251,-11.875,9.5625,-24.125,8.51,-2.94,moving,2
8.93,1665525.497636722,25,3,3,3,3,-140.0,2.64,-0.67,2.46,-5.87,2.26,-6.15,79.3125,-34.25,494.375,0.40521240234375,0.69683837890625,0.34234619140625,0.0251,-11.875,9.5625,-24.1875,8.51,-2.93,moving,2
8.94,1665525.497636722,25,3,3,3,3,-117.0,2.11,-0.51,2.71,-6.39,2.42,-6.23,84.9375,-39.75,491.6875,0.3985595703125,0.70062255859375,0.34600830078125,0.0244,-11.875,12.25,-24.3125,8.5,-2.93,moving,2
8.95,1665525.521319421,25,3,3,3,3,-65.0,1.12,-0.22,3.26,-7.37,2.7,-6.35,84.125,-46.4375,489.25,0.39154052734375,0.70452880859375,0.34942626953125,0.0244,-11.875,12.25,-24.4375,8.49,-2.93,moving,2
8.96,1665525.521319421,25,3,3,3,3,-44.0,0.74,-0.11,3.51,-7.73,2.81,-6.1,74.125,-52.875,487.5625,0.3843994140625,0.70819091796875,0.35211181640625,0.0244,-11.875,12.25,-24.6875,8.48,-2.92,moving,2
8.97,1665525.53520264,25,3,3,3,3,-13.0,0.23,0.02,3.88,-8.21,2.94,-5.59,58.75,-59.0,486.875,0.37750244140625,0.7115478515625,0.353759765625,0.0244,-11.875,12.25,-25.0625,8.45,-2.91,moving,2
8.98,1665525.53520264,25,3,3,3,3,18.0,-0.14,0.21,4.27,-8.57,3.12,-5.02,42.3125,-64.6875,487.25,0.370849609375,0.71441650390625,0.35443115234375,0.0244,-11.875,12.25,-25.5,8.42,-2.9,moving,2
8.99,1665525.565407963,25,3,3,3,3,71.0,-0.39,0.69,4.89,-8.79,3.57,-4.3,20.625,-66.8125,488.9375,0.36492919921875,0.71661376953125,0.35400390625,0.0237,-11.75,14.5625,-26.0625,8.39,-2.87,moving,2
9.0,1665525.565407963,25,3,3,3,3,40.0,-0.26,0.76,4.67,-8.62,3.61,-3.37,1.625,-63.75,491.5625,0.36004638671875,0.718017578125,0.35272216796875,0.0237,-11.75,14.5625,-26.625,8.35,-2.84,moving,2
9.01,1665525.579941369,25,3,3,3,3,-32.0,0.01,0.87,4.02,-8.3,3.7,-2.17,-0.75,-55.0,493.75,0.35601806640625,0.71929931640625,0.35125732421875,0.0237,-11.75,14.5625,-27.125,8.32,-2.82,moving,2
9.02,1665525.579941369,25,3,3,3,3,-135.0,1.08,1.3,3.04,-7.2,4.14,0.22,15.0,-40.4375,494.0,0.35308837890625,0.72119140625,0.34991455078125,0.0237,-11.75,14.5625,-27.5,8.29,-2.84,moving,2
9.03,1665525.594620894,25,3,3,3,3,-135.0,1.08,1.3,3.04,-7.2,4.14,0.22,15.0,-40.4375,494.0,0.35308837890625,0.72119140625,0.34991455078125,0.0237,-11.75,14.5625,-27.5,8.29,-2.84,moving,2
9.03,1665525.594620894,25,3,3,3,3,-333.0,5.03,2.23,1.07,-3.22,5.13,3.84,41.0,-22.6875,491.3125,0.3514404296875,0.724365234375,0.34869384765625,0.0237,-11.75,14.5625,-27.5625,8.26,-2.9,moving,2
9.04,1665525.61022563,25,3,3,3,3,-388.0,7.14,2.68,0.48,-1.08,5.71,7.22,76.4375,-3.875,485.0625,0.3507080078125,0.72900390625,0.3480224609375,0.023,-11.375,14.1875,-27.3125,8.23,-3.02,moving,2
9.05,1665525.61022563,25,3,3,3,3,-432.0,9.08,2.87,-0.02,0.87,6.07,9.77,118.4375,11.6875,475.0625,0.35040283203125,0.7353515625,0.3482666015625,0.023,-11.375,14.1875,-26.8125,8.21,-3.2,moving,2
9.06,1665525.625097823,25,3,3,3,3,-448.0,10.71,2.28,-0.31,2.52,5.68,8.81,161.8125,21.375,462.0,0.3489990234375,0.7427978515625,0.35052490234375,0.023,-11.375,14.1875,-26.0625,8.19,-3.4,moving,2
9.07,1665525.625097823,25,3,3,3,3,-686.0,12.05,-7.5,-2.81,3.84,-3.99,0.09,156.6875,24.625,450.75,0.3458251953125,0.7481689453125,0.356201171875,0.023,-11.375,14.1875,-25.25,8.21,-3.51,moving,2
9.08,1665525.656787317,25,3,3,3,3,-209.0,12.34,-21.2,1.99,4.06,-17.92,-11.9,-171.875,35.1875,463.375,0.35052490234375,0.73809814453125,0.357177734375,0.023,-11.375,14.1875,-25.5625,8.28,-3.28,moving,2
9.09,1665525.656787317,25,3,3,3,3,-1167.0,15.91,-28.94,-7.56,7.53,-25.95,-19.12,-178.5625,50.125,477.1875,0.35455322265625,0.72564697265625,0.361328125,0.023,-10.25,11.875,-25.6875,8.38,-2.98,moving,2
9.1,1665525.671006026,25,3,3,3,3,-1043.0,22.78,-5.49,-6.35,14.34,-2.61,-15.73,55.125,5.375,476.5,0.34918212890625,0.724609375,0.36944580078125,0.023,-10.25,11.875,-25.5,8.43,-2.88,moving,2
9.11,1665525.671006026,25,3,3,3,3,-878.0,22.35,-2.1,-4.69,13.97,0.92,9.86,84.0625,-32.5,470.1875,0.34686279296875,0.73095703125,0.36676025390625,0.023,-10.25,11.875,-25.5,8.38,-3.03,moving,2
9.12,1665525.687848392,25,3,3,3,3,-657.0,18.38,-0.11,-2.46,10.09,3.14,19.09,66.25,-36.6875,463.375,0.34716796875,0.73846435546875,0.35968017578125,0.023,-10.25,11.875,-25.625,8.29,-3.25,moving,2
9.13,1665525.687848392,25,3,3,3,3,-673.0,14.78,0.43,-2.58,6.54,3.76,8.04,-5.6875,-24.875,462.9375,0.34771728515625,0.74053955078125,0.35528564453125,0.023,-10.25,11.875,-25.875,8.24,-3.32,moving,2
9.14,1665525.716269494,25,3,3,3,3,-775.0,14.2,-4.99,-3.56,5.94,-1.77,-6.65,-56.5625,-10.125,468.3125,0.34716796875,0.73736572265625,0.35589599609375,0.0237,-10.25,13.5,-26.1875,8.26,-3.22,moving,2
9.15,1665525.716269494,25,3,3,3,3,-813.0,14.61,-8.65,-3.89,6.31,-5.61,-11.76,-103.25,1.6875,477.3125,0.3475341796875,0.7308349609375,0.3575439453125,0.0237,-10.25,13.5,-26.5,8.3,-3.03,moving,2
9.16,1665525.730051965,25,3,3,3,3,-831.0,13.24,-10.78,-4.02,4.9,-7.91,-8.56,-121.9375,9.0,486.625,0.3497314453125,0.723876953125,0.35760498046875,0.0237,-10.25,13.5,-26.8125,8.33,-2.86,moving,2
9.17,1665525.730051965,25,3,3,3,3,-877.0,12.13,-10.53,-4.46,3.78,-7.73,-2.66,-61.8125,6.75,490.875,0.35137939453125,0.7205810546875,0.3570556640625,0.0237,-10.25,13.5,-26.9375,8.34,-2.79,moving,2
9.18,1665525.746655318,25,3,3,3,3,-725.0,10.35,-5.37,-2.93,2.02,-2.52,6.65,-19.75,4.375,490.6875,0.35406494140625,0.72088623046875,0.35400390625,0.0237,-10.25,13.5,-26.9375,8.33,-2.84,moving,2
9.19,1665525.746655318,25,3,3,3,3,-620.0,9.39,-3.99,-1.89,1.08,-1.04,11.53,-0.0625,7.0,488.1875,0.35748291015625,0.722900390625,0.3497314453125,0.0223,-9.5625,11.5,-26.875,8.3,-2.94,moving,2
9.2,1665525.775494348,25,3,3,3,3,-518.0,8.33,-3.06,-0.9,0.06,0.0,10.95,6.0625,12.75,485.1875,0.3609619140625,0.724853515625,0.34613037109375,0.0223,-9.5625,11.5,-26.75,8.27,-3.05,moving,2
9.21,1665525.775494348,25,3,3,3,3,-447.0,7.19,-2.17,-0.21,-1.06,0.95,7.98,-5.3125,20.6875,483.3125,0.364501953125,0.7254638671875,0.34368896484375,0.0223,-9.5625,11.5,-26.5625,8.26,-3.12,moving,2
9.22,1665525.805404097,25,3,3,3,3,-418.0,5.45,-0.87,0.04,-2.81,2.26,3.84,-22.6875,28.25,483.125,0.367919921875,0.724365234375,0.34259033203125,0.0223,-9.5625,11.5,-26.4375,8.27,-3.13,moving,2
9.23,1665525.805404097,25,3,3,3,3,-401.0,5.21,-0.66,0.18,-3.08,2.45,0.68,-36.5625,33.125,484.3125,0.37127685546875,0.721923828125,0.34246826171875,0.0223,-9.5625,11.5,-26.25,8.29,-3.11,moving,2
9.24,1665525.811491866,25,3,3,3,3,-362.0,4.98,-0.7,0.55,-3.34,2.37,-0.8,-43.5,35.4375,486.1875,0.3746337890625,0.71881103515625,0.34283447265625,0.0233,-10.5625,11.5,-26.0625,8.32,-3.07,moving,2
9.25,1665525.811491866,25,3,3,3,3,-292.0,4.59,-0.81,1.22,-3.75,2.22,-1.23,-45.4375,35.5,488.25,0.37786865234375,0.71551513671875,0.34332275390625,0.0233,-10.5625,11.5,-25.875,8.35,-3.03,moving,2
9.26,1665525.836291101,25,3,3,3,3,-249.0,4.38,-0.8,1.62,-3.99,2.18,-1.15,-45.4375,34.6875,490.3125,0.381103515625,0.7122802734375,0.34368896484375,0.0233,-10.5625,11.5,-25.75,8.38,-2.99,moving,2
9.27,1665525.836291101,25,3,3,3,3,-192.0,4.06,-0.79,2.16,-4.34,2.16,-0.52,-46.1875,33.375,492.375,0.3843994140625,0.7091064453125,0.34375,0.0233,-10.5625,11.5,-25.5625,8.4,-2.95,moving,2
9.28,1665525.850740157,25,3,3,3,3,-133.0,3.77,-0.61,2.74,-4.65,2.3,0.43,-47.5625,32.5,494.25,0.38800048828125,0.70611572265625,0.34332275390625,0.0233,-10.5625,11.5,-25.4375,8.42,-2.92,moving,2
9.29,1665525.850740157,25,3,3,3,3,-133.0,3.77,-0.61,2.74,-4.65,2.3,0.43,-47.5625,32.5,494.25,0.38800048828125,0.70611572265625,0.34332275390625,0.0233,-10.5625,11.5,-25.4375,8.42,-2.92,moving,2
9.29,1665525.8563783,25,3,3,3,3,-24.0,3.12,-0.13,3.8,-5.32,2.77,1.91,-50.0,31.5625,496.0625,0.39190673828125,0.70330810546875,0.34222412109375,0.0244,-11.75,13.75,-25.3125,8.44,-2.9,moving,2
9.3,1665525.8563783,25,3,3,3,3,11.0,2.51,0.2,4.14,-5.93,3.11,3.36,-52.375,30.375,497.625,0.396240234375,0.70068359375,0.3404541015625,0.0244,-11.75,13.75,-25.1875,8.45,-2.9,moving,2
9.31,1665525.880873987,25,3,3,3,3,19.0,1.96,0.52,4.21,-6.49,3.43,4.65,-53.4375,27.9375,499.125,0.4007568359375,0.69830322265625,0.3380126953125,0.0244,-11.75,13.75,-25.0625,8.46,-2.9,moving,2
9.32,1665525.880873987,25,3,3,3,3,21.0,1.51,0.77,4.23,-6.94,3.69,5.76,-53.5,23.625,500.4375,0.4052734375,0.69622802734375,0.33489990234375,0.0244,-11.75,13.75,-25.0625,8.45,-2.92,moving,2
9.33,1665525.895922489,25,3,3,3,3,7.0,0.91,0.93,4.08,-7.53,3.88,6.55,-55.0625,17.1875,501.875,0.40966796875,0.6944580078125,0.33123779296875,0.0244,-11.75,13.75,-25.0625,8.44,-2.94,moving,2
9.34,1665525.895922489,25,3,3,3,2,-17.0,0.73,0.83,3.85,-7.69,3.79,6.85,-59.375,9.25,503.6875,0.41375732421875,0.69281005859375,0.326904296875,0.0244,-12.75,13.75,-25.1875,8.43,-2.96,moving,2
9.35,1665525.925411381,25,3,3,3,2,-39.0,0.88,0.68,3.66,-7.52,3.66,6.84,-64.0,2.75,506.0,0.4176025390625,0.691162109375,0.32208251953125,0.0244,-12.75,13.75,-25.375,8.41,-2.98,moving,2
9.36,1665525.925411381,25,3,3,3,2,-59.0,1.66,0.61,3.49,-6.72,3.62,7.02,-61.375,0.5,508.125,0.42120361328125,0.689697265625,0.31719970703125,0.0244,-12.75,13.75,-25.5625,8.39,-3.0,moving,2
9.37,1665525.939263757,25,3,3,3,2,-166.0,4.51,0.42,2.44,-3.85,3.46,8.1,-44.0625,3.5,508.8125,0.4248046875,0.6890869140625,0.31268310546875,0.0244,-12.75,13.75,-25.6875,8.36,-3.04,moving,2
9.38,1665525.939263757,25,3,3,3,2,-279.0,6.19,0.54,1.3,-2.15,3.66,8.55,-9.25,11.375,507.0625,0.4281005859375,0.689697265625,0.30963134765625,0.0244,-12.75,13.75,-25.5625,8.34,-3.11,moving,2
9.39,1665525.954482914,25,3,3,3,2,-417.0,7.95,0.39,-0.12,-0.37,3.61,9.16,29.0625,22.4375,502.4375,0.43109130859375,0.691650390625,0.30828857421875,0.0251,-12.75,13.75,-25.25,8.33,-3.22,moving,2
9.4,1665525.954482914,25,3,3,3,2,-694.0,11.73,-3.16,-2.96,3.41,0.17,10.17,41.0625,32.1875,496.5625,0.43463134765625,0.69384765625,0.307373046875,0.0251,-12.75,13.75,-24.8125,8.31,-3.34,moving,2
9.41,1665525.98504224,25,3,3,3,2,-674.0,12.2,-7.19,-2.81,3.89,-3.79,6.83,-2.75,32.9375,494.1875,0.43853759765625,0.693603515625,0.3060302734375,0.0251,-12.75,13.75,-24.5625,8.31,-3.4,moving,2
9.42,1665525.98504224,25,3,3,3,2,-431.0,11.25,-11.35,-0.35,2.91,-8.06,-1.29,-142.0,38.3125,502.25,0.44427490234375,0.6859130859375,0.302734375,0.0251,-12.75,13.75,-24.75,8.34,-3.29,moving,2
9.43,1665526.000459436,25,3,3,3,2,-590.0,13.14,-17.68,-1.93,4.73,-14.58,-8.98,-157.3125,46.9375,512.75,0.44873046875,0.67578125,0.30194091796875,0.0251,-12.75,13.75,-24.8125,8.4,-3.1,moving,2
9.44,1665526.000459436,25,3,3,3,2,-1010.0,24.63,-10.14,-6.13,16.17,-7.15,-9.54,-41.8125,24.6875,517.0,0.44866943359375,0.67138671875,0.304931640625,0.0255,-12.0625,11.5,-24.75,8.45,-2.98,moving,2
9.45,1665526.014801599,25,3,3,3,2,-908.0,26.83,-6.33,-5.11,18.39,-3.3,2.54,21.5625,-12.1875,515.375,0.4481201171875,0.67327880859375,0.30426025390625,0.0255,-12.0625,11.5,-24.8125,8.44,-3.02,moving,2
9.46,1665526.014801599,25,3,3,3,2,-646.0,24.15,-3.9,-2.46,15.76,-0.76,9.61,47.6875,-30.75,510.9375,0.44769287109375,0.67816162109375,0.30126953125,0.0255,-12.0625,11.5,-24.9375,8.38,-3.14,moving,2
9.47,1665526.048307743,25,3,3,3,2,-500.0,19.51,-2.13,-1.0,11.16,1.1,6.25,48.625,-30.0,507.25,0.4462890625,0.68243408203125,0.299560546875,0.0255,-12.0625,11.5,-25.0,8.34,-3.23,moving,2
9.48,1665526.048307743,25,3,3,3,2,-676.0,14.56,-3.61,-2.74,6.22,-0.38,-2.39,33.4375,-22.0,506.375,0.4434814453125,0.684326171875,0.30078125,0.0255,-12.0625,11.5,-25.125,8.33,-3.23,moving,2
9.49,1665526.059925256,25,3,3,3,2,-668.0,13.85,-6.8,-2.64,5.49,-3.63,-8.43,9.625,-14.6875,508.25,0.4400634765625,0.6839599609375,0.3037109375,0.0248,-11.75,7.25,-25.1875,8.35,-3.16,moving,2
9.5,1665526.059925256,25,3,3,3,2,-613.0,13.04,-8.6,-2.08,4.66,-5.52,-10.04,-3.0625,-11.625,511.1875,0.436767578125,0.68255615234375,0.30682373046875,0.0248,-11.75,7.25,-25.3125,8.38,-3.07,moving,2
9.51,1665526.0748547,25,3,3,3,2,-601.0,11.85,-8.08,-1.96,3.45,-5.06,-8.13,31.9375,-14.0625,511.625,0.43280029296875,0.68310546875,0.3104248046875,0.0248,-11.75,7.25,-25.3125,8.4,-3.02,moving,2
9.52,1665526.0748547,25,3,3,3,2,-507.0,10.47,-5.0,-1.01,2.08,-1.97,-1.87,50.6875,-17.3125,509.4375,0.429931640625,0.6856689453125,0.31231689453125,0.0248,-11.75,7.25,-25.3125,8.39,-3.03,moving,2
9.53,1665526.105273726,25,3,3,3,2,-429.0,9.71,-4.03,-0.24,1.34,-0.93,2.18,62.6875,-18.6875,505.5625,0.42767333984375,0.689453125,0.31304931640625,0.0248,-11.75,7.25,-25.3125,8.37,-3.1,moving,2
9.54,1665526.105273726,25,3,3,3,2,-376.0,8.75,-3.1,0.27,0.39,0.06,2.05,68.9375,-18.1875,501.375,0.42523193359375,0.69342041015625,0.31402587890625,0.0248,-13.875,9.5625,-25.1875,8.35,-3.17,moving,2
9.55,1665526.110703902,25,3,3,3,2,-376.0,8.75,-3.1,0.27,0.39,0.06,2.05,68.9375,-18.1875,501.375,0.42523193359375,0.69342041015625,0.31402587890625,0.0248,-13.875,9.5625,-25.1875,8.35,-3.17,moving,2
9.55,1665526.110703902,25,3,3,3,2,-359.0,7.91,-2.53,0.43,-0.43,0.67,-0.16,63.0,-17.125,497.9375,0.42242431640625,0.69671630859375,0.31573486328125,0.0248,-13.875,9.5625,-25.125,8.34,-3.21,moving,2
9.56,1665526.134582646,25,3,3,3,2,-318.0,6.42,-1.9,0.82,-1.92,1.32,-2.86,59.3125,-15.5625,495.375,0.41912841796875,0.69927978515625,0.318359375,0.0248,-13.875,9.5625,-25.0625,8.34,-3.22,moving,2
9.57,1665526.134582646,25,3,3,3,2,-293.0,5.98,-1.76,1.07,-2.36,1.46,-4.74,61.625,-14.375,493.0,0.415283203125,0.70159912109375,0.32177734375,0.0248,-13.875,9.5625,-25.0,8.34,-3.22,moving,2
9.58,1665526.150048873,25,3,3,3,2,-275.0,5.56,-1.76,1.22,-2.79,1.46,-5.33,64.25,-14.375,490.625,0.41119384765625,0.703857421875,0.3255615234375,0.0248,-13.875,9.5625,-24.875,8.35,-3.22,moving,2
9.59,1665526.150048873,25,3,3,3,2,-234.0,4.85,-1.86,1.62,-3.51,1.35,-5.54,65.8125,-16.5,488.1875,0.4068603515625,0.7061767578125,0.329345703125,0.0244,-12.0625,11.875,-24.8125,8.36,-3.22,moving,2
9.6,1665526.164718428,25,3,3,3,2,-193.0,4.41,-1.8,2.03,-3.95,1.41,-5.92,65.9375,-20.3125,486.0,0.40216064453125,0.70855712890625,0.3331298828125,0.0244,-12.0625,11.875,-24.75,8.37,-3.21,moving,2
9.61,1665526.164718428,25,3,3,3,2,-143.0,3.77,-1.66,2.52,-4.6,1.53,-6.33,66.375,-24.8125,483.9375,0.39703369140625,0.71099853515625,0.33685302734375,0.0244,-12.0625,11.875,-24.75,8.37,-3.2,moving,2
9.62,1665526.195030888,25,3,3,3,2,-103.0,2.94,-1.43,2.94,-5.44,1.75,-6.7,68.3125,-29.5,481.9375,0.3914794921875,0.713623046875,0.34063720703125,0.0244,-12.0625,11.875,-24.8125,8.38,-3.18,moving,2
9.63,1665526.195030888,25,3,3,3,2,-27.0,1.2,-0.86,3.7,-7.17,2.3,-6.9,71.8125,-33.875,479.875,0.38543701171875,0.7164306640625,0.3443603515625,0.0244,-12.0625,11.875,-24.875,8.38,-3.17,moving,2
9.64,1665526.209922082,25,3,3,3,2,-5.0,0.49,-0.52,3.93,-7.88,2.63,-7.08,70.5,-37.375,478.0,0.379150390625,0.71917724609375,0.34796142578125,0.0244,-12.0625,15.0,-24.9375,8.37,-3.15,moving,2
9.65,1665526.209922082,25,3,3,3,2,6.0,0.07,-0.27,4.08,-8.29,2.86,-7.06,63.4375,-40.25,476.6875,0.3729248046875,0.72174072265625,0.3511962890625,0.0244,-12.0625,15.0,-25.125,8.37,-3.13,moving,2
9.66,1665526.224226729,25,3,3,3,2,5.0,-0.23,-0.06,4.11,-8.6,3.04,-6.77,52.0,-43.6875,476.0625,0.36688232421875,0.72393798828125,0.353759765625,0.0244,-12.0625,15.0,-25.3125,8.36,-3.11,moving,2
9.67,1665526.224226729,25,3,3,3,2,-35.0,-0.89,0.28,3.75,-9.25,3.36,-6.21,37.375,-46.8125,476.375,0.36114501953125,0.72576904296875,0.35552978515625,0.0244,-12.0625,15.0,-25.625,8.35,-3.08,moving,2
9.68,1665526.254677006,25,3,3,3,2,-40.0,-1.01,0.46,3.75,-9.35,3.51,-5.3,24.0,-49.25,477.4375,0.35595703125,0.72723388671875,0.35638427734375,0.0244,-12.0625,15.0,-26.0,8.33,-3.05,moving,2
9.69,1665526.254677006,25,3,3,3,2,-62.0,-1.11,0.55,3.6,-9.42,3.59,-3.47,17.1875,-49.375,478.5625,0.35137939453125,0.72882080078125,0.35626220703125,0.0226,-12.0625,18.5,-26.375,8.31,-3.03,moving,2
9.7,1665526.270040572,25,3,3,3,2,-70.0,-0.59,0.7,3.57,-8.87,3.74,-1.35,18.5625,-45.8125,479.0625,0.34759521484375,0.730712890625,0.35552978515625,0.0226,-12.0625,18.5,-26.75,8.28,-3.03,moving,2
9.71,1665526.270040572,25,3,3,3,2,-140.0,2.24,1.37,2.91,-6.01,4.43,1.33,23.5,-35.25,478.4375,0.34490966796875,0.73297119140625,0.354248046875,0.0226,-12.0625,18.5,-26.9375,8.25,-3.06,moving,2
9.72,1665526.299685225,25,3,3,3,2,-220.0,4.19,1.67,2.12,-4.03,4.79,3.83,38.25,-22.0625,475.875,0.34332275390625,0.73590087890625,0.35296630859375,0.0226,-12.0625,18.5,-27.0625,8.22,-3.12,moving,2
9.73,1665526.299685225,25,3,3,3,2,-297.0,6.36,2.22,1.32,-1.83,5.44,5.43,59.3125,-6.375,471.125,0.34246826171875,0.73956298828125,0.35235595703125,0.0226,-12.0625,18.5,-26.875,8.2,-3.22,moving,2
9.74,1665526.317006352,25,3,3,3,1,-440.0,11.84,2.46,-0.16,3.65,5.81,6.88,86.3125,11.6875,463.6875,0.34228515625,0.74395751953125,0.35260009765625,0.0226,-11.375,18.0625,-26.5,8.18,-3.34,moving,2
9.75,1665526.317006352,25,3,3,3,1,-532.0,14.61,1.12,-1.18,6.43,4.61,6.3,119.375,24.875,453.75,0.34173583984375,0.74908447265625,0.3546142578125,0.0226,-11.375,18.0625,-25.8125,8.17,-3.48,moving,2
9.76,1665526.331666182,25,3,3,3,1,-735.0,15.03,-6.27,-3.31,6.82,-2.73,-1.53,83.1875,28.875,447.5625,0.3406982421875,0.7510986328125,0.35882568359375,0.0226,-11.375,18.0625,-25.25,8.2,-3.53,moving,2
9.77,1665526.331666182,25,3,3,3,1,-248.0,12.39,-22.43,1.63,4.1,-19.19,-12.23,-265.8125,50.625,466.0,0.34930419921875,0.73681640625,0.3577880859375,0.0226,-11.375,18.0625,-25.75,8.28,-3.23,moving,2
9.78,1665526.345876754,25,3,3,3,1,-1331.0,23.8,-18.49,-9.19,15.4,-15.55,-20.45,-148.375,58.3125,477.8125,0.3525390625,0.72503662109375,0.36370849609375,0.0226,-11.375,18.0625,-25.75,8.39,-2.94,moving,2
9.79,1665526.345876754,25,3,3,3,1,-1159.0,27.14,-5.16,-7.5,18.71,-2.25,-7.59,61.625,-2.0625,475.3125,0.3485107421875,0.72613525390625,0.3685302734375,0.0223,-9.875,15.0,-25.5625,8.42,-2.91,moving,2
9.8,1665526.359923751,25,3,3,3,1,-1005.0,24.17,-1.03,-5.95,15.84,2.11,17.64,95.1875,-41.625,467.0625,0.3472900390625,0.73468017578125,0.36273193359375,0.0223,-9.875,15.0,-25.625,8.33,-3.14,moving,2
9.81,1665526.359923751,25,3,3,3,1,-1005.0,24.17,-1.03,-5.95,15.84,2.11,17.64,95.1875,-41.625,467.0625,0.3472900390625,0.73468017578125,0.36273193359375,0.0223,-9.875,15.0,-25.625,8.33,-3.14,moving,2
9.81,1665526.375480473,25,3,3,3,1,-660.0,18.33,0.71,-2.48,10.1,4.1,20.93,74.8125,-42.75,459.4375,0.34735107421875,0.7430419921875,0.35491943359375,0.0223,-9.875,15.0,-25.75,8.22,-3.38,moving,2
9.82,1665526.375480473,25,3,3,3,1,-783.0,11.87,0.12,-3.67,3.68,3.57,7.6,-4.5625,-25.8125,459.0625,0.34765625,0.7451171875,0.3507080078125,0.0223,-9.875,15.0,-26.0,8.18,-3.45,moving,2
9.83,1665526.405682052,25,3,3,3,1,-820.0,13.34,-2.79,-4.0,5.14,0.56,-6.52,-51.6875,-7.6875,464.0,0.34716796875,0.7420654296875,0.35150146484375,0.0223,-9.875,15.0,-26.25,8.2,-3.35,moving,2
9.84,1665526.405682052,25,3,3,3,1,-825.0,13.95,-6.58,-4.0,5.7,-3.42,-12.53,-110.25,6.875,473.5,0.34783935546875,0.7349853515625,0.35345458984375,0.0241,-10.5625,13.5,-26.5625,8.25,-3.16,moving,2
9.85,1665526.419933883,25,3,3,3,1,-862.0,13.32,-9.27,-4.31,5.01,-6.32,-11.81,-144.3125,16.5625,484.6875,0.350341796875,0.726318359375,0.3544921875,0.0241,-10.5625,13.5,-26.875,8.3,-2.94,moving,2
9.86,1665526.419933883,25,3,3,3,1,-922.0,12.53,-8.75,-4.89,4.19,-5.94,-6.69,-91.8125,12.9375,491.5625,0.352294921875,0.7208251953125,0.3548583984375,0.0241,-10.5625,13.5,-27.0625,8.33,-2.81,moving,2
9.87,1665526.434486943,25,3,3,3,1,-817.0,11.45,-6.36,-3.83,3.13,-3.53,4.01,-34.1875,5.5625,492.8125,0.354736328125,0.719970703125,0.35247802734375,0.0241,-10.5625,13.5,-27.125,8.32,-2.82,moving,2
9.88,1665526.434486943,25,3,3,3,1,-706.0,10.79,-4.67,-2.73,2.5,-1.75,10.87,-3.3125,5.3125,490.6875,0.3580322265625,0.72174072265625,0.34832763671875,0.0241,-10.5625,13.5,-27.0625,8.29,-2.92,moving,2
9.89,1665526.466238814,25,3,3,3,1,-574.0,8.95,-2.63,-1.42,0.69,0.39,11.5,5.75,9.625,487.6875,0.3614501953125,0.72381591796875,0.3443603515625,0.0233,-11.0,13.0,-26.9375,8.26,-3.03,moving,2
9.9,1665526.466238814,25,3,3,3,1,-542.0,7.79,-1.81,-1.12,-0.45,1.3,8.59,3.1875,15.0,485.3125,0.36456298828125,0.72509765625,0.34173583984375,0.0233,-11.0,13.0,-26.8125,8.24,-3.11,moving,2
9.91,1665526.480195764,25,3,3,3,1,-523.0,6.66,-1.17,-0.96,-1.58,1.97,5.11,-10.6875,20.0625,484.3125,0.367431640625,0.7249755859375,0.3402099609375,0.0233,-11.0,13.0,-26.6875,8.24,-3.14,moving,2
9.92,1665526.480195764,25,3,3,3,1,-478.0,6.04,-0.85,-0.53,-2.21,2.29,2.65,-27.875,23.5,484.875,0.37042236328125,0.7235107421875,0.3392333984375,0.0233,-11.0,13.0,-26.5625,8.25,-3.15,moving,2
9.93,1665526.494361902,25,3,3,3,1,-338.0,5.5,-0.74,0.85,-2.76,2.39,1.24,-39.8125,25.75,486.4375,0.37353515625,0.72125244140625,0.3385009765625,0.0233,-11.0,13.0,-26.4375,8.26,-3.13,moving,2
9.94,1665526.494361902,25,3,3,3,1,-282.0,5.24,-0.85,1.4,-3.04,2.24,0.54,-45.4375,27.0,488.4375,0.37677001953125,0.71856689453125,0.33795166015625,0.0241,-11.75,12.5,-26.375,8.28,-3.1,moving,2
9.95,1665526.525336593,25,3,3,3,1,-228.0,5.03,-0.87,1.92,-3.27,2.19,0.33,-48.0625,27.5625,490.625,0.37994384765625,0.7156982421875,0.33740234375,0.0241,-11.75,12.5,-26.3125,8.3,-3.07,moving,2
9.96,1665526.525336593,25,3,3,3,1,-175.0,4.61,-0.82,2.44,-3.7,2.21,0.67,-49.375,27.4375,492.8125,0.38330078125,0.71282958984375,0.33660888671875,0.0241,-11.75,12.5,-26.1875,8.32,-3.04,moving,2
9.97,1665526.541438318,25,3,3,3,1,-98.0,3.56,-0.43,3.19,-4.77,2.58,1.37,-47.8125,27.5,494.75,0.38677978515625,0.71014404296875,0.33563232421875,0.0241,-11.75,12.5,-26.125,8.34,-3.01,moving,2
9.98,1665526.541438318,25,3,3,3,1,-89.0,3.13,-0.11,3.27,-5.22,2.88,2.1,-47.5,26.9375,496.5,0.390380859375,0.7076416015625,0.3343505859375,0.0241,-11.75,12.5,-26.0,8.35,-3.0,moving,2
9.99,1665526.555312382,25,3,3,3,1,-91.0,2.64,0.17,3.24,-5.71,3.17,3.01,-49.1875,26.25,498.125,0.39422607421875,0.7052001953125,0.3326416015625,0.0248,-12.375,15.0,-25.9375,8.36,-2.99,moving,2
10.0,1665526.555312382,25,3,3,3,1,-93.0,2.25,0.38,3.21,-6.11,3.38,4.05,-50.5,25.125,499.6875,0.3983154296875,0.702880859375,0.3304443359375,0.0248,-12.375,15.0,-25.875,8.36,-2.99,moving,2
10.01,1665526.587205896,25,3,3,3,1,-90.0,1.52,0.66,3.23,-6.84,3.67,5.02,-50.75,23.25,501.0625,0.40252685546875,0.7008056640625,0.3277587890625,0.0248,-12.375,15.0,-25.8125,8.36,-3.0,moving,2
10.02,1665526.587205896,25,3,3,3,1,-81.0,1.17,0.68,3.31,-7.19,3.7,5.75,-50.75,21.0,502.375,0.40679931640625,0.69891357421875,0.32464599609375,0.0248,-12.375,15.0,-25.8125,8.36,-3.01,moving,2
10.03,1665526.601038009,25,3,3,3,1,-76.0,0.79,0.6,3.37,-7.55,3.64,6.26,-49.9375,18.9375,503.5,0.4110107421875,0.6971435546875,0.3212890625,0.0248,-12.375,15.0,-25.8125,8.35,-3.03,moving,2
10.04,1665526.601038009,25,3,3,3,1,-73.0,0.54,0.48,3.4,-7.8,3.55,7.03,-49.25,17.25,504.5,0.41534423828125,0.6956787109375,0.317626953125,0.0251,-12.0625,15.25,-25.8125,8.34,-3.06,moving,2
10.05,1665526.616107548,25,3,3,3,1,-41.0,0.7,0.5,3.72,-7.62,3.59,7.13,-49.25,15.8125,505.4375,0.4195556640625,0.69415283203125,0.31378173828125,0.0251,-12.0625,15.25,-25.8125,8.33,-3.09,moving,2
10.06,1665526.616107548,25,3,3,3,1,-47.0,1.25,0.42,3.66,-7.06,3.54,7.73,-52.125,16.25,506.375,0.42401123046875,0.692626953125,0.3096923828125,0.0251,-12.0625,15.25,-25.875,8.31,-3.12,moving,2
10.07,1665526.630430465,25,3,3,3,1,-47.0,1.25,0.42,3.66,-7.06,3.54,7.73,-52.125,16.25,506.375,0.42401123046875,0.692626953125,0.3096923828125,0.0251,-12.0625,15.25,-25.875,8.31,-3.12,moving,2
10.07,1665526.630430465,25,3,3,3,1,-51.0,2.27,0.47,3.62,-6.03,3.63,8.32,-51.9375,20.0625,507.0625,0.42889404296875,0.6910400390625,0.30548095703125,0.0251,-12.0625,15.25,-25.875,8.3,-3.16,moving,2
10.08,1665526.644263595,25,3,3,3,1,-160.0,4.87,0.46,2.52,-3.42,3.67,8.48,-43.9375,26.4375,507.0625,0.43389892578125,0.68951416015625,0.3017578125,0.0251,-12.0625,15.25,-25.75,8.29,-3.21,moving,2
10.09,1665526.644263595,25,3,3,3,1,-249.0,6.31,0.28,1.59,-1.97,3.55,8.54,-25.5625,34.5625,505.625,0.43896484375,0.6884765625,0.29913330078125,0.0248,-12.75,13.25,-25.5625,8.29,-3.26,moving,2
10.1,1665526.675943201,25,3,3,3,1,-351.0,7.72,-0.39,0.51,-0.56,2.94,8.64,1.375,44.3125,502.25,0.44390869140625,0.688232421875,0.2978515625,0.0248,-12.75,13.25,-25.125,8.29,-3.34,moving,2
10.11,1665526.675943201,25,3,3,3,1,-459.0,9.34,-1.89,-0.65,1.05,1.54,8.86,16.5625,52.5625,497.625,0.448974609375,0.68829345703125,0.29742431640625,0.0248,-12.75,13.25,-24.625,8.29,-3.43,moving,2
10.12,1665526.69174089,25,3,3,3,1,-471.0,10.67,-6.99,-0.83,2.36,-3.51,6.15,-19.75,55.875,495.8125,0.4544677734375,0.686279296875,0.29669189453125,0.0248,-12.75,13.25,-24.1875,8.3,-3.48,moving,2
10.13,1665526.69174089,25,3,3,3,1,-420.0,9.2,-12.14,-0.33,0.85,-8.76,-0.05,-144.625,63.75,503.0,0.46197509765625,0.67755126953125,0.29364013671875,0.0248,-12.75,13.25,-24.125,8.35,-3.38,moving,2
10.14,1665526.704769332,25,3,3,3,1,-534.0,10.31,-19.11,-1.48,1.89,-15.9,-7.23,-169.8125,68.0625,513.25,0.46832275390625,0.666259765625,0.2923583984375,0.0259,-12.375,11.75,-24.125,8.42,-3.2,moving,2
10.15,1665526.704769332,25,3,3,3,1,-696.0,15.71,-16.0,-3.14,7.23,-12.89,-7.08,-32.875,45.375,515.875,0.46990966796875,0.661865234375,0.29559326171875,0.0259,-12.375,11.75,-23.8125,8.47,-3.11,moving,2
10.16,1665526.735883427,25,3,3,3,1,-725.0,21.38,-5.49,-3.46,12.91,-2.3,5.87,31.875,9.75,512.1875,0.47125244140625,0.66375732421875,0.295166015625,0.0259,-12.375,11.75,-23.625,8.46,-3.19,moving,2
10.17,1665526.735883427,25,3,3,3,1,-677.0,21.85,-4.3,-2.99,13.44,-0.96,12.83,48.75,-13.3125,506.25,0.47271728515625,0.66851806640625,0.2919921875,0.0259,-12.375,11.75,-23.5625,8.41,-3.34,moving,2
10.18,1665526.7498158,25,3,3,3,1,-664.0,21.46,-3.66,-2.85,13.09,-0.22,9.4,33.0,-19.0625,502.3125,0.4732666015625,0.67218017578125,0.2890625,0.0259,-12.375,11.75,-23.625,8.36,-3.44,moving,2
10.19,1665526.7498158,25,3,3,3,1,-706.0,19.19,-4.14,-3.26,10.85,-0.66,2.3,7.0,-16.1875,501.6875,0.4727783203125,0.67352294921875,0.287841796875,0.0251,-13.5625,4.875,-23.75,8.34,-3.47,moving,2
10.2,1665526.764805872,25,3,3,3,1,-835.0,16.44,-7.78,-4.53,8.09,-4.35,-4.71,5.1875,-13.6875,502.9375,0.4705810546875,0.67352294921875,0.2891845703125,0.0251,-13.5625,4.875,-23.8125,8.35,-3.43,moving,2
10.21,1665526.764805872,25,3,3,3,1,-902.0,15.72,-9.23,-5.18,7.34,-5.87,-8.98,8.9375,-14.375,505.125,0.46710205078125,0.673095703125,0.292236328125,0.0251,-13.5625,4.875,-23.9375,8.37,-3.35,moving,2
10.22,1665526.798121505,25,3,3,3,1,-854.0,14.49,-9.45,-4.68,6.1,-6.16,-8.21,11.1875,-21.0625,507.125,0.46337890625,0.673095703125,0.2947998046875,0.0251,-13.5625,4.875,-24.0625,8.39,-3.29,moving,2
10.23,1665526.798121505,25,3,3,3,1,-638.0,11.89,-6.04,-2.5,3.5,-2.77,-4.11,37.875,-31.0625,506.75,0.45941162109375,0.67535400390625,0.2965087890625,0.0251,-13.5625,4.875,-24.25,8.38,-3.27,moving,2
10.24,1665526.811452234,25,3,3,3,2,-510.0,10.62,-4.82,-1.19,2.26,-1.5,0.39,58.9375,-38.5,504.125,0.45574951171875,0.67950439453125,0.29705810546875,0.0261,-12.0625,6.75,-24.375,8.35,-3.32,moving,2
10.25,1665526.811452234,25,3,3,3,2,-439.0,9.41,-4.21,-0.46,1.09,-0.82,1.95,66.6875,-40.6875,500.625,0.4521484375,0.68426513671875,0.2972412109375,0.0261,-12.0625,6.75,-24.5,8.32,-3.38,moving,2
10.26,1665526.825944625,25,3,3,3,2,-378.0,8.29,-3.47,0.15,0.0,-0.04,-0.4,71.75,-39.6875,497.375,0.44775390625,0.68878173828125,0.29852294921875,0.0261,-12.0625,6.75,-24.5625,8.29,-3.43,moving,2
10.27,1665526.825944625,25,3,3,3,2,-334.0,6.14,-1.96,0.6,-2.14,1.48,-3.78,70.0,-36.875,494.9375,0.4427490234375,0.69256591796875,0.3011474609375,0.0261,-12.0625,6.75,-24.6875,8.28,-3.44,moving,2
10.28,1665526.855924483,25,3,3,3,2,-321.0,5.45,-1.65,0.74,-2.83,1.77,-6.82,62.0625,-33.375,493.6875,0.437255859375,0.69537353515625,0.3046875,0.0261,-12.0625,6.75,-24.75,8.29,-3.42,moving,2
10.29,1665526.855924483,25,3,3,3,2,-313.0,5.14,-1.59,0.83,-3.15,1.78,-9.27,56.3125,-30.375,493.25,0.4315185546875,0.69732666015625,0.30908203125,0.0248,-12.75,8.75,-24.8125,8.3,-3.38,moving,2
10.3,1665526.870731979,25,3,3,3,2,-306.0,5.07,-1.66,0.91,-3.25,1.65,-10.72,57.9375,-28.875,493.0,0.42535400390625,0.698974609375,0.3140869140625,0.0248,-12.75,8.75,-24.875,8.32,-3.32,moving,2
10.31,1665526.870731979,25,3,3,3,2,-257.0,4.76,-1.79,1.4,-3.57,1.47,-11.0,63.375,-28.9375,492.4375,0.4189453125,0.7008056640625,0.3194580078125,0.0248,-12.75,8.75,-24.875,8.34,-3.26,moving,2
10.32,1665526.884642989,25,3,3,3,2,-257.0,4.76,-1.79,1.4,-3.57,1.47,-11.0,63.375,-28.9375,492.4375,0.4189453125,0.7008056640625,0.3194580078125,0.0248,-12.75,8.75,-24.875,8.34,-3.26,moving,2
10.32,1665526.884642989,25,3,3,3,2,-228.0,4.77,-1.72,1.71,-3.57,1.49,-10.39,67.3125,-29.9375,491.5,0.4124755859375,0.70294189453125,0.3245849609375,0.0248,-12.75,8.75,-24.9375,8.35,-3.22,moving,2
10.33,1665526.900769332,25,3,3,3,2,-187.0,4.52,-1.59,2.12,-3.84,1.58,-9.4,71.9375,-32.5,490.0625,0.406005859375,0.70538330078125,0.32940673828125,0.0248,-12.75,8.75,-24.9375,8.36,-3.18,moving,2
10.34,1665526.900769332,25,3,3,3,2,-146.0,4.1,-1.4,2.54,-4.26,1.75,-8.17,80.1875,-35.5,487.9375,0.39935302734375,0.70849609375,0.33392333984375,0.0248,-11.75,13.5,-25.0,8.37,-3.16,moving,2
10.35,1665526.91440951,25,3,3,3,2,-77.0,2.56,-0.76,3.24,-5.8,2.39,-6.84,88.25,-39.3125,485.0,0.392578125,0.7122802734375,0.3380126953125,0.0248,-11.75,13.5,-25.0625,8.36,-3.16,moving,2
10.36,1665526.91440951,25,3,3,3,2,-49.0,1.84,-0.43,3.53,-6.51,2.74,-5.66,92.4375,-42.875,481.625,0.38568115234375,0.71649169921875,0.341552734375,0.0248,-11.75,13.5,-25.125,8.35,-3.17,moving,2
10.37,1665526.944016728,25,3,3,3,2,-34.0,1.19,-0.06,3.7,-7.15,3.13,-4.96,88.1875,-46.4375,478.4375,0.37884521484375,0.720703125,0.34454345703125,0.0248,-11.75,13.5,-25.25,8.34,-3.19,moving,2
10.38,1665526.944016728,25,3,3,3,2,-29.0,0.8,0.26,3.77,-7.51,3.46,-4.71,76.1875,-50.8125,476.125,0.37213134765625,0.724609375,0.34686279296875,0.0248,-11.75,13.5,-25.4375,8.32,-3.2,moving,2
10.39,1665526.959501225,25,3,3,3,2,7.0,0.19,0.8,4.19,-8.1,4.01,-4.54,59.75,-54.625,474.875,0.36572265625,0.7279052734375,0.348388671875,0.0241,-11.75,17.0,-25.75,8.29,-3.2,moving,2
10.4,1665526.959501225,25,3,3,3,2,29.0,0.0,1.03,4.47,-8.27,4.23,-4.14,42.5625,-57.125,474.6875,0.3597412109375,0.73065185546875,0.34906005859375,0.0241,-11.75,17.0,-26.125,8.27,-3.2,moving,2
10.41,1665526.973647425,25,3,3,3,2,37.0,-0.06,1.21,4.62,-8.31,4.4,-3.86,30.0,-58.125,475.3125,0.35418701171875,0.73291015625,0.34918212890625,0.0241,-11.75,17.0,-26.5,8.24,-3.18,moving,2
10.42,1665526.973647425,25,3,3,3,2,-35.0,0.2,1.41,3.96,-8.01,4.58,-3.84,24.5625,-57.0,476.25,0.34881591796875,0.73492431640625,0.34918212890625,0.0241,-11.75,17.0,-26.9375,8.21,-3.17,moving,2
10.43,1665527.00471554,25,3,3,3,2,-90.0,1.12,1.74,3.47,-7.06,4.91,-3.09,28.8125,-51.5625,476.5625,0.34381103515625,0.737060546875,0.34918212890625,0.0241,-11.75,17.0,-27.3125,8.18,-3.16,moving,2
10.44,1665527.00471554,25,3,3,3,2,-129.0,2.77,2.11,3.1,-5.38,5.3,-0.9,43.5625,-41.75,475.1875,0.33953857421875,0.73992919921875,0.34918212890625,0.023,-11.75,17.5625,-27.5,8.15,-3.19,moving,2
10.45,1665527.020029708,25,3,3,3,2,-185.0,4.64,2.33,2.55,-3.48,5.59,1.74,63.875,-27.8125,471.5,0.33624267578125,0.74365234375,0.3492431640625,0.023,-11.75,17.5625,-27.5625,8.13,-3.25,moving,2
10.46,1665527.020029708,25,3,3,3,2,-316.0,9.02,2.62,1.21,0.91,5.98,3.64,88.1875,-8.6875,465.1875,0.33392333984375,0.74810791015625,0.3499755859375,0.023,-11.75,17.5625,-27.3125,8.11,-3.35,moving,2
10.47,1665527.034824142,25,3,3,3,2,-416.0,11.9,1.93,0.11,3.8,5.42,4.38,116.75,12.375,456.1875,0.33221435546875,0.75311279296875,0.35211181640625,0.023,-11.75,17.5625,-26.75,8.1,-3.48,moving,2
10.48,1665527.034824142,25,3,3,3,2,-579.0,15.6,-1.07,-1.62,7.48,2.5,0.56,126.8125,26.4375,446.6875,0.3302001953125,0.75732421875,0.3565673828125,0.023,-11.75,17.5625,-26.0625,8.12,-3.58,moving,2
10.49,1665527.065953414,25,3,3,3,2,-862.0,16.15,-16.35,-4.43,7.96,-12.95,-10.5,-118.4375,35.25,455.5,0.33367919921875,0.74969482421875,0.35882568359375,0.0233,-10.875,16.5,-26.1875,8.18,-3.4,moving,2
10.5,1665527.065953414,25,3,3,3,2,-1728.0,19.76,-30.31,-13.02,11.47,-27.28,-19.19,-265.625,53.4375,475.0,0.3406982421875,0.73382568359375,0.36090087890625,0.0233,-10.875,16.5,-26.625,8.29,-3.03,moving,2
10.51,1665527.079657109,25,3,3,3,2,-1286.0,26.65,-11.01,-8.63,18.28,-8.12,-17.11,15.9375,19.125,476.5625,0.33709716796875,0.73046875,0.36895751953125,0.0233,-10.875,16.5,-26.375,8.36,-2.88,moving,2
10.52,1665527.079657109,25,3,3,3,2,-1156.0,26.2,-1.3,-7.34,17.89,1.74,8.64,113.75,-32.5625,468.5625,0.33355712890625,0.73773193359375,0.3675537109375,0.0233,-10.875,16.5,-26.3125,8.31,-3.05,moving,2
10.53,1665527.094420292,25,3,3,3,2,-739.0,20.11,2.16,-3.17,11.9,5.48,21.31,102.875,-42.0,459.125,0.33282470703125,0.74725341796875,0.36029052734375,0.0233,-10.875,16.5,-26.3125,8.2,-3.31,moving,2
10.54,1665527.094420292,25,3,3,3,2,-597.0,10.14,2.41,-1.73,2.0,5.87,13.48,30.3125,-27.25,455.5,0.3333740234375,0.7518310546875,0.35455322265625,0.0237,-10.875,13.5,-26.5,8.13,-3.46,moving,2
10.55,1665527.125058069,25,3,3,3,2,-545.0,11.22,0.42,-1.18,3.09,3.85,-0.38,-29.0625,-6.3125,457.6875,0.333740234375,0.7508544921875,0.3536376953125,0.0237,-10.875,13.5,-26.625,8.13,-3.43,moving,2
10.56,1665527.125058069,25,3,3,3,2,-477.0,12.37,-2.99,-0.48,4.19,0.31,-8.36,-66.0625,11.875,463.3125,0.33453369140625,0.74627685546875,0.35565185546875,0.0237,-10.875,13.5,-26.75,8.17,-3.31,moving,2
10.57,1665527.141248906,25,3,3,3,2,-518.0,11.34,-9.08,-0.87,3.11,-5.95,-12.0,-98.5625,24.25,471.3125,0.336181640625,0.7392578125,0.35858154296875,0.0237,-10.875,13.5,-26.875,8.23,-3.12,moving,2
10.58,1665527.141248906,25,3,3,3,2,-518.0,11.34,-9.08,-0.87,3.11,-5.95,-12.0,-98.5625,24.25,471.3125,0.336181640625,0.7392578125,0.35858154296875,0.0237,-10.875,13.5,-26.875,8.23,-3.12,moving,2
10.58,1665527.15408346,25,3,3,3,2,-669.0,10.96,-9.65,-2.38,2.66,-6.71,-12.14,-96.5,31.625,478.9375,0.338134765625,0.7320556640625,0.3619384765625,0.0237,-10.875,13.5,-26.9375,8.29,-2.94,moving,2
10.59,1665527.15408346,25,3,3,3,2,-769.0,10.36,-8.84,-3.38,2.03,-5.98,-5.4,-55.0,27.6875,482.6875,0.34027099609375,0.7279052734375,0.36358642578125,0.0226,-9.1875,15.375,-26.875,8.33,-2.85,moving,2
10.6,1665527.169592574,25,3,3,3,2,-737.0,9.17,-7.27,-3.09,0.84,-4.37,6.06,-10.0625,17.0,481.625,0.34326171875,0.7281494140625,0.361572265625,0.0226,-9.1875,15.375,-26.75,8.33,-2.9,moving,2
10.61,1665527.169592574,25,3,3,3,2,-607.0,7.46,-4.17,-1.82,-0.82,-1.13,13.82,22.4375,10.5,477.1875,0.34674072265625,0.7314453125,0.357177734375,0.0226,-9.1875,15.375,-26.5625,8.29,-3.04,moving,2
10.62,1665527.184980839,25,3,3,3,2,-527.0,6.81,-3.0,-1.05,-1.43,0.2,15.13,38.0,8.6875,471.4375,0.34991455078125,0.73565673828125,0.3526611328125,0.0226,-9.1875,15.375,-26.375,8.24,-3.2,moving,2
10.63,1665527.184980839,25,3,3,3,2,-469.0,6.0,-2.22,-0.51,-2.21,1.12,12.64,36.125,9.6875,466.3125,0.35260009765625,0.73919677734375,0.34906005859375,0.0226,-9.1875,15.375,-26.125,8.21,-3.34,moving,2
10.64,1665527.214891687,25,3,3,3,2,-429.0,5.07,-1.66,-0.13,-3.11,1.78,9.03,21.25,12.1875,462.75,0.35498046875,0.74139404296875,0.3465576171875,0.0233,-11.0,16.0625,-25.9375,8.18,-3.44,moving,2
10.65,1665527.214891687,25,3,3,3,2,-392.0,4.51,-1.01,0.2,-3.66,2.48,5.08,9.25,14.4375,460.6875,0.35687255859375,0.74224853515625,0.34539794921875,0.0233,-11.0,16.0625,-25.8125,8.17,-3.49,moving,2
10.66,1665527.229223475,25,3,3,3,2,-379.0,4.67,-0.91,0.31,-3.5,2.6,2.2,-2.0625,15.5,459.875,0.3585205078125,0.74212646484375,0.34503173828125,0.0233,-11.0,16.0625,-25.6875,8.17,-3.51,moving,2
10.67,1665527.229223475,25,3,3,3,2,-349.0,4.86,-0.98,0.6,-3.32,2.52,0.81,-12.75,14.9375,460.125,0.36004638671875,0.74127197265625,0.34490966796875,0.0233,-11.0,16.0625,-25.5625,8.18,-3.51,moving,2
10.68,1665527.24569845,25,3,3,3,2,-319.0,5.01,-1.06,0.89,-3.17,2.43,0.2,-16.4375,13.8125,460.75,0.3614501953125,0.740234375,0.3448486328125,0.0233,-11.0,16.0625,-25.5,8.19,-3.5,moving,2
10.69,1665527.24569845,25,3,3,3,2,-288.0,5.18,-1.27,1.19,-3.02,2.22,0.1,-15.0,12.375,461.375,0.36273193359375,0.7392578125,0.34478759765625,0.0233,-10.5,17.6875,-25.4375,8.2,-3.49,moving,2
10.7,1665527.275111414,25,3,3,3,2,-300.0,5.47,-1.42,1.07,-2.73,2.06,0.64,-14.625,10.5,461.875,0.364013671875,0.73846435546875,0.344482421875,0.0233,-10.5,17.6875,-25.4375,8.21,-3.48,moving,2
10.71,1665527.275111414,25,3,3,3,2,-324.0,6.07,-1.33,0.82,-2.13,2.15,1.65,-15.625,8.6875,462.3125,0.365478515625,0.7379150390625,0.34368896484375,0.0233,-10.5,17.6875,-25.4375,8.21,-3.49,moving,2
10.72,1665527.290112146,25,3,3,3,2,-367.0,6.9,-1.3,0.39,-1.29,2.2,3.19,-16.5,7.125,462.5625,0.3671875,0.73760986328125,0.3421630859375,0.0233,-10.5,17.6875,-25.4375,8.2,-3.5,moving,2
10.73,1665527.290112146,25,3,3,3,2,-375.0,7.22,-1.49,0.32,-0.96,2.04,4.43,-17.375,6.25,462.625,0.36920166015625,0.737548828125,0.340087890625,0.0233,-10.5,17.6875,-25.4375,8.19,-3.53,moving,2
10.74,1665527.304762618,25,3,3,3,2,-387.0,7.21,-1.74,0.2,-0.96,1.81,4.44,-20.25,5.875,462.875,0.37127685546875,0.73736572265625,0.33782958984375,0.023,-12.0,17.25,-25.4375,8.17,-3.56,moving,2
10.75,1665527.304762618,25,3,3,3,2,-400.0,7.24,-2.14,0.07,-0.92,1.42,3.47,-24.625,6.75,463.5625,0.373291015625,0.73681640625,0.3359375,0.023,-12.0,17.25,-25.5,8.16,-3.57,moving,2
10.76,1665527.334504928,25,3,3,3,2,-413.0,7.38,-3.39,-0.04,-0.77,0.17,1.86,-27.8125,8.4375,464.75,0.37506103515625,0.73577880859375,0.3345947265625,0.023,-12.0,17.25,-25.5,8.16,-3.57,moving,2
10.77,1665527.334504928,25,3,3,3,2,-407.0,7.51,-4.06,0.02,-0.66,-0.51,-0.06,-29.25,9.6875,466.4375,0.37652587890625,0.7342529296875,0.33404541015625,0.023,-12.0,17.25,-25.5625,8.17,-3.54,moving,2
10.78,1665527.350802983,25,3,3,3,2,-401.0,7.56,-4.53,0.07,-0.62,-1.01,-1.72,-26.625,10.6875,468.25,0.3775634765625,0.7325439453125,0.33428955078125,0.023,-12.0,17.25,-25.5625,8.18,-3.51,moving,2
10.79,1665527.350802983,25,3,3,3,1,-399.0,7.74,-4.75,0.09,-0.46,-1.26,-1.97,-18.0,10.9375,469.5,0.3782958984375,0.7310791015625,0.33489990234375,0.0241,-10.5,15.75,-25.5,8.2,-3.48,moving,2
10.8,1665527.382057662,25,3,3,3,1,-380.0,8.38,-4.04,0.27,0.17,-0.57,-0.5,-5.5625,9.75,469.6875,0.37896728515625,0.73046875,0.3353271484375,0.0241,-10.5,15.75,-25.4375,8.21,-3.47,moving,2
10.81,1665527.382057662,25,3,3,3,1,-361.0,8.59,-3.46,0.44,0.38,0.03,2.38,4.875,7.6875,468.625,0.3798828125,0.7308349609375,0.3348388671875,0.0241,-10.5,15.75,-25.375,8.2,-3.49,moving,2
10.82,1665527.396152674,25,3,3,3,1,-349.0,8.86,-2.82,0.55,0.66,0.72,5.01,9.0,7.0,466.8125,0.38128662109375,0.73187255859375,0.33343505859375,0.0241,-10.5,15.75,-25.25,8.19,-3.55,moving,2
10.83,1665527.396152674,25,3,3,3,1,-344.0,9.02,-2.17,0.58,0.84,1.43,5.81,4.875,7.8125,465.0,0.38311767578125,0.73284912109375,0.33160400390625,0.0241,-10.5,15.75,-25.1875,8.17,-3.6,moving,2
10.84,1665527.410582931,25,3,3,3,1,-344.0,9.02,-2.17,0.58,0.84,1.43,5.81,4.875,7.8125,465.0,0.38311767578125,0.73284912109375,0.33160400390625,0.0241,-10.5,15.75,-25.1875,8.17,-3.6,moving,2
10.85,1665527.410582931,25,3,3,3,1,-354.0,9.01,-2.15,0.48,0.84,1.49,4.91,-5.5625,9.75,464.0625,0.3851318359375,0.733154296875,0.329833984375,0.023,-11.6875,13.5,-25.125,8.16,-3.64,moving,2
10.85,1665527.42511882,25,3,3,3,1,-362.0,9.06,-2.95,0.39,0.9,0.7,3.07,-17.6875,12.3125,464.1875,0.38714599609375,0.73260498046875,0.3284912109375,0.023,-11.6875,13.5,-25.0625,8.16,-3.65,moving,2
10.86,1665527.42511882,25,3,3,3,1,-381.0,9.22,-3.95,0.19,1.05,-0.31,0.82,-30.0,15.5,465.5625,0.38922119140625,0.73101806640625,0.3277587890625,0.023,-11.6875,13.5,-25.0625,8.16,-3.64,moving,2
10.87,1665527.439771326,25,3,3,3,1,-410.0,9.45,-4.89,-0.08,1.26,-1.28,-1.23,-40.4375,18.1875,467.9375,0.3912353515625,0.72857666015625,0.32763671875,0.023,-11.6875,13.5,-25.0625,8.18,-3.6,moving,2
10.88,1665527.439771326,25,3,3,3,1,-470.0,9.74,-6.13,-0.68,1.53,-2.58,-2.44,-43.0,19.0625,470.6875,0.39306640625,0.72576904296875,0.327880859375,0.023,-11.6875,13.5,-25.0625,8.21,-3.55,moving,2
10.89,1665527.455046513,25,3,3,3,2,-475.0,9.6,-6.1,-0.73,1.37,-2.59,-2.0,-31.375,16.0625,472.75,0.39447021484375,0.72357177734375,0.3282470703125,0.0244,-10.875,13.5,-25.0625,8.22,-3.51,moving,2
10.9,1665527.455046513,25,3,3,3,2,-455.0,9.25,-5.49,-0.54,1.01,-1.98,0.16,-12.9375,10.5625,473.25,0.3955078125,0.72271728515625,0.32818603515625,0.0244,-10.875,13.5,-25.0,8.23,-3.5,stop,2
10.91,1665527.48440837,25,3,3,3,2,-387.0,8.28,-3.81,0.11,0.05,-0.28,2.62,0.6875,5.875,472.4375,0.39654541015625,0.7230224609375,0.327392578125,0.0244,-10.875,13.5,-24.9375,8.23,-3.52,stop,2
10.92,1665527.48440837,25,3,3,3,2,-356.0,7.88,-3.08,0.41,-0.33,0.48,3.9,7.875,4.125,470.9375,0.39752197265625,0.723876953125,0.3262939453125,0.0244,-10.875,13.5,-24.875,8.21,-3.57,stop,2
10.93,1665527.500352747,25,3,3,3,2,-339.0,7.5,-2.38,0.58,-0.69,1.22,3.63,5.875,4.8125,469.625,0.39862060546875,0.72454833984375,0.32525634765625,0.0244,-10.875,13.5,-24.8125,8.2,-3.6,stop,2
10.94,1665527.500352747,25,3,3,3,2,-334.0,7.24,-1.9,0.62,-0.95,1.71,2.12,-4.1875,6.0625,469.25,0.39959716796875,0.72454833984375,0.32452392578125,0.0244,-11.25,13.5,-24.75,8.2,-3.62,stop,2
10.95,1665527.515814987,25,3,3,3,2,-333.0,7.12,-2.19,0.63,-1.08,1.42,0.34,-12.6875,7.25,469.8125,0.4005126953125,0.723876953125,0.32421875,0.0244,-11.25,13.5,-24.75,8.2,-3.61,stop,2
10.96,1665527.515814987,25,3,3,3,2,-330.0,7.14,-2.74,0.65,-1.07,0.84,-0.86,-17.1875,8.125,470.875,0.40130615234375,0.72271728515625,0.3243408203125,0.0244,-11.25,13.5,-24.75,8.21,-3.59,stop,2
10.97,1665527.545981898,25,3,3,3,2,-331.0,7.31,-3.34,0.64,-0.91,0.22,-1.46,-20.0625,8.9375,472.25,0.402099609375,0.7213134765625,0.32452392578125,0.0244,-11.25,13.5,-24.75,8.22,-3.56,stop,2
10.98,1665527.545981898,25,3,3,3,2,-339.0,7.56,-3.85,0.56,-0.67,-0.31,-1.35,-21.75,9.625,473.6875,0.4029541015625,0.7198486328125,0.32470703125,0.0244,-11.25,13.5,-24.75,8.24,-3.54,stop,2
