timestamp,android_nano_timestamp,temperature,calib_mag,calib_accel,calib_gyro,calib_sys,acc_x,acc_y,acc_z,lacc_x,lacc_y,lacc_z,gyro_x,gyro_y,gyro_z,quat_w,quat_x,quat_y,quat_z,mag_x,mag_y,mag_z,gravity_x,gravity_y,gravity_z,label,person
5.56,29891.505898628,26,3,3,0,3,10.33,1.88,-8.15,2.56,0.39,-2.35,-44.375,89.5,14.0,0.44500732421875,0.00677490234375,-0.8917236328125,-0.08209228515625,-23.25,24.5625,16.0625,7.77,1.49,-5.79,moving,11
5.57,29891.537268989,26,3,3,0,3,10.27,2.15,-5.22,2.41,0.63,0.43,-44.0,85.75,13.375,0.4517822265625,0.004638671875,-0.8880615234375,-0.0849609375,-23.25,24.5625,16.0625,7.86,1.52,-5.66,moving,11
5.58,29891.537268989,26,3,3,0,3,10.19,2.35,-4.32,2.22,0.81,1.17,-41.0625,109.5,12.5625,0.46038818359375,0.00335693359375,-0.8834228515625,-0.08740234375,-21.0,24.1875,17.1875,7.97,1.54,-5.5,moving,11
5.59,29891.551267931,26,3,3,0,3,9.47,2.52,-3.6,1.36,0.95,1.67,-46.4375,144.5,14.25,0.4715576171875,0.00146484375,-0.877197265625,-0.09039306640625,-21.0,24.1875,17.1875,8.11,1.56,-5.28,moving,11
5.6,29891.551267931,26,3,3,0,3,8.24,2.53,-3.31,-0.03,0.92,1.7,-65.5,173.75,13.0625,0.48492431640625,-0.00079345703125,-0.869384765625,-0.0948486328125,-21.0,24.1875,17.1875,8.27,1.6,-5.01,moving,11
5.61,29891.565949246,26,3,3,0,3,5.46,2.01,-2.31,-2.97,0.34,2.38,-84.9375,198.1875,7.1875,0.49993896484375,-0.0032958984375,-0.86016845703125,-0.10101318359375,-21.0,24.1875,17.1875,8.44,1.67,-4.7,moving,11
5.62,29891.565949246,26,3,3,0,3,4.35,1.64,-2.07,-4.25,-0.09,2.28,-97.1875,213.625,2.0625,0.515869140625,-0.00579833984375,-0.84979248046875,-0.1082763671875,-21.0,24.1875,17.1875,8.6,1.74,-4.35,moving,11
5.63,29891.597229479,26,3,3,0,3,3.29,1.43,-2.16,-5.46,-0.38,1.84,-101.5,209.6875,0.75,0.53125,-0.0084228515625,-0.8392333984375,-0.1158447265625,-22.0625,24.5625,15.6875,8.76,1.81,-4.0,moving,11
5.64,29891.597229479,26,3,3,0,3,1.79,1.3,-1.81,-7.08,-0.58,1.87,-103.9375,185.6875,4.875,0.544677734375,-0.01171875,-0.82940673828125,-0.1234130859375,-22.0625,24.5625,15.6875,8.88,1.88,-3.68,moving,11
5.65,29891.611382433,26,3,3,0,3,-0.28,0.46,-0.83,-9.29,-1.45,2.52,-110.125,184.1875,19.375,0.55804443359375,-0.016357421875,-0.8193359375,-0.130615234375,-22.0625,24.5625,15.6875,9.0,1.91,-3.36,moving,11
5.66,29891.611382433,26,3,3,0,3,-0.97,0.54,-0.57,-10.1,-1.38,2.44,-130.5,195.1875,41.125,0.5721435546875,-0.02337646484375,-0.80810546875,-0.13818359375,-22.0625,24.5625,15.6875,9.13,1.92,-3.01,moving,11
5.67,29891.626303738,26,3,3,0,3,-1.6,0.63,-0.16,-10.85,-1.29,2.46,-163.625,203.875,45.8125,0.5865478515625,-0.0323486328125,-0.795654296875,-0.1478271484375,-22.0625,24.5625,15.6875,9.24,1.93,-2.62,moving,11
5.68,29891.626303738,26,3,3,0,3,-1.81,0.32,-0.39,-11.16,-1.63,1.8,-188.1875,225.75,34.625,0.6019287109375,-0.04144287109375,-0.78131103515625,-0.15972900390625,-24.6875,22.5,13.375,9.35,1.95,-2.19,moving,11
5.69,29891.657651029,26,3,3,0,3,-1.9,-0.02,-0.36,-11.35,-2.0,1.35,-197.6875,245.4375,29.375,0.6181640625,-0.05035400390625,-0.7652587890625,-0.17254638671875,-24.6875,22.5,13.375,9.44,1.97,-1.72,moving,11
5.7,29891.657651029,26,3,3,0,3,-2.0,-0.42,-0.21,-11.53,-2.4,1.01,-200.125,260.125,32.125,0.63482666015625,-0.059326171875,-0.74774169921875,-0.18524169921875,-24.6875,22.5,13.375,9.52,1.97,-1.22,moving,11
5.71,29891.671416694,26,3,3,0,3,-2.0,-0.9,-0.26,-11.59,-2.86,0.43,-207.5625,273.6875,33.5,0.65185546875,-0.06854248046875,-0.728759765625,-0.1982421875,-24.6875,22.5,13.375,9.58,1.95,-0.7,moving,11
5.72,29891.671416694,26,3,3,0,3,-2.17,-1.0,-1.23,-11.79,-2.92,-1.06,-217.125,277.125,33.25,0.66845703125,-0.078125,-0.70867919921875,-0.21173095703125,-24.6875,22.5,13.375,9.61,1.91,-0.16,moving,11
5.73,29891.686903429,26,3,3,0,3,-2.17,-1.0,-1.23,-11.79,-2.92,-1.06,-217.125,277.125,33.25,0.66845703125,-0.078125,-0.70867919921875,-0.21173095703125,-24.6875,22.5,13.375,9.61,1.91,-0.16,moving,11
5.74,29891.686903429,26,3,3,0,3,-2.71,-0.66,-2.22,-12.33,-2.52,-2.57,-213.8125,264.875,34.75,0.6837158203125,-0.08782958984375,-0.68878173828125,-0.22467041015625,-27.25,22.0625,11.5,9.62,1.85,0.35,moving,11
5.74,29891.701410753,26,3,3,0,3,-2.8,-0.57,-3.4,-12.41,-2.34,-4.19,-199.875,225.625,36.9375,0.6961669921875,-0.09747314453125,-0.67083740234375,-0.236083984375,-27.25,22.0625,11.5,9.61,1.77,0.79,moving,11
5.75,29891.701410753,26,3,3,0,3,-2.84,-0.62,-4.6,-12.44,-2.33,-5.69,-166.0625,147.6875,25.9375,0.70379638671875,-0.10601806640625,-0.65814208984375,-0.2454833984375,-27.25,22.0625,11.5,9.59,1.7,1.09,moving,11
5.76,29891.716910143,26,3,3,0,3,-0.3,-1.18,-3.8,-9.89,-2.85,-4.98,-99.9375,38.875,7.625,0.70526123046875,-0.11175537109375,-0.65350341796875,-0.2510986328125,-27.25,22.0625,11.5,9.58,1.67,1.18,moving,11
5.77,29891.716910143,26,3,3,0,3,0.35,-0.73,-2.76,-9.24,-2.38,-3.85,-26.75,-63.875,11.1875,0.70159912109375,-0.11541748046875,-0.65673828125,-0.2513427734375,-27.25,22.0625,11.5,9.6,1.64,1.08,moving,11
5.78,29891.746208564,26,3,3,0,3,1.38,-1.09,-2.18,-8.24,-2.74,-3.01,35.3125,-147.0,6.1875,0.69500732421875,-0.11285400390625,-0.66705322265625,-0.2432861328125,-29.1875,21.375,6.875,9.63,1.64,0.82,moving,11
5.79,29891.746208564,26,3,3,0,3,3.34,-1.1,-1.75,-6.3,-2.75,-2.18,90.875,-221.75,0.4375,0.682861328125,-0.11199951171875,-0.68231201171875,-0.23577880859375,-29.1875,21.375,6.875,9.65,1.65,0.42,moving,11
5.8,29891.761200955,26,3,3,0,3,5.49,-0.78,-2.81,-4.17,-2.4,-2.71,137.5625,-294.375,21.3125,0.6668701171875,-0.111083984375,-0.70220947265625,-0.223388671875,-29.1875,21.375,6.875,9.67,1.62,-0.1,moving,11
5.81,29891.761200955,26,3,3,0,3,8.99,-0.88,-5.47,-0.64,-2.44,-4.6,200.875,-423.0625,26.1875,0.642822265625,-0.109130859375,-0.7298583984375,-0.20526123046875,-29.1875,21.375,6.875,9.64,1.56,-0.87,moving,11
5.82,29891.776222806,26,3,3,0,3,15.53,-0.1,-11.92,6.05,-1.49,-9.82,310.9375,-688.1875,51.75,0.6015625,-0.10711669921875,-0.7718505859375,-0.1756591796875,-29.1875,21.375,6.875,9.47,1.39,-2.1,moving,11
5.83,29891.776222806,26,3,3,0,3,25.61,3.52,-22.55,16.75,2.52,-18.48,459.8125,-1167.5625,88.5625,0.52545166015625,-0.106201171875,-0.8343505859375,-0.12835693359375,-27.0,21.375,10.25,8.86,1.0,-4.06,moving,11
5.84,29891.80677196,26,3,3,0,3,30.67,-0.96,-26.52,23.05,-1.58,-20.38,466.4375,-1395.25,-17.375,0.424560546875,-0.09832763671875,-0.8963623046875,-0.08160400390625,-27.0,21.375,10.25,7.62,0.61,-6.14,moving,11
5.85,29891.80677196,26,3,3,0,3,38.94,-8.25,-36.32,32.35,-8.89,-29.08,131.0,-866.75,-140.4375,0.35577392578125,-0.08843994140625,-0.92779541015625,-0.06890869140625,-27.0,21.375,10.25,6.59,0.63,-7.23,moving,11
5.86,29891.821514269,26,3,3,0,3,38.63,5.79,-18.16,32.06,4.96,-10.93,-28.875,-0.75,-142.0,0.3546142578125,-0.07781982421875,-0.9287109375,-0.07562255859375,-27.0,21.375,10.25,6.57,0.83,-7.22,moving,11
5.87,29891.821514269,26,3,3,0,3,25.73,3.27,-13.53,18.33,2.23,-7.19,114.25,740.8125,-275.0,0.41253662109375,-0.04705810546875,-0.90625,-0.0797119140625,-27.0,21.375,10.25,7.4,1.03,-6.34,moving,11
5.88,29891.835857205,26,3,3,0,3,12.07,7.34,-5.98,3.93,6.08,-0.65,54.25,757.5,-204.875,0.4700927734375,-0.0235595703125,-0.87811279296875,-0.085693359375,-14.1875,26.5,21.6875,8.13,1.25,-5.32,moving,11
5.89,29891.835857205,26,3,3,0,3,4.49,7.78,-5.22,-4.16,6.49,-0.81,-5.625,621.0625,-18.6875,0.5167236328125,-0.0177001953125,-0.8514404296875,-0.0880126953125,-14.1875,26.5,21.6875,8.65,1.29,-4.41,moving,11
5.9,29891.866542874,26,3,3,0,3,11.81,6.44,-9.61,2.92,5.18,-5.67,-94.5,298.3125,63.375,0.53900146484375,-0.02435302734375,-0.83685302734375,-0.09259033203125,-14.1875,26.5,21.6875,8.89,1.26,-3.94,moving,11
5.91,29891.866542874,26,3,3,0,3,16.45,4.14,-3.61,7.62,2.84,0.45,-166.375,-105.4375,49.0625,0.53125,-0.03662109375,-0.8402099609375,-0.1021728515625,-14.1875,26.5,21.6875,8.82,1.3,-4.06,moving,11
5.92,29891.882957588,26,3,3,0,3,18.2,2.52,-3.02,9.52,1.19,1.33,-89.4375,-205.3125,24.875,0.51605224609375,-0.04443359375,-0.84869384765625,-0.10693359375,-14.1875,26.5,21.6875,8.68,1.33,-4.35,moving,11
5.93,29891.882957588,26,3,3,0,3,14.69,1.31,-6.73,6.12,-0.05,-2.15,-11.1875,-150.25,-22.375,0.50457763671875,-0.044677734375,-0.85540771484375,-0.108154296875,-22.5625,25.375,13.25,8.56,1.37,-4.58,moving,11
5.94,29891.896650418,26,3,3,0,3,7.95,2.31,-5.8,-0.51,0.9,-1.06,-21.6875,-108.125,-15.625,0.49627685546875,-0.04547119140625,-0.8599853515625,-0.11004638671875,-22.5625,25.375,13.25,8.46,1.41,-4.73,moving,11
5.95,29891.896650418,26,3,3,0,3,6.94,1.28,-5.01,-1.49,-0.16,-0.23,-28.0625,-32.625,-6.8125,0.49365234375,-0.0465087890625,-0.86114501953125,-0.1123046875,-22.5625,25.375,13.25,8.43,1.44,-4.78,moving,11
5.96,29891.926821195,26,3,3,0,3,5.73,0.1,-3.71,-2.72,-1.42,1.01,-27.0,34.1875,-38.5,0.49566650390625,-0.04443359375,-0.85955810546875,-0.11614990234375,-22.5625,25.375,13.25,8.45,1.52,-4.72,moving,11
5.97,29891.926821195,26,3,3,0,3,2.93,-0.67,-2.1,-5.58,-2.32,2.46,-51.3125,92.4375,-55.75,0.5018310546875,-0.04150390625,-0.855224609375,-0.122802734375,-22.5625,25.375,13.25,8.51,1.65,-4.57,moving,11
5.98,29891.942442736,26,3,3,0,3,1.03,-1.37,-1.85,-7.57,-3.15,2.47,-95.625,141.5625,-40.1875,0.51153564453125,-0.04119873046875,-0.8480224609375,-0.13214111328125,-21.5,23.875,16.375,8.61,1.78,-4.33,moving,11
5.99,29891.942442736,26,3,3,0,3,1.03,-1.37,-1.85,-7.57,-3.15,2.47,-95.625,141.5625,-40.1875,0.51153564453125,-0.04119873046875,-0.8480224609375,-0.13214111328125,-21.5,23.875,16.375,8.61,1.78,-4.33,moving,11
5.99,29891.947824653,26,3,3,0,3,-0.62,-0.29,-1.28,-9.31,-2.18,2.84,-125.3125,105.6875,-9.25,0.51873779296875,-0.04486083984375,-0.84185791015625,-0.1422119140625,-21.5,23.875,16.375,8.68,1.89,-4.13,moving,11
6.0,29891.947824653,26,3,3,0,3,-2.3,-0.43,1.0,-10.99,-2.43,5.07,-148.5625,7.0,-5.25,0.5185546875,-0.05108642578125,-0.83966064453125,-0.15338134765625,-21.5,23.875,16.375,8.69,2.0,-4.07,moving,11
6.01,29891.972151232,26,3,3,0,3,-2.04,0.51,1.3,-10.74,-1.57,5.31,-141.0,3.875,11.8125,0.518310546875,-0.05828857421875,-0.83746337890625,-0.16314697265625,-21.5,23.875,16.375,8.69,2.08,-4.01,moving,11
6.02,29891.972151232,26,3,3,0,3,-1.79,0.42,1.29,-10.53,-1.7,5.2,-108.4375,43.25,23.75,0.521240234375,-0.0643310546875,-0.83380126953125,-0.17022705078125,-21.5,23.875,16.375,8.73,2.12,-3.91,moving,11
6.03,29891.987574613,26,3,3,0,3,-1.29,-0.4,1.24,-10.08,-2.56,5.02,-75.25,66.875,13.9375,0.52581787109375,-0.0677490234375,-0.82952880859375,-0.1754150390625,-23.375,22.5,17.5,8.78,2.15,-3.77,moving,11
6.04,29891.987574613,26,3,3,0,3,-1.28,-0.58,1.9,-10.13,-2.76,5.53,-69.8125,78.0625,13.3125,0.53125,-0.07073974609375,-0.82476806640625,-0.1802978515625,-23.375,22.5,17.5,8.84,2.18,-3.63,moving,11
6.05,29892.017211291,26,3,3,0,3,-1.73,0.01,2.39,-10.66,-2.17,5.79,-79.75,127.5625,25.875,0.540283203125,-0.07427978515625,-0.8173828125,-0.18560791015625,-23.375,22.5,17.5,8.93,2.18,-3.4,moving,11
6.06,29892.017211291,26,3,3,0,3,-2.16,-0.3,2.73,-11.22,-2.49,5.79,-91.375,197.4375,35.5,0.55419921875,-0.077880859375,-0.80621337890625,-0.19171142578125,-23.375,22.5,17.5,9.05,2.18,-3.06,moving,11
6.07,29892.031833605,26,3,3,0,3,-2.17,-1.24,2.96,-11.36,-3.42,5.59,-108.625,245.6875,33.875,0.5711669921875,-0.0814208984375,-0.7921142578125,-0.1993408203125,-23.375,22.5,17.5,9.19,2.18,-2.62,moving,11
6.08,29892.031833605,26,3,3,0,3,-1.39,-1.84,1.42,-10.71,-4.03,3.57,-131.25,265.75,34.8125,0.5889892578125,-0.085693359375,-0.77606201171875,-0.20849609375,-23.0,21.375,17.875,9.31,2.18,-2.14,moving,11
6.09,29892.046479479,26,3,3,0,3,-0.62,-1.55,0.66,-10.03,-3.73,2.36,-150.6875,235.125,32.5,0.60418701171875,-0.09136962890625,-0.7607421875,-0.21868896484375,-23.0,21.375,17.875,9.4,2.18,-1.7,moving,11
6.1,29892.046479479,26,3,3,0,3,0.0,-1.58,-0.56,-9.46,-3.75,0.78,-135.875,188.4375,25.0625,0.615966796875,-0.0965576171875,-0.7479248046875,-0.22784423828125,-23.0,21.375,17.875,9.46,2.17,-1.34,moving,11
6.11,29892.07711986,26,3,3,0,3,0.75,-1.4,-1.62,-8.74,-3.58,-0.52,-103.6875,128.5625,10.25,0.62359619140625,-0.1002197265625,-0.73876953125,-0.235107421875,-23.0,21.375,17.875,9.49,2.18,-1.09,moving,11
6.12,29892.07711986,26,3,3,0,3,1.48,-0.21,-2.96,-8.02,-2.38,-1.96,-56.5625,46.6875,16.125,0.62646484375,-0.1033935546875,-0.73492431640625,-0.23828125,-23.0,21.375,17.875,9.51,2.16,-0.99,moving,11
6.13,29892.091818224,26,3,3,0,3,1.69,-0.11,-2.8,-7.81,-2.23,-1.72,5.75,-50.0,27.1875,0.62384033203125,-0.10589599609375,-0.73748779296875,-0.2359619140625,-26.1875,21.375,13.6875,9.51,2.11,-1.08,moving,11
6.14,29892.091818224,26,3,3,0,3,2.26,-0.52,-2.72,-7.21,-2.6,-1.36,66.1875,-150.0625,17.25,0.6151123046875,-0.1064453125,-0.746826171875,-0.2293701171875,-26.1875,21.375,13.6875,9.48,2.07,-1.35,moving,11
6.15,29892.107305977,26,3,3,0,3,3.34,-1.32,-3.08,-6.07,-3.35,-1.29,118.625,-243.5,6.4375,0.60028076171875,-0.1053466796875,-0.761962890625,-0.21893310546875,-26.1875,21.375,13.6875,9.42,2.03,-1.79,moving,11
6.16,29892.107305977,26,3,3,0,3,7.54,-0.58,-7.37,-1.75,-2.53,-4.95,177.375,-347.8125,12.0625,0.57867431640625,-0.10345458984375,-0.78302001953125,-0.20318603515625,-26.1875,21.375,13.6875,9.29,1.94,-2.42,moving,11
6.17,29892.137119616,26,3,3,0,3,11.64,0.2,-11.42,2.6,-1.58,-8.08,254.125,-515.625,11.9375,0.5452880859375,-0.1004638671875,-0.81243896484375,-0.18035888671875,-26.1875,21.375,13.6875,9.04,1.79,-3.33,moving,11
6.18,29892.137119616,26,3,3,0,3,17.63,1.49,-16.47,9.12,-0.04,-11.85,349.0,-769.625,6.625,0.4925537109375,-0.09619140625,-0.8521728515625,-0.14813232421875,-26.1875,20.5625,13.6875,8.51,1.54,-4.61,moving,11
6.19,29892.151108874,26,3,3,0,3,29.22,2.17,-22.06,21.62,0.95,-15.98,409.0,-968.8125,-39.75,0.421630859375,-0.08782958984375,-0.8956298828125,-0.11083984375,-26.1875,20.5625,13.6875,7.59,1.22,-6.07,moving,11
6.2,29892.151108874,26,3,3,0,3,36.86,1.27,-34.81,29.97,0.16,-27.92,214.6875,-608.6875,-108.25,0.37408447265625,-0.07720947265625,-0.91949462890625,-0.09320068359375,-26.1875,20.5625,13.6875,6.88,1.11,-6.89,moving,11
6.21,29892.166061388,26,3,3,0,3,38.91,7.09,-37.42,32.06,5.88,-30.51,3.75,-9.0,-88.125,0.37261962890625,-0.07012939453125,-0.92034912109375,-0.095703125,-26.1875,20.5625,13.6875,6.85,1.21,-6.9,moving,11
6.22,29892.166061388,26,3,3,0,3,33.48,12.26,-19.9,26.26,10.89,-13.41,-26.8125,334.3125,-102.4375,0.39825439453125,-0.0599365234375,-0.90948486328125,-0.1031494140625,-26.1875,20.5625,13.6875,7.22,1.37,-6.48,moving,11
6.23,29892.196314481,26,3,3,0,3,20.53,5.75,-3.97,12.64,4.16,1.63,-52.3125,657.1875,-127.75,0.44818115234375,-0.045654296875,-0.8853759765625,-0.11492919921875,-15.25,25.0625,22.5,7.88,1.59,-5.6,moving,11
6.24,29892.196314481,26,3,3,0,3,14.3,4.36,-7.79,5.75,2.6,-3.31,-140.1875,760.0625,-30.8125,0.50482177734375,-0.04107666015625,-0.8524169921875,-0.12969970703125,-15.25,25.0625,22.5,8.54,1.76,-4.47,moving,11
6.25,29892.198365303,26,3,3,0,3,14.3,4.36,-7.79,5.75,2.6,-3.31,-140.1875,760.0625,-30.8125,0.50482177734375,-0.04107666015625,-0.8524169921875,-0.12969970703125,-15.25,25.0625,22.5,8.54,1.76,-4.47,moving,11
6.25,29892.198365303,26,3,3,0,3,10.87,4.16,-6.42,1.94,2.39,-2.79,-153.8125,527.8125,65.125,0.54364013671875,-0.046630859375,-0.82623291015625,-0.1400146484375,-15.25,25.0625,22.5,8.93,1.77,-3.62,moving,11
6.26,29892.226964872,26,3,3,0,3,11.92,0.73,-4.6,2.83,-0.99,-1.34,-86.25,218.9375,55.625,0.55963134765625,-0.05206298828125,-0.81439208984375,-0.1444091796875,-15.25,25.0625,22.5,9.08,1.73,-3.25,moving,11
6.27,29892.226964872,26,3,3,0,3,13.0,1.17,-4.41,3.97,-0.56,-1.01,2.3125,-90.0625,-6.125,0.5531005859375,-0.05267333984375,-0.81884765625,-0.14410400390625,-15.25,25.0625,22.5,9.03,1.74,-3.39,moving,11
6.28,29892.241347806,26,3,3,0,3,13.19,2.78,-4.24,4.37,1.03,-0.33,55.375,-321.875,-28.875,0.52978515625,-0.052001953125,-0.83489990234375,-0.1400146484375,-22.1875,22.75,16.375,8.81,1.75,-3.91,moving,11
6.29,29892.241347806,26,3,3,0,3,13.04,3.4,-3.97,4.51,1.64,0.53,39.875,-381.0,-29.1875,0.5015869140625,-0.0526123046875,-0.8526611328125,-0.13665771484375,-22.1875,22.75,16.375,8.52,1.76,-4.5,moving,11
6.3,29892.256558377,26,3,3,0,3,11.08,2.74,-4.88,2.79,0.93,0.01,-14.9375,-273.5625,-21.625,0.48077392578125,-0.054931640625,-0.8642578125,-0.13739013671875,-22.1875,22.75,16.375,8.29,1.81,-4.9,moving,11
6.31,29892.256558377,26,3,3,0,3,8.81,1.79,-4.36,0.58,-0.06,0.63,-56.25,-83.6875,-0.5,0.47412109375,-0.05828857421875,-0.8670654296875,-0.1412353515625,-22.1875,22.75,16.375,8.22,1.85,-5.0,moving,11
6.32,29892.287151029,26,3,3,0,3,6.57,0.96,-3.68,-1.73,-0.95,1.16,-86.375,89.5625,10.6875,0.4805908203125,-0.06158447265625,-0.86224365234375,-0.14776611328125,-22.1875,22.75,16.375,8.3,1.91,-4.84,moving,11
6.33,29892.287151029,26,3,3,0,3,4.44,-0.11,-1.96,-4.02,-2.12,2.55,-116.1875,196.3125,3.4375,0.49468994140625,-0.06414794921875,-0.852294921875,-0.1573486328125,-21.875,23.1875,17.5,8.46,2.0,-4.52,moving,11
6.34,29892.302099515,26,3,3,0,3,1.43,-1.08,-0.39,-7.24,-3.18,3.65,-137.1875,282.375,5.875,0.5147705078125,-0.066650390625,-0.837890625,-0.1688232421875,-21.875,23.1875,17.5,8.68,2.1,-4.05,moving,11
6.35,29892.302099515,26,3,3,0,3,0.43,-0.41,-0.71,-8.47,-2.59,2.76,-153.9375,332.875,15.9375,0.53814697265625,-0.06976318359375,-0.8201904296875,-0.18115234375,-21.875,23.1875,17.5,8.9,2.17,-3.48,moving,11
6.36,29892.316867907,26,3,3,0,3,-0.23,0.09,-0.59,-9.32,-2.15,2.3,-167.3125,329.1875,15.4375,0.5606689453125,-0.07354736328125,-0.80157470703125,-0.1943359375,-21.875,23.1875,17.5,9.09,2.24,-2.9,moving,11
6.37,29892.316867907,26,3,3,0,3,-0.7,0.28,-0.36,-9.94,-2.02,1.96,-172.5625,308.875,10.8125,0.5810546875,-0.07745361328125,-0.7830810546875,-0.20770263671875,-21.875,23.1875,17.5,9.23,2.3,-2.33,moving,11
6.38,29892.346957018,26,3,3,0,3,-0.7,0.34,-0.4,-10.05,-2.0,1.4,-177.3125,278.4375,11.4375,0.59881591796875,-0.0821533203125,-0.765380859375,-0.22100830078125,-23.0,21.375,17.0625,9.34,2.35,-1.81,moving,11
6.39,29892.346957018,26,3,3,0,3,-0.97,0.47,-0.23,-10.39,-1.89,1.11,-176.8125,242.5625,16.375,0.61383056640625,-0.0877685546875,-0.74896240234375,-0.233642578125,-23.0,21.375,17.0625,9.41,2.37,-1.34,moving,11
6.4,29892.37802021,26,3,3,0,3,-1.16,0.33,-0.04,-10.63,-2.03,0.88,-173.125,209.625,21.375,0.62646484375,-0.09417724609375,-0.73382568359375,-0.24530029296875,-23.0,21.375,17.0625,9.46,2.37,-0.92,moving,11
6.41,29892.37802021,26,3,3,0,3,-1.3,-0.19,0.09,-10.81,-2.55,0.65,-173.4375,179.25,25.1875,0.63690185546875,-0.10137939453125,-0.719970703125,-0.25640869140625,-23.0,21.375,17.0625,9.5,2.35,-0.56,moving,11
6.42,29892.385827909,26,3,3,0,3,-1.27,-0.44,-0.13,-10.8,-2.76,0.1,-174.25,150.0625,27.625,0.645263671875,-0.10943603515625,-0.70733642578125,-0.26708984375,-23.0,21.375,17.0625,9.52,2.32,-0.24,moving,11
6.43,29892.385827909,26,3,3,0,3,-1.42,-0.44,-0.38,-10.96,-2.71,-0.41,-170.6875,118.6875,27.875,0.6514892578125,-0.11798095703125,-0.6962890625,-0.27716064453125,-27.6875,19.5625,14.375,9.53,2.27,0.02,moving,11
6.44,29892.407811022,26,3,3,0,3,-1.59,-0.44,-0.79,-11.14,-2.67,-1.03,-157.5625,90.3125,27.375,0.65594482421875,-0.12640380859375,-0.68701171875,-0.2860107421875,-27.6875,19.5625,14.375,9.54,2.22,0.23,moving,11
6.45,29892.407811022,26,3,3,0,3,-1.62,-0.27,-1.93,-11.18,-2.44,-2.32,-133.625,58.5,29.875,0.65863037109375,-0.1343994140625,-0.679931640625,-0.29296875,-27.6875,19.5625,14.375,9.55,2.17,0.38,moving,11
6.46,29892.421234973,26,3,3,0,3,-1.74,-0.19,-2.04,-11.3,-2.31,-2.48,-100.8125,16.0,26.8125,0.6590576171875,-0.141357421875,-0.67608642578125,-0.29754638671875,-27.6875,19.5625,14.375,9.56,2.11,0.44,moving,11
6.47,29892.421234973,26,3,3,0,3,-1.27,-0.33,-2.24,-10.84,-2.42,-2.68,-63.1875,-22.5625,11.0625,0.6572265625,-0.146240234375,-0.67559814453125,-0.30035400390625,-27.6875,19.5625,14.375,9.57,2.09,0.43,moving,11
6.48,29892.437327705,26,3,3,0,3,0.72,-0.53,-2.28,-8.85,-2.63,-2.62,-20.4375,-66.3125,-1.125,0.65301513671875,-0.14910888671875,-0.67889404296875,-0.30078125,-28.75,17.75,14.0625,9.57,2.09,0.33,moving,11
6.49,29892.437327705,26,3,3,0,3,1.64,-0.25,-2.41,-7.93,-2.35,-2.53,29.9375,-116.4375,0.4375,0.646484375,-0.15045166015625,-0.686279296875,-0.29742431640625,-28.75,17.75,14.0625,9.57,2.09,0.12,moving,11
6.5,29892.450923246,26,3,3,0,3,2.85,0.09,-2.88,-6.72,-1.98,-2.68,87.8125,-179.4375,4.4375,0.63690185546875,-0.150390625,-0.69854736328125,-0.28955078125,-28.75,17.75,14.0625,9.57,2.08,-0.2,moving,11
6.51,29892.450923246,26,3,3,0,3,2.85,0.09,-2.88,-6.72,-1.98,-2.68,87.8125,-179.4375,4.4375,0.63690185546875,-0.150390625,-0.69854736328125,-0.28955078125,-28.75,17.75,14.0625,9.57,2.08,-0.2,moving,11
6.51,29892.467309802,26,3,3,0,3,4.75,0.69,-4.1,-4.8,-1.36,-3.37,156.25,-280.875,8.8125,0.62176513671875,-0.1492919921875,-0.71771240234375,-0.27569580078125,-28.75,17.75,14.0625,9.55,2.06,-0.73,moving,11
6.52,29892.467309802,26,3,3,0,3,10.98,2.35,-9.4,1.51,0.36,-7.82,246.3125,-457.3125,16.5,0.59613037109375,-0.1478271484375,-0.7474365234375,-0.253173828125,-28.75,17.75,14.0625,9.47,1.98,-1.57,moving,11
6.53,29892.496990588,26,3,3,0,3,15.03,3.82,-12.64,5.84,2.03,-9.75,363.75,-728.1875,25.25,0.552490234375,-0.14630126953125,-0.79107666015625,-0.2181396484375,-28.0625,18.0625,14.375,9.19,1.79,-2.88,moving,11
6.54,29892.496990588,26,3,3,0,3,18.32,5.05,-13.58,9.82,3.59,-8.92,475.0,-1058.5625,18.0625,0.48333740234375,-0.14404296875,-0.8465576171875,-0.17010498046875,-28.0625,18.0625,14.375,8.5,1.45,-4.65,moving,11
6.55,29892.511280098,26,3,3,0,3,19.26,4.68,-13.58,11.93,3.58,-7.16,459.0,-1200.75,-64.625,0.39697265625,-0.13690185546875,-0.899169921875,-0.123046875,-28.0625,18.0625,14.375,7.33,1.1,-6.41,moving,11
6.56,29892.511280098,26,3,3,0,3,26.95,1.56,-27.03,20.51,0.47,-19.72,173.0,-715.1875,-161.5,0.3404541015625,-0.12567138671875,-0.92572021484375,-0.1063232421875,-28.0625,18.0625,14.375,6.44,1.09,-7.31,moving,11
6.57,29892.526913724,26,3,3,0,3,29.83,2.98,-32.81,23.5,1.7,-25.43,-2.25,-61.25,-166.8125,0.3338623046875,-0.11279296875,-0.92926025390625,-0.1107177734375,-28.0625,18.0625,14.375,6.32,1.27,-7.38,moving,11
6.58,29892.526913724,26,3,3,0,3,29.27,5.42,-20.52,22.62,4.02,-13.45,23.5625,283.4375,-135.5,0.3555908203125,-0.098388671875,-0.9222412109375,-0.115478515625,-17.5,22.875,22.0625,6.65,1.4,-7.06,moving,11
6.59,29892.558278308,26,3,3,0,3,25.69,6.22,-9.99,18.48,4.66,-3.54,-29.375,499.8125,-103.0625,0.39410400390625,-0.08587646484375,-0.90643310546875,-0.12518310546875,-17.5,22.875,22.0625,7.21,1.56,-6.45,moving,11
6.6,29892.558278308,26,3,3,0,3,20.1,5.87,-9.67,12.38,4.17,-3.87,-69.8125,484.4375,-45.3125,0.43096923828125,-0.079345703125,-0.8885498046875,-0.1357421875,-17.5,22.875,22.0625,7.72,1.69,-5.8,moving,11
6.61,29892.571656888,26,3,3,0,3,16.87,4.94,-10.35,8.87,3.19,-4.96,-69.5,283.3125,12.5,0.45245361328125,-0.07958984375,-0.876708984375,-0.142578125,-17.5,22.875,22.0625,8.0,1.74,-5.39,moving,11
6.62,29892.571656888,26,3,3,0,3,16.99,5.1,-9.82,8.95,3.33,-4.49,-79.25,28.5,31.5,0.4544677734375,-0.084716796875,-0.8743896484375,-0.1475830078125,-17.5,22.875,22.0625,8.03,1.77,-5.32,moving,11
6.63,29892.587209989,26,3,3,0,3,18.62,4.47,-8.17,10.66,2.66,-2.75,-72.4375,-86.0625,23.0625,0.4476318359375,-0.09051513671875,-0.87664794921875,-0.15155029296875,-16.0,24.25,22.0625,7.96,1.81,-5.42,moving,11
6.64,29892.587209989,26,3,3,0,3,16.66,3.16,-8.1,8.73,1.3,-2.63,-51.9375,-38.5625,2.5,0.44427490234375,-0.09320068359375,-0.87744140625,-0.15509033203125,-16.0,24.25,22.0625,7.92,1.85,-5.46,moving,11
6.65,29892.617236112,26,3,3,0,3,13.64,2.57,-7.3,5.67,0.65,-1.92,-54.0625,44.75,-5.25,0.4471435546875,-0.09429931640625,-0.875,-0.1597900390625,-16.0,24.25,22.0625,7.96,1.91,-5.38,moving,11
6.66,29892.617236112,26,3,3,0,3,9.7,0.81,-5.05,1.61,-1.16,0.13,-61.1875,123.6875,-8.3125,0.4559326171875,-0.0943603515625,-0.86932373046875,-0.165771484375,-16.0,24.25,22.0625,8.08,1.98,-5.18,moving,11
6.67,29892.631027819,26,3,3,0,3,8.16,-0.03,-7.46,-0.19,-2.13,-2.78,-94.5625,332.875,-22.1875,0.4798583984375,-0.091552734375,-0.8544921875,-0.176513671875,-16.0,24.25,22.0625,8.35,2.09,-4.67,moving,11
6.68,29892.631027819,26,3,3,0,3,5.74,-0.55,-3.62,-2.94,-2.78,0.34,-102.6875,455.875,-35.3125,0.5120849609375,-0.08612060546875,-0.83343505859375,-0.1890869140625,-18.875,22.5,21.6875,8.68,2.22,-3.96,moving,11
6.69,29892.646984566,26,3,3,0,3,3.94,-0.89,-2.09,-4.99,-3.21,1.17,-67.1875,432.8125,-36.5,0.54205322265625,-0.07928466796875,-0.81268310546875,-0.19873046875,-18.875,22.5,21.6875,8.94,2.32,-3.27,moving,11
6.7,29892.646984566,26,3,3,0,3,0.74,-0.68,-1.09,-8.39,-3.06,1.54,-42.25,390.1875,-22.75,0.56866455078125,-0.0728759765625,-0.793212890625,-0.205322265625,-18.875,22.5,21.6875,9.14,2.38,-2.63,moving,11
6.71,29892.676289904,26,3,3,0,3,-0.58,-0.26,-1.55,-9.85,-2.7,0.51,-32.375,344.375,-23.1875,0.59161376953125,-0.06671142578125,-0.77532958984375,-0.2108154296875,-18.875,22.5,21.6875,9.27,2.43,-2.07,moving,11
6.72,29892.676289904,26,3,3,0,3,-0.8,1.01,0.12,-10.16,-1.46,1.73,-40.75,273.3125,-18.6875,0.60931396484375,-0.0625,-0.7603759765625,-0.216064453125,-18.875,22.5,21.6875,9.35,2.47,-1.6,moving,11
6.73,29892.691668037,26,3,3,0,3,-1.56,1.06,0.28,-10.95,-1.44,1.54,-63.0625,194.75,-9.375,0.62158203125,-0.06158447265625,-0.748779296875,-0.22174072265625,-24.375,20.5625,17.0625,9.39,2.5,-1.26,moving,11
6.74,29892.691668037,26,3,3,0,3,-2.02,0.88,0.4,-11.44,-1.62,1.39,-65.75,150.25,-0.75,0.6309814453125,-0.06219482421875,-0.7392578125,-0.22686767578125,-24.375,20.5625,17.0625,9.42,2.51,-0.98,moving,11
6.75,29892.707186714,26,3,3,0,3,-1.96,0.69,0.06,-11.4,-1.83,0.83,-69.0,116.6875,-0.75,0.6380615234375,-0.06365966796875,-0.7314453125,-0.23193359375,-24.375,20.5625,17.0625,9.44,2.53,-0.76,moving,11
6.76,29892.707186714,26,3,3,0,3,-1.96,0.69,0.06,-11.4,-1.83,0.83,-69.0,116.6875,-0.75,0.6380615234375,-0.06365966796875,-0.7314453125,-0.23193359375,-24.375,20.5625,17.0625,9.44,2.53,-0.76,moving,11
6.76,29892.722479602,26,3,3,0,3,-2.19,0.76,-0.08,-11.64,-1.77,0.53,-75.4375,69.25,0.375,0.64202880859375,-0.06646728515625,-0.72601318359375,-0.23712158203125,-24.375,20.5625,17.0625,9.45,2.54,-0.61,moving,11
6.77,29892.722479602,26,3,3,0,3,-1.92,1.0,0.47,-11.37,-1.54,0.99,-79.9375,40.75,-0.625,0.64410400390625,-0.07000732421875,-0.72210693359375,-0.242431640625,-24.375,20.5625,17.0625,9.45,2.54,-0.51,moving,11
6.78,29892.736858508,26,3,3,0,3,-1.95,0.87,0.57,-11.41,-1.68,0.97,-90.875,48.0,-1.375,0.64654541015625,-0.07403564453125,-0.71746826171875,-0.24853515625,-28.0625,19.875,11.375,9.45,2.55,-0.39,moving,11
6.79,29892.736858508,26,3,3,0,3,-1.68,0.69,0.33,-11.14,-1.87,0.56,-100.75,75.4375,-4.1875,0.65045166015625,-0.07781982421875,-0.71099853515625,-0.25555419921875,-28.0625,19.875,11.375,9.46,2.57,-0.22,moving,11
6.8,29892.767150826,26,3,3,0,3,-0.68,0.53,-0.26,-10.14,-2.06,-0.24,-103.6875,94.5625,-13.8125,0.6552734375,-0.08074951171875,-0.703369140625,-0.26336669921875,-28.0625,19.875,11.375,9.45,2.59,-0.02,moving,11
6.81,29892.767150826,26,3,3,0,3,0.41,-0.29,-0.75,-9.03,-2.91,-0.92,-95.5,92.1875,-16.3125,0.65985107421875,-0.08306884765625,-0.69598388671875,-0.27081298828125,-28.0625,19.875,11.375,9.44,2.62,0.17,moving,11
6.82,29892.781069323,26,3,3,0,3,0.79,-0.26,-1.12,-8.64,-2.89,-1.44,-77.625,73.0,-7.3125,0.66351318359375,-0.08538818359375,-0.69000244140625,-0.27642822265625,-28.0625,19.875,11.375,9.44,2.63,0.32,moving,11
6.83,29892.781069323,26,3,3,0,3,0.91,-0.14,-1.32,-8.52,-2.76,-1.72,-50.75,30.125,5.6875,0.6650390625,-0.08795166015625,-0.68695068359375,-0.2794189453125,-29.5625,18.0625,11.75,9.44,2.61,0.39,moving,11
6.84,29892.797990791,26,3,3,0,3,0.83,-0.1,-1.26,-8.61,-2.69,-1.62,-21.8125,-24.3125,14.5,0.66375732421875,-0.0906982421875,-0.687744140625,-0.2796630859375,-29.5625,18.0625,11.75,9.45,2.59,0.36,moving,11
6.85,29892.797990791,26,3,3,0,3,1.41,-0.16,-1.32,-8.05,-2.72,-1.56,2.875,-78.1875,18.75,0.6595458984375,-0.09356689453125,-0.69219970703125,-0.27777099609375,-29.5625,18.0625,11.75,9.46,2.56,0.23,moving,11
6.86,29892.827760404,26,3,3,0,3,2.3,-0.07,-1.68,-7.17,-2.59,-1.68,23.0,-140.5625,22.4375,0.6517333984375,-0.09698486328125,-0.7005615234375,-0.27392578125,-29.5625,18.0625,11.75,9.47,2.52,0.0,moving,11
6.87,29892.827760404,26,3,3,0,3,3.64,0.23,-2.45,-5.83,-2.24,-2.05,48.625,-226.875,28.875,0.6387939453125,-0.10137939453125,-0.71429443359375,-0.267333984375,-29.5625,18.0625,11.75,9.48,2.47,-0.4,moving,11
6.88,29892.841324613,26,3,3,0,3,8.01,0.57,-4.86,-1.43,-1.82,-3.83,95.625,-353.3125,40.5625,0.6182861328125,-0.10675048828125,-0.7354736328125,-0.25579833984375,-30.25,18.0625,10.6875,9.45,2.39,-1.02,moving,11
6.89,29892.841324613,26,3,3,0,3,11.19,0.79,-7.26,1.84,-1.44,-5.31,168.875,-527.3125,65.4375,0.5867919921875,-0.113525390625,-0.76617431640625,-0.23626708984375,-30.25,18.0625,10.6875,9.34,2.24,-1.95,moving,11
6.9,29892.856563627,26,3,3,0,3,14.45,1.11,-9.44,5.43,-0.84,-6.15,248.0,-777.875,101.0625,0.53790283203125,-0.123291015625,-0.80804443359375,-0.20623779296875,-30.25,18.0625,10.6875,9.02,1.96,-3.29,moving,11
6.91,29892.856563627,26,3,3,0,3,16.09,1.68,-11.01,7.77,0.1,-6.08,289.4375,-1024.9375,113.3125,0.46881103515625,-0.13555908203125,-0.85638427734375,-0.16876220703125,-30.25,18.0625,10.6875,8.32,1.58,-4.93,moving,11
6.92,29892.88713398,26,3,3,0,3,16.5,-2.39,-15.33,9.2,-3.66,-8.9,212.5,-1055.0,73.6875,0.391845703125,-0.14727783203125,-0.8978271484375,-0.13677978515625,-30.25,18.0625,10.6875,7.29,1.27,-6.42,moving,11
6.93,29892.88713398,26,3,3,0,3,19.79,-3.37,-24.03,13.3,-4.54,-16.77,32.625,-685.6875,54.125,0.33856201171875,-0.15826416015625,-0.9193115234375,-0.123291015625,-25.5625,20.5625,16.6875,6.48,1.17,-7.26,moving,11
6.94,29892.902138578,26,3,3,0,3,23.3,-0.71,-31.78,17.04,-1.91,-24.33,-74.3125,-183.6875,57.8125,0.3233642578125,-0.16705322265625,-0.9229736328125,-0.125,-25.5625,20.5625,16.6875,6.26,1.2,-7.44,moving,11
6.95,29892.902138578,26,3,3,0,3,23.17,1.91,-26.15,16.75,0.61,-18.86,-39.875,132.75,-39.25,0.3330078125,-0.16357421875,-0.9193115234375,-0.13116455078125,-25.5625,20.5625,16.6875,6.42,1.29,-7.29,moving,11
6.96,29892.916445381,26,3,3,0,3,19.27,1.6,-12.95,12.44,0.14,-6.07,68.3125,371.875,-216.625,0.36102294921875,-0.139892578125,-0.9117431640625,-0.13714599609375,-25.5625,20.5625,16.6875,6.83,1.46,-6.88,moving,11
6.97,29892.916445381,26,3,3,0,3,17.07,3.46,-9.81,9.8,1.85,-3.42,117.8125,431.5625,-228.5625,0.3936767578125,-0.11273193359375,-0.9014892578125,-0.14007568359375,-25.5625,20.5625,16.6875,7.27,1.6,-6.38,moving,11
6.98,29892.949017077,26,3,3,0,3,18.64,7.47,-5.67,11.03,5.84,0.28,106.25,347.4375,-109.9375,0.42047119140625,-0.09619140625,-0.8914794921875,-0.1387939453125,-8.0,23.5,27.1875,7.61,1.63,-5.96,moving,11
6.99,29892.949017077,26,3,3,0,3,21.61,12.27,-5.76,13.81,10.64,-0.05,11.8125,191.3125,-1.1875,0.43536376953125,-0.09332275390625,-0.88446044921875,-0.1395263671875,-8.0,23.5,27.1875,7.8,1.62,-5.7,moving,11
7.0,29892.961361478,26,3,3,0,3,17.96,4.63,-8.28,10.16,2.98,-2.57,-72.0,-17.125,30.9375,0.43377685546875,-0.0986328125,-0.88397216796875,-0.14373779296875,-8.0,23.5,27.1875,7.79,1.65,-5.71,moving,11
7.01,29892.961361478,26,3,3,0,3,16.5,2.84,-9.63,8.8,1.16,-3.79,-62.125,-106.5,24.0,0.42535400390625,-0.10418701171875,-0.886962890625,-0.14666748046875,-8.0,23.5,27.1875,7.69,1.68,-5.83,moving,11
7.02,29892.97690697,26,3,3,0,3,16.5,2.84,-9.63,8.8,1.16,-3.79,-62.125,-106.5,24.0,0.42535400390625,-0.10418701171875,-0.886962890625,-0.14666748046875,-8.0,23.5,27.1875,7.69,1.68,-5.83,moving,11
7.02,29892.97690697,26,3,3,0,3,15.25,3.01,-9.63,7.63,1.27,-3.7,-63.4375,-82.5625,10.75,0.41845703125,-0.10845947265625,-0.88909912109375,-0.150390625,-8.0,23.5,27.1875,7.61,1.73,-5.92,moving,11
7.03,29892.992119942,26,3,3,0,3,11.93,3.15,-7.88,4.3,1.34,-2.0,-61.4375,16.75,-11.75,0.4190673828125,-0.10955810546875,-0.88775634765625,-0.15570068359375,-18.6875,23.0625,21.5,7.63,1.81,-5.88,moving,11
7.04,29892.992119942,26,3,3,0,3,10.29,2.2,-6.4,2.55,0.28,-0.69,-63.5625,117.6875,-32.5625,0.4271240234375,-0.1077880859375,-0.88287353515625,-0.16290283203125,-18.6875,23.0625,21.5,7.73,1.91,-5.7,moving,11
7.05,29893.006399605,26,3,3,0,3,8.32,1.43,-4.99,0.41,-0.61,0.42,-76.0,190.6875,-44.4375,0.44036865234375,-0.1044921875,-0.87493896484375,-0.17218017578125,-18.6875,23.0625,21.5,7.9,2.05,-5.42,moving,11
7.06,29893.006399605,26,3,3,0,3,5.49,0.09,-3.75,-2.62,-2.1,1.28,-88.6875,246.3125,-47.1875,0.45751953125,-0.10052490234375,-0.86431884765625,-0.18292236328125,-18.6875,23.0625,21.5,8.11,2.19,-5.04,moving,11
7.07,29893.036764107,26,3,3,0,3,4.4,-0.63,-2.95,-3.93,-2.96,1.66,-91.75,272.5,-37.8125,0.47650146484375,-0.09698486328125,-0.85205078125,-0.19366455078125,-18.6875,23.0625,21.5,8.33,2.33,-4.61,moving,11
7.08,29893.036764107,26,3,3,0,3,3.39,-1.26,-2.04,-5.13,-3.7,2.13,-90.75,273.75,-24.0,0.49554443359375,-0.0943603515625,-0.83905029296875,-0.20367431640625,-17.875,22.0,23.1875,8.53,2.43,-4.17,moving,11
7.09,29893.067173043,26,3,3,0,3,2.38,-1.57,-1.51,-6.31,-4.09,2.22,-89.6875,263.4375,-14.1875,0.513671875,-0.09246826171875,-0.82598876953125,-0.21295166015625,-17.875,22.0,23.1875,8.7,2.51,-3.74,moving,11
7.1,29893.067173043,26,3,3,0,3,0.66,-1.01,-1.27,-8.19,-3.59,2.06,-87.0625,237.875,-8.6875,0.52984619140625,-0.09130859375,-0.81353759765625,-0.221435546875,-17.875,22.0,23.1875,8.85,2.58,-3.33,moving,11
7.11,29893.073211373,26,3,3,0,3,0.05,-0.45,-1.19,-8.9,-3.09,1.79,-83.125,199.0,-8.5625,0.54302978515625,-0.0906982421875,-0.80267333984375,-0.229248046875,-17.875,22.0,23.1875,8.95,2.64,-2.99,moving,11
7.12,29893.073211373,26,3,3,0,3,-0.43,0.38,-1.09,-9.46,-2.31,1.59,-78.6875,164.4375,-10.3125,0.55364990234375,-0.0904541015625,-0.79327392578125,-0.23651123046875,-17.875,22.0,23.1875,9.03,2.69,-2.69,moving,11
7.13,29893.096760689,26,3,3,0,3,-0.68,0.71,-0.86,-9.77,-2.02,1.56,-63.875,148.125,-11.875,0.5631103515625,-0.08966064453125,-0.78485107421875,-0.24261474609375,-24.375,18.6875,19.375,9.09,2.74,-2.43,moving,11
7.14,29893.096760689,26,3,3,0,3,-0.65,0.78,-0.84,-9.8,-1.99,1.33,-45.125,145.625,-13.625,0.5723876953125,-0.08782958984375,-0.77679443359375,-0.24749755859375,-24.375,18.6875,19.375,9.14,2.78,-2.17,moving,11
7.15,29893.113451526,26,3,3,0,3,-0.53,0.58,-0.87,-9.71,-2.23,1.07,-30.3125,134.3125,-17.625,0.58087158203125,-0.08526611328125,-0.76947021484375,-0.25140380859375,-24.375,18.6875,19.375,9.18,2.82,-1.94,moving,11
7.16,29893.113451526,26,3,3,0,3,-0.49,0.34,-0.77,-9.7,-2.51,0.98,-17.1875,114.6875,-17.9375,0.5880126953125,-0.08245849609375,-0.763427734375,-0.2542724609375,-24.375,18.6875,19.375,9.21,2.85,-1.75,moving,11
7.17,29893.126520211,26,3,3,0,3,-0.44,0.42,-0.95,-9.68,-2.45,0.65,-8.625,92.6875,-11.625,0.59381103515625,-0.080078125,-0.758544921875,-0.256103515625,-24.375,18.6875,19.375,9.23,2.87,-1.6,moving,11
7.18,29893.126520211,26,3,3,0,3,-0.41,0.38,-0.97,-9.66,-2.5,0.52,-5.875,63.25,-3.625,0.59881591796875,-0.0760498046875,-0.75537109375,-0.2550048828125,-26.1875,18.0,16.6875,9.25,2.88,-1.49,moving,11
7.19,29893.157850899,26,3,3,0,3,-0.33,0.39,-1.03,-9.59,-2.48,0.41,-4.8125,32.6875,5.25,0.60101318359375,-0.07598876953125,-0.7535400390625,-0.2552490234375,-26.1875,18.0,16.6875,9.26,2.87,-1.44,moving,11
7.2,29893.157850899,26,3,3,0,3,-0.24,0.27,-1.07,-9.51,-2.58,0.36,-1.9375,4.8125,10.375,0.6015625,-0.07666015625,-0.753173828125,-0.2548828125,-26.1875,18.0,16.6875,9.26,2.86,-1.43,moving,11
7.21,29893.171469144,26,3,3,0,3,0.17,0.22,-1.13,-9.09,-2.61,0.33,3.125,-19.125,12.3125,0.6005859375,-0.0777587890625,-0.75421142578125,-0.25384521484375,-26.1875,18.0,16.6875,9.27,2.83,-1.46,moving,11
7.22,29893.171469144,26,3,3,0,3,0.51,0.16,-1.23,-8.75,-2.65,0.3,13.5625,-38.75,11.3125,0.598388671875,-0.07861328125,-0.7564697265625,-0.2520751953125,-26.1875,18.0,16.6875,9.26,2.81,-1.53,moving,11
7.23,29893.186403878,26,3,3,0,3,1.0,0.21,-1.41,-8.24,-2.57,0.23,31.25,-57.0625,10.3125,0.59600830078125,-0.07598876953125,-0.76031494140625,-0.2467041015625,-27.6875,18.0,14.0625,9.25,2.79,-1.64,moving,11
7.24,29893.186403878,26,3,3,0,3,1.58,0.26,-1.64,-7.64,-2.49,0.16,56.5,-83.5625,10.625,0.591064453125,-0.0755615234375,-0.76580810546875,-0.2418212890625,-27.6875,18.0,14.0625,9.23,2.75,-1.8,moving,11
7.25,29893.217373238,26,3,3,0,3,3.16,0.61,-2.56,-6.03,-2.09,-0.5,89.9375,-128.8125,12.25,0.583251953125,-0.074462890625,-0.77423095703125,-0.23431396484375,-27.6875,18.0,14.0625,9.19,2.7,-2.05,moving,11
7.26,29893.217373238,26,3,3,0,3,4.43,0.75,-3.02,-4.69,-1.87,-0.58,132.4375,-197.75,15.8125,0.5709228515625,-0.07281494140625,-0.78668212890625,-0.22320556640625,-27.6875,18.0,14.0625,9.12,2.62,-2.43,moving,11
7.27,29893.232487333,26,3,3,0,3,6.81,1.12,-3.48,-2.19,-1.37,-0.5,173.625,-290.9375,30.375,0.55242919921875,-0.0718994140625,-0.80401611328125,-0.20782470703125,-27.6875,18.0,14.0625,9.0,2.49,-2.97,moving,11
7.28,29893.232487333,26,3,3,0,3,6.81,1.12,-3.48,-2.19,-1.37,-0.5,173.625,-290.9375,30.375,0.55242919921875,-0.0718994140625,-0.80401611328125,-0.20782470703125,-27.6875,18.0,14.0625,9.0,2.49,-2.97,moving,11
7.28,29893.246502836,26,3,3,0,3,10.75,2.84,-5.53,1.96,0.55,-1.83,209.25,-411.1875,57.875,0.5255126953125,-0.07330322265625,-0.82659912109375,-0.1876220703125,-27.375,18.0,15.1875,8.78,2.28,-3.7,moving,11
7.29,29893.246502836,26,3,3,0,3,12.65,3.06,-5.42,4.21,1.05,-0.83,233.125,-533.0625,71.9375,0.48907470703125,-0.076416015625,-0.853271484375,-0.16387939453125,-27.375,18.0,15.1875,8.43,2.0,-4.58,moving,11
7.3,29893.261779691,26,3,3,0,3,14.85,1.92,-5.67,6.9,0.16,-0.21,190.375,-567.4375,61.4375,0.4483642578125,-0.08087158203125,-0.87860107421875,-0.14306640625,-27.375,18.0,15.1875,7.95,1.75,-5.46,moving,11
7.31,29893.261779691,26,3,3,0,3,18.67,1.02,-9.86,11.16,-0.56,-3.76,54.5,-462.25,79.1875,0.4139404296875,-0.09051513671875,-0.89605712890625,-0.13238525390625,-27.375,18.0,15.1875,7.51,1.59,-6.1,moving,11
7.32,29893.278524442,26,3,3,0,3,22.72,4.76,-23.19,15.48,3.29,-16.73,-76.875,-294.4375,163.0,0.39202880859375,-0.109375,-0.90411376953125,-0.130126953125,-27.375,18.0,15.1875,7.23,1.46,-6.46,moving,11
7.33,29893.278524442,26,3,3,0,3,23.62,5.95,-23.22,16.53,4.63,-16.57,-95.1875,-167.125,199.25,0.380126953125,-0.1302490234375,-0.90655517578125,-0.129150390625,-21.5,21.6875,21.375,7.08,1.32,-6.64,moving,11
7.34,29893.307128894,26,3,3,0,3,23.61,6.08,-18.17,16.57,4.79,-11.47,-80.1875,-61.5,101.8125,0.37542724609375,-0.14166259765625,-0.906494140625,-0.13140869140625,-21.5,21.6875,21.375,7.03,1.29,-6.7,moving,11
7.35,29893.307128894,26,3,3,0,3,20.8,2.39,-8.8,13.62,1.01,-2.26,2.6875,132.25,-72.625,0.38507080078125,-0.13427734375,-0.90301513671875,-0.1351318359375,-21.5,21.6875,21.375,7.17,1.37,-6.54,moving,11
7.36,29893.321487618,26,3,3,0,3,18.14,3.45,-7.26,10.73,1.94,-1.03,31.75,245.0625,-129.25,0.403076171875,-0.1201171875,-0.89642333984375,-0.13983154296875,-21.5,21.6875,21.375,7.41,1.5,-6.23,moving,11
7.37,29893.321487618,26,3,3,0,3,17.03,4.88,-8.13,9.38,3.29,-2.19,-3.8125,231.125,-55.5625,0.42034912109375,-0.11309814453125,-0.88861083984375,-0.14447021484375,-21.5,21.6875,21.375,7.64,1.58,-5.93,moving,11
7.38,29893.337088367,26,3,3,0,3,18.44,4.33,-9.1,10.7,2.73,-3.3,-14.3125,90.25,3.5625,0.42724609375,-0.11273193359375,-0.88507080078125,-0.14630126953125,-11.5625,23.75,26.25,7.74,1.59,-5.8,moving,11
7.39,29893.337088367,26,3,3,0,3,20.11,3.03,-9.29,12.45,1.47,-3.38,-2.0,-79.75,21.0,0.42138671875,-0.115478515625,-0.88775634765625,-0.1448974609375,-11.5625,23.75,26.25,7.66,1.56,-5.91,moving,11
7.4,29893.367258695,26,3,3,0,3,18.74,4.58,-10.03,11.16,3.02,-4.0,-17.5625,-93.375,17.625,0.4141845703125,-0.11865234375,-0.8907470703125,-0.1446533203125,-11.5625,23.75,26.25,7.57,1.56,-6.03,moving,11
7.41,29893.367258695,26,3,3,0,3,16.34,3.91,-8.53,8.73,2.3,-2.55,-49.3125,28.5625,5.8125,0.41595458984375,-0.12054443359375,-0.8890380859375,-0.1485595703125,-11.5625,23.75,26.25,7.6,1.6,-5.98,moving,11
7.42,29893.381373401,26,3,3,0,3,13.78,3.39,-7.56,6.01,1.71,-1.81,-72.1875,155.0,-5.375,0.4271240234375,-0.1207275390625,-0.88238525390625,-0.15594482421875,-11.5625,23.75,26.25,7.76,1.68,-5.75,moving,11
7.43,29893.381373401,26,3,3,0,3,8.76,1.85,-5.09,0.77,0.05,0.29,-96.5,242.0625,-14.625,0.4444580078125,-0.119873046875,-0.87200927734375,-0.16644287109375,-15.5625,23.0625,23.1875,7.99,1.8,-5.38,moving,11
7.44,29893.396414376,26,3,3,0,3,7.29,0.9,-3.06,-0.95,-1.02,1.87,-109.0625,294.875,-21.625,0.46527099609375,-0.11810302734375,-0.85888671875,-0.1785888671875,-15.5625,23.0625,23.1875,8.25,1.93,-4.93,moving,11
7.45,29893.396414376,26,3,3,0,3,6.12,0.3,-3.37,-2.4,-1.68,1.04,-58.9375,338.1875,-9.5,0.48968505859375,-0.114501953125,-0.84393310546875,-0.186767578125,-15.5625,23.0625,23.1875,8.52,1.99,-4.41,moving,11
7.46,29893.427428454,26,3,3,0,3,4.49,-0.34,-2.95,-4.25,-2.37,0.98,-34.9375,311.875,-8.9375,0.511962890625,-0.1102294921875,-0.829833984375,-0.1927490234375,-15.5625,23.0625,23.1875,8.74,2.03,-3.93,moving,11
7.47,29893.427428454,26,3,3,0,3,3.68,-0.93,-2.3,-5.2,-3.04,1.26,-44.25,227.0,-31.125,0.52734375,-0.1060791015625,-0.81903076171875,-0.19952392578125,-15.5625,23.0625,23.1875,8.88,2.1,-3.57,moving,11
7.48,29893.441838489,26,3,3,0,3,2.79,-0.13,-2.45,-6.17,-2.32,0.86,-44.3125,152.25,-34.3125,0.53717041015625,-0.10302734375,-0.81146240234375,-0.20562744140625,-19.25,20.875,21.0,8.96,2.18,-3.31,moving,11
7.49,29893.441838489,26,3,3,0,3,2.14,0.09,-2.02,-6.85,-2.16,1.13,-30.1875,90.625,-37.0,0.54266357421875,-0.1002197265625,-0.8070068359375,-0.2103271484375,-19.25,20.875,21.0,9.0,2.26,-3.16,moving,11
7.5,29893.45806851,26,3,3,0,3,1.27,0.03,-1.4,-7.74,-2.29,1.65,-24.3125,56.125,-32.5,0.54583740234375,-0.09808349609375,-0.80413818359375,-0.21405029296875,-19.25,20.875,21.0,9.02,2.32,-3.06,moving,11
7.51,29893.45806851,26,3,3,0,3,0.88,-0.05,-1.03,-8.15,-2.4,1.95,-22.1875,43.9375,-10.3125,0.54852294921875,-0.09759521484375,-0.80169677734375,-0.2164306640625,-19.25,20.875,21.0,9.03,2.35,-2.98,moving,11
7.52,29893.486729276,26,3,3,0,3,0.25,0.28,-1.05,-8.79,-2.07,1.87,-19.4375,30.3125,2.9375,0.550537109375,-0.09814453125,-0.79986572265625,-0.2178955078125,-19.25,20.875,21.0,9.05,2.35,-2.93,moving,11
7.53,29893.486729276,26,3,3,0,3,0.14,0.02,-0.55,-8.91,-2.35,2.33,-40.375,15.0,2.625,0.55133056640625,-0.10003662109375,-0.79833984375,-0.220703125,-23.0,20.1875,17.5,9.06,2.37,-2.88,moving,11
7.54,29893.50148481,26,3,3,0,3,0.32,-0.22,-0.53,-8.75,-2.61,2.29,-44.625,27.0,4.5,0.55291748046875,-0.1019287109375,-0.79608154296875,-0.223876953125,-23.0,20.1875,17.5,9.08,2.38,-2.82,moving,11
7.55,29893.50148481,26,3,3,0,3,0.13,-0.12,-0.3,-8.96,-2.52,2.43,-33.0,45.625,4.3125,0.555908203125,-0.10296630859375,-0.793212890625,-0.226318359375,-23.0,20.1875,17.5,9.1,2.39,-2.74,moving,11
7.56,29893.517434721,26,3,3,0,3,0.23,0.0,-0.69,-8.89,-2.41,1.93,-23.875,63.5,-2.6875,0.55999755859375,-0.1026611328125,-0.7896728515625,-0.22869873046875,-23.0,20.1875,17.5,9.13,2.41,-2.62,moving,11
7.57,29893.517434721,26,3,3,0,3,0.23,0.0,-0.69,-8.89,-2.41,1.93,-23.875,63.5,-2.6875,0.55999755859375,-0.1026611328125,-0.7896728515625,-0.22869873046875,-23.0,20.1875,17.5,9.13,2.41,-2.62,moving,11
7.57,29893.532348743,26,3,3,0,3,0.61,0.29,-1.23,-8.54,-2.13,1.28,-13.9375,64.8125,-6.8125,0.564208984375,-0.10162353515625,-0.7862548828125,-0.23052978515625,-23.0,20.1875,17.5,9.16,2.43,-2.52,moving,11
7.58,29893.532348743,26,3,3,0,3,0.73,0.37,-1.28,-8.44,-2.06,1.15,3.75,50.625,-7.4375,0.56756591796875,-0.09991455078125,-0.78387451171875,-0.2310791015625,-24.375,18.6875,18.6875,9.17,2.44,-2.44,moving,11
7.59,29893.54631322,26,3,3,0,3,0.78,0.49,-1.44,-8.39,-1.94,0.96,22.125,28.4375,-4.875,0.56964111328125,-0.097900390625,-0.782958984375,-0.23004150390625,-24.375,18.6875,18.6875,9.18,2.43,-2.4,moving,11
7.6,29893.54631322,26,3,3,0,3,1.11,0.66,-1.82,-8.07,-1.76,0.6,31.625,-6.5625,0.3125,0.5694580078125,-0.09649658203125,-0.78387451171875,-0.22784423828125,-24.375,18.6875,18.6875,9.18,2.42,-2.42,moving,11
7.61,29893.577703764,26,3,3,0,3,2.59,0.84,-2.38,-6.57,-1.55,0.15,38.3125,-58.125,6.125,0.56591796875,-0.09613037109375,-0.7874755859375,-0.224365234375,-24.375,18.6875,18.6875,9.16,2.39,-2.53,moving,11
7.62,29893.577703764,26,3,3,0,3,3.43,0.9,-2.62,-5.68,-1.44,0.12,50.0,-117.75,14.25,0.55853271484375,-0.09698486328125,-0.79412841796875,-0.21923828125,-24.375,18.6875,18.6875,9.11,2.35,-2.74,moving,11
7.63,29893.592263293,26,3,3,0,3,4.34,1.1,-2.97,-4.68,-1.17,0.08,63.25,-179.1875,25.125,0.54705810546875,-0.09906005859375,-0.8037109375,-0.21209716796875,-25.875,18.25,16.0,9.03,2.28,-3.05,moving,11
7.64,29893.592263293,26,3,3,0,3,5.58,1.14,-3.27,-3.33,-1.03,0.18,70.4375,-238.0,35.3125,0.531494140625,-0.1025390625,-0.81585693359375,-0.20330810546875,-25.875,18.25,16.0,8.91,2.18,-3.45,moving,11
7.65,29893.608149402,26,3,3,0,3,8.66,1.21,-4.62,-0.08,-0.85,-0.7,68.0625,-284.875,46.625,0.51251220703125,-0.10772705078125,-0.82958984375,-0.19366455078125,-25.875,18.25,16.0,8.74,2.06,-3.91,moving,11
7.66,29893.608149402,26,3,3,0,3,10.51,1.35,-5.61,1.97,-0.58,-1.2,50.9375,-317.5,58.375,0.49078369140625,-0.11505126953125,-0.84375,-0.184326171875,-25.875,18.25,16.0,8.53,1.94,-4.41,moving,11
7.67,29893.636685779,26,3,3,0,3,12.56,1.57,-7.45,4.26,-0.24,-2.55,25.1875,-326.6875,72.4375,0.46795654296875,-0.12451171875,-0.8570556640625,-0.176025390625,-25.875,18.25,16.0,8.29,1.81,-4.9,moving,11
7.68,29893.636685779,26,3,3,0,3,16.26,2.44,-12.92,8.21,0.76,-7.57,12.5625,-310.75,92.6875,0.44610595703125,-0.1356201171875,-0.86859130859375,-0.1678466796875,-23.0625,20.5,19.1875,8.04,1.67,-5.35,moving,11
7.69,29893.651698189,26,3,3,0,3,18.02,3.25,-15.86,10.22,1.73,-10.12,8.0625,-281.625,105.875,0.42626953125,-0.14739990234375,-0.87811279296875,-0.15966796875,-23.0625,20.5,19.1875,7.8,1.51,-5.74,moving,11
7.7,29893.651698189,26,3,3,0,3,20.45,3.77,-18.0,12.89,2.38,-11.91,1.1875,-261.6875,91.4375,0.40740966796875,-0.157958984375,-0.88641357421875,-0.15277099609375,-23.0625,20.5,19.1875,7.55,1.39,-6.09,moving,11
7.71,29893.666273466,26,3,3,0,3,23.51,4.91,-18.19,16.18,3.57,-11.81,11.0625,-213.25,32.3125,0.39141845703125,-0.16290283203125,-0.8935546875,-0.14776611328125,-23.0625,20.5,19.1875,7.33,1.33,-6.37,moving,11
7.72,29893.666273466,26,3,3,0,3,25.74,6.6,-13.88,18.51,5.21,-7.39,49.9375,-79.5,-78.4375,0.3848876953125,-0.1561279296875,-0.89794921875,-0.1453857421875,-23.0625,20.5,19.1875,7.22,1.38,-6.48,moving,11
7.73,29893.69626252,26,3,3,0,3,23.67,6.9,-9.77,16.37,5.43,-3.39,52.125,92.6875,-118.6875,0.391357421875,-0.14385986328125,-0.89703369140625,-0.14654541015625,-15.375,21.6875,24.5,7.29,1.47,-6.38,moving,11
7.74,29893.69626252,26,3,3,0,3,16.52,6.05,-9.96,9.01,4.48,-3.86,-21.5,215.75,-58.6875,0.40716552734375,-0.13720703125,-0.88995361328125,-0.15289306640625,-15.375,21.6875,24.5,7.51,1.57,-6.09,moving,11
7.76,29893.728390938,26,3,3,0,3,14.37,1.17,-7.93,6.54,-0.59,-2.29,-77.125,110.25,-29.3125,0.42852783203125,-0.13739013671875,-0.876708984375,-0.16998291015625,-15.375,21.6875,24.5,7.82,1.76,-5.63,moving,11
7.77,29893.728390938,26,3,3,0,3,12.73,1.24,-7.25,4.84,-0.61,-1.74,-67.3125,72.5625,-16.6875,0.43304443359375,-0.13751220703125,-0.8731689453125,-0.1766357421875,-15.375,21.6875,24.5,7.89,1.85,-5.51,moving,11
7.78,29893.741435331,26,3,3,0,3,11.7,0.64,-6.14,3.75,-1.27,-0.73,-71.9375,60.0625,1.0625,0.436767578125,-0.139404296875,-0.86968994140625,-0.18280029296875,-15.375,23.0625,25.25,7.94,1.92,-5.4,moving,11
7.79,29893.741435331,26,3,3,0,3,8.84,-0.18,-4.69,0.82,-2.16,0.58,-59.375,80.8125,-4.8125,0.44207763671875,-0.1400146484375,-0.86572265625,-0.1884765625,-15.375,23.0625,25.25,8.02,1.98,-5.27,moving,11
7.8,29893.756229439,26,3,3,0,3,7.05,0.1,-4.17,-1.05,-1.93,0.93,-52.875,105.9375,-7.9375,0.4493408203125,-0.13970947265625,-0.86077880859375,-0.19403076171875,-15.375,23.0625,25.25,8.11,2.04,-5.1,moving,11
7.81,29893.756229439,26,3,3,0,3,5.74,0.23,-3.63,-2.47,-1.86,1.27,-61.875,119.0625,-5.3125,0.4573974609375,-0.13970947265625,-0.85504150390625,-0.2003173828125,-15.375,23.0625,25.25,8.21,2.1,-4.91,moving,11
7.82,29893.772173409,26,3,3,0,3,5.74,0.23,-3.63,-2.47,-1.86,1.27,-61.875,119.0625,-5.3125,0.4573974609375,-0.13970947265625,-0.85504150390625,-0.2003173828125,-15.375,23.0625,25.25,8.21,2.1,-4.91,moving,11
7.83,29893.772173409,26,3,3,0,3,4.55,0.29,-3.01,-3.76,-1.87,1.7,-68.0,122.6875,-4.125,0.46563720703125,-0.13995361328125,-0.84893798828125,-0.20703125,-15.375,23.0625,25.25,8.32,2.16,-4.71,moving,11
7.83,29893.786904122,26,3,3,0,3,2.14,0.34,-1.46,-6.27,-1.88,3.03,-64.375,128.4375,-5.75,0.4742431640625,-0.13983154296875,-0.84259033203125,-0.21356201171875,-17.5625,20.875,23.25,8.42,2.22,-4.5,moving,11
7.84,29893.786904122,26,3,3,0,3,0.99,0.51,-0.92,-7.53,-1.76,3.34,-56.4375,142.3125,-9.75,0.48382568359375,-0.1387939453125,-0.835693359375,-0.2198486328125,-17.5625,20.875,23.25,8.52,2.28,-4.26,moving,11
7.85,29893.817073311,26,3,3,0,3,0.01,0.67,-0.55,-8.61,-1.66,3.45,-50.6875,159.5625,-16.75,0.49444580078125,-0.13665771484375,-0.82806396484375,-0.22613525390625,-17.5625,20.875,23.25,8.63,2.34,-4.0,moving,11
7.86,29893.817073311,26,3,3,0,3,-0.8,1.02,-0.28,-9.54,-1.39,3.42,-51.0,178.25,-23.0625,0.5062255859375,-0.1336669921875,-0.81951904296875,-0.23291015625,-17.5625,20.875,23.25,8.74,2.41,-3.71,moving,11
7.87,29893.831511747,26,3,3,0,3,-1.07,1.41,-0.22,-9.93,-1.07,3.16,-53.6875,197.75,-26.8125,0.51910400390625,-0.13006591796875,-0.80987548828125,-0.24017333984375,-17.5625,20.875,23.25,8.85,2.49,-3.38,moving,11
7.88,29893.831511747,26,3,3,0,3,-1.11,1.73,-0.36,-10.07,-0.83,2.67,-56.1875,209.375,-29.0,0.5325927734375,-0.12615966796875,-0.79937744140625,-0.247802734375,-19.75,18.6875,22.5625,8.96,2.56,-3.03,moving,11
7.89,29893.846467395,26,3,3,0,3,-1.14,1.98,-0.42,-10.2,-0.64,2.26,-50.0,204.5,-24.625,0.545654296875,-0.12237548828125,-0.7889404296875,-0.254638671875,-19.75,18.6875,22.5625,9.05,2.63,-2.69,moving,11
7.9,29893.846467395,26,3,3,0,3,-1.03,1.92,-0.8,-10.16,-0.74,1.6,-41.375,173.125,-11.1875,0.55682373046875,-0.11968994140625,-0.77978515625,-0.25982666015625,-19.75,18.6875,22.5625,9.12,2.66,-2.4,moving,11
7.91,29893.877816435,26,3,3,0,3,-0.7,1.56,-0.57,-9.87,-1.11,1.63,-38.25,110.8125,7.4375,0.56414794921875,-0.11956787109375,-0.7734375,-0.26324462890625,-19.75,18.6875,22.5625,9.17,2.67,-2.2,moving,11
7.92,29893.877816435,26,3,3,0,3,-0.35,0.97,-0.13,-9.55,-1.67,1.98,-35.875,42.3125,19.3125,0.56707763671875,-0.12164306640625,-0.77032470703125,-0.26513671875,-19.75,18.6875,22.5625,9.19,2.65,-2.12,moving,11
7.93,29893.892103585,26,3,3,0,3,-0.01,0.21,0.47,-9.22,-2.41,2.59,-22.4375,-3.3125,19.5,0.56829833984375,-0.12042236328125,-0.77032470703125,-0.26287841796875,-24.875,18.0,18.75,9.2,2.62,-2.11,moving,11
7.94,29893.892103585,26,3,3,0,3,0.05,-0.16,0.55,-9.15,-2.77,2.7,-3.625,-21.375,16.1875,0.56719970703125,-0.1221923828125,-0.7711181640625,-0.2620849609375,-24.875,18.0,18.75,9.2,2.6,-2.14,moving,11
7.95,29893.910470976,26,3,3,0,3,-0.31,0.1,0.17,-9.51,-2.47,2.36,6.6875,-28.625,14.25,0.565673828125,-0.12347412109375,-0.77252197265625,-0.2606201171875,-24.875,18.0,18.75,9.2,2.57,-2.19,moving,11
7.96,29893.910470976,26,3,3,0,3,-0.61,0.38,-0.34,-9.8,-2.16,1.9,6.5625,-33.8125,15.0625,0.5638427734375,-0.12493896484375,-0.774169921875,-0.25909423828125,-24.875,18.0,18.75,9.19,2.55,-2.25,stop,11
7.97,29893.938081897,26,3,3,0,3,-0.05,0.76,-1.7,-9.23,-1.76,0.62,0.5625,-46.5625,17.1875,0.56109619140625,-0.12713623046875,-0.77630615234375,-0.2576904296875,-24.875,18.0,18.75,9.18,2.52,-2.32,stop,11
7.98,29893.938081897,26,3,3,0,3,0.85,0.66,-2.35,-8.3,-1.82,0.1,-2.3125,-81.75,20.1875,0.55609130859375,-0.13006591796875,-0.780029296875,-0.25567626953125,-25.25,18.25,19.875,9.16,2.49,-2.45,stop,11
7.99,29893.952385852,26,3,3,0,3,2.16,0.64,-3.19,-6.93,-1.8,-0.5,9.875,-144.1875,25.9375,0.54693603515625,-0.13458251953125,-0.78692626953125,-0.2520751953125,-25.25,18.25,19.875,9.1,2.44,-2.69,stop,11
8.0,29893.952385852,26,3,3,0,3,4.14,0.71,-4.42,-4.85,-1.64,-1.33,43.125,-242.0,38.75,0.53155517578125,-0.14044189453125,-0.79876708984375,-0.244384765625,-25.25,18.25,19.875,9.0,2.36,-3.09,stop,11
8.01,29893.966726876,26,3,3,0,3,9.71,0.64,-7.97,0.91,-1.56,-4.24,97.375,-384.1875,63.25,0.50701904296875,-0.1484375,-0.8173828125,-0.22979736328125,-25.25,18.25,19.875,8.79,2.2,-3.72,stop,11
8.02,29893.966726876,26,3,3,0,3,13.09,0.34,-9.78,4.66,-1.6,-5.16,158.5,-555.1875,92.625,0.47076416015625,-0.158935546875,-0.8427734375,-0.2069091796875,-25.25,18.25,19.875,8.42,1.95,-4.62,stop,11
8.03,29893.996523181,26,3,3,0,3,17.3,-0.15,-11.16,9.46,-1.78,-5.5,184.8125,-693.8125,110.8125,0.4234619140625,-0.17169189453125,-0.871337890625,-0.1788330078125,-22.6875,18.0,21.75,7.83,1.62,-5.66,stop,11
8.04,29893.996523181,26,3,3,0,3,21.29,-0.62,-12.32,14.13,-2.01,-5.76,98.4375,-663.8125,107.8125,0.37548828125,-0.186279296875,-0.89422607421875,-0.1571044921875,-22.6875,18.0,21.75,7.15,1.38,-6.55,stop,11
8.05,29894.012502104,26,3,3,0,3,23.78,2.23,-25.62,17.04,0.92,-18.62,-75.625,-377.4375,133.6875,0.346435546875,-0.2042236328125,-0.90277099609375,-0.15240478515625,-22.6875,18.0,21.75,6.74,1.31,-6.99,stop,11
8.06,29894.012502104,26,3,3,0,3,21.74,2.2,-22.0,15.02,0.89,-14.98,-131.5,-47.375,134.8125,0.34210205078125,-0.21942138671875,-0.89996337890625,-0.15777587890625,-22.6875,18.0,21.75,6.71,1.31,-7.02,stop,11
8.07,29894.027919869,26,3,3,0,3,18.98,-1.52,-14.04,12.03,-2.9,-7.25,-65.0625,185.8125,8.0,0.35552978515625,-0.21942138671875,-0.89324951171875,-0.16619873046875,-22.6875,18.0,21.75,6.94,1.38,-6.78,stop,11
8.08,29894.027919869,26,3,3,0,3,18.98,-1.52,-14.04,12.03,-2.9,-7.25,-65.0625,185.8125,8.0,0.35552978515625,-0.21942138671875,-0.89324951171875,-0.16619873046875,-22.6875,18.0,21.75,6.94,1.38,-6.78,stop,11
8.08,29894.043958443,26,3,3,0,3,12.45,-2.09,-10.2,5.14,-3.58,-3.83,1.3125,338.3125,-91.9375,0.38037109375,-0.20721435546875,-0.88409423828125,-0.17529296875,-9.875,22.375,28.25,7.3,1.49,-6.36,stop,11
8.09,29894.043958443,26,3,3,0,3,9.81,-0.03,-8.7,2.19,-1.65,-2.74,11.9375,313.375,-101.5625,0.403076171875,-0.19415283203125,-0.8753662109375,-0.18328857421875,-9.875,22.375,28.25,7.61,1.61,-5.96,stop,11
8.1,29894.055469633,26,3,3,0,3,8.11,0.62,-6.93,0.29,-1.05,-1.26,45.625,221.8125,-78.9375,0.41943359375,-0.18292236328125,-0.86944580078125,-0.186279296875,-9.875,22.375,28.25,7.82,1.67,-5.67,stop,11
8.11,29894.055469633,26,3,3,0,3,7.35,0.09,-6.01,-0.57,-1.56,-0.48,93.0625,131.5625,-55.875,0.429931640625,-0.17315673828125,-0.866943359375,-0.183349609375,-9.875,22.375,28.25,7.93,1.65,-5.52,stop,11
8.12,29894.086853788,26,3,3,0,3,7.33,-1.15,-5.04,-0.58,-2.76,0.5,104.4375,1.0625,-34.0,0.4310302734375,-0.1666259765625,-0.8690185546875,-0.17669677734375,-9.875,22.375,28.25,7.92,1.6,-5.55,stop,11
8.13,29894.086853788,26,3,3,0,3,7.97,-1.21,-5.56,0.18,-2.73,0.19,93.0,-139.375,-7.0,0.42169189453125,-0.16473388671875,-0.875732421875,-0.1678466796875,-13.1875,20.875,28.25,7.78,1.51,-5.76,stop,11
8.14,29894.101623442,26,3,3,0,3,8.89,-1.01,-6.74,1.37,-2.42,-0.61,82.3125,-255.25,16.0,0.40350341796875,-0.16668701171875,-0.88580322265625,-0.1572265625,-13.1875,20.875,28.25,7.52,1.41,-6.12,stop,11
8.15,29894.101623442,26,3,3,0,3,10.05,0.06,-8.81,2.87,-1.23,-2.25,78.625,-320.9375,24.9375,0.38006591796875,-0.170166015625,-0.8974609375,-0.1455078125,-13.1875,20.875,28.25,7.17,1.29,-6.55,stop,11
8.16,29894.116888375,26,3,3,0,3,10.95,0.86,-9.72,4.12,-0.32,-2.78,71.5625,-299.75,15.8125,0.35772705078125,-0.17279052734375,-0.90771484375,-0.13482666015625,-13.1875,20.875,28.25,6.82,1.18,-6.94,stop,11
8.17,29894.116888375,26,3,3,0,3,11.59,1.68,-10.05,5.0,0.54,-2.88,42.375,-190.3125,-6.4375,0.34320068359375,-0.17315673828125,-0.91412353515625,-0.1287841796875,-13.1875,20.875,28.25,6.59,1.14,-7.17,stop,11
8.18,29894.147855945,26,3,3,0,3,11.38,2.13,-9.25,4.83,0.96,-2.04,5.125,-31.875,-27.6875,0.34039306640625,-0.17120361328125,-0.91558837890625,-0.128662109375,-12.5,22.0,26.25,6.54,1.16,-7.2,stop,11
8.19,29894.147855945,26,3,3,0,3,9.51,1.31,-6.25,2.84,0.07,0.82,-14.125,107.0625,-40.875,0.3482666015625,-0.16717529296875,-0.91278076171875,-0.132568359375,-12.5,22.0,26.25,6.66,1.23,-7.08,stop,11
8.2,29894.162504342,26,3,3,0,3,8.36,0.72,-5.46,1.48,-0.59,1.39,-26.625,182.375,-47.6875,0.36181640625,-0.16204833984375,-0.90753173828125,-0.13873291015625,-12.5,22.0,26.25,6.88,1.31,-6.86,stop,11
8.21,29894.162504342,26,3,3,0,3,7.19,0.28,-5.08,0.07,-1.12,1.51,-33.6875,208.9375,-45.875,0.3773193359375,-0.15692138671875,-0.9010009765625,-0.145751953125,-12.5,22.0,26.25,7.11,1.41,-6.59,stop,11
8.22,29894.176550484,26,3,3,0,3,6.24,0.0,-4.61,-1.07,-1.5,1.72,-35.3125,194.0625,-41.1875,0.3914794921875,-0.15240478515625,-0.89459228515625,-0.15252685546875,-12.5,22.0,26.25,7.32,1.5,-6.34,stop,11
8.23,29894.176550484,26,3,3,0,3,5.0,-0.52,-4.03,-2.48,-2.11,2.08,-27.75,163.4375,-36.8125,0.40338134765625,-0.14825439453125,-0.88897705078125,-0.1580810546875,-9.5,23.5,26.6875,7.49,1.58,-6.12,stop,11
8.24,29894.209331165,26,3,3,0,3,4.77,-0.61,-3.89,-2.84,-2.26,2.06,-17.9375,124.75,-33.125,0.412353515625,-0.14459228515625,-0.88470458984375,-0.16217041015625,-9.5,23.5,26.6875,7.61,1.64,-5.95,stop,11
8.25,29894.209331165,26,3,3,0,3,4.69,-0.7,-3.97,-2.99,-2.4,1.87,-5.1875,80.875,-31.125,0.4180908203125,-0.14129638671875,-0.882080078125,-0.16473388671875,-9.5,23.5,26.6875,7.68,1.69,-5.84,stop,11
8.26,29894.221613391,26,3,3,0,3,4.84,-0.69,-4.5,-2.87,-2.4,1.3,14.875,36.1875,-27.4375,0.420654296875,-0.13812255859375,-0.88134765625,-0.16497802734375,-9.5,23.5,26.6875,7.71,1.71,-5.8,stop,11
8.27,29894.221613391,26,3,3,0,3,4.95,-0.55,-4.84,-2.75,-2.25,0.98,38.0625,-11.25,-20.0625,0.41998291015625,-0.1353759765625,-0.88250732421875,-0.16259765625,-9.5,23.5,26.6875,7.7,1.69,-5.82,stop,11
8.28,29894.23718997,26,3,3,0,3,5.06,-0.28,-5.34,-2.57,-1.94,0.56,57.3125,-55.1875,-11.5625,0.416259765625,-0.1331787109375,-0.88543701171875,-0.157958984375,-14.6875,21.6875,25.1875,7.64,1.65,-5.91,stop,11
8.29,29894.23718997,26,3,3,0,3,5.16,-0.14,-5.81,-2.38,-1.73,0.23,68.9375,-90.0,-5.0,0.4100341796875,-0.13153076171875,-0.88970947265625,-0.1517333984375,-14.6875,21.6875,25.1875,7.54,1.58,-6.05,stop,11
8.3,29894.266824166,26,3,3,0,3,5.18,0.02,-6.37,-2.24,-1.48,-0.15,72.0625,-111.8125,-0.8125,0.40216064453125,-0.13037109375,-0.89459228515625,-0.14483642578125,-14.6875,21.6875,25.1875,7.42,1.51,-6.22,stop,11
8.31,29894.266824166,26,3,3,0,3,5.09,0.06,-6.47,-2.2,-1.36,-0.08,68.5625,-117.875,0.875,0.39373779296875,-0.1295166015625,-0.8995361328125,-0.1380615234375,-14.6875,21.6875,25.1875,7.29,1.43,-6.39,stop,11
8.32,29894.281849801,26,3,3,0,3,5.05,-0.01,-6.46,-2.12,-1.36,0.07,65.8125,-108.125,3.125,0.38604736328125,-0.12884521484375,-0.9039306640625,-0.13153076171875,-14.6875,21.6875,25.1875,7.17,1.35,-6.54,stop,11
8.33,29894.281849801,26,3,3,0,3,5.13,0.0,-6.85,-1.94,-1.27,-0.18,63.5625,-86.875,7.125,0.3800048828125,-0.12823486328125,-0.907470703125,-0.125244140625,-14.6875,21.6875,25.1875,7.07,1.27,-6.66,stop,11
8.34,29894.296678496,26,3,3,0,3,5.13,0.0,-6.85,-1.94,-1.27,-0.18,63.5625,-86.875,7.125,0.3800048828125,-0.12823486328125,-0.907470703125,-0.125244140625,-14.6875,21.6875,25.1875,7.07,1.27,-6.66,stop,11
8.34,29894.296678496,26,3,3,0,3,5.75,0.35,-8.28,-1.24,-0.84,-1.52,52.9375,-70.625,9.125,0.37506103515625,-0.12799072265625,-0.9102783203125,-0.11993408203125,-14.6875,21.6875,25.1875,6.99,1.19,-6.76,stop,11
8.35,29894.312723377,26,3,3,0,3,6.15,0.83,-8.95,-0.77,-0.31,-2.11,36.25,-55.6875,6.25,0.37115478515625,-0.1279296875,-0.912353515625,-0.11614990234375,-14.6875,21.6875,25.1875,6.93,1.14,-6.84,stop,11
8.36,29894.312723377,26,3,3,0,3,6.71,1.11,-9.53,-0.17,0.0,-2.65,20.625,-30.75,-3.875,0.368896484375,-0.12725830078125,-0.91363525390625,-0.1142578125,-14.6875,21.6875,25.1875,6.89,1.12,-6.88,stop,11
8.37,29894.327673694,26,3,3,0,3,7.71,1.71,-9.41,0.82,0.57,-2.53,2.625,0.6875,-15.5,0.36883544921875,-0.1259765625,-0.91375732421875,-0.114501953125,-14.6875,21.6875,25.1875,6.89,1.14,-6.88,stop,11
8.38,29894.327673694,26,3,3,0,3,9.03,1.8,-8.25,2.09,0.61,-1.42,-19.375,42.0625,-24.75,0.3717041015625,-0.12420654296875,-0.9124755859375,-0.1173095703125,-12.5,24.1875,24.75,6.93,1.19,-6.82,stop,11
8.39,29894.357344877,26,3,3,0,3,9.82,2.23,-7.52,2.77,0.95,-0.83,-47.0625,100.5625,-23.4375,0.37896728515625,-0.12286376953125,-0.908935546875,-0.12286376953125,-12.5,24.1875,24.75,7.05,1.27,-6.69,stop,11
8.4,29894.357344877,26,3,3,0,3,9.21,2.7,-7.27,2.0,1.35,-0.76,-52.875,141.0625,-11.0625,0.389404296875,-0.1221923828125,-0.90374755859375,-0.12884521484375,-12.5,24.1875,24.75,7.21,1.35,-6.5,stop,11
8.41,29894.371987171,26,3,3,0,3,8.81,2.55,-5.76,1.45,1.15,0.56,-31.5625,135.25,-9.0625,0.39959716796875,-0.12103271484375,-0.89886474609375,-0.133056640625,-12.5,24.1875,24.75,7.36,1.39,-6.32,stop,11
8.42,29894.371987171,26,3,3,0,3,8.77,2.53,-4.88,1.31,1.11,1.32,-13.875,93.25,-11.1875,0.4066162109375,-0.11956787109375,-0.8955078125,-0.135498046875,-12.5,24.1875,24.75,7.46,1.42,-6.2,stop,11
8.43,29894.387017241,26,3,3,0,3,9.34,2.41,-3.81,1.83,0.96,2.33,-4.875,45.6875,-12.25,0.4100341796875,-0.1182861328125,-0.89398193359375,-0.13677978515625,-13.1875,23.0625,23.5625,7.5,1.44,-6.14,stop,11
8.44,29894.387017241,26,3,3,0,3,9.57,2.99,-3.54,2.05,1.52,2.57,-7.375,16.0,-9.8125,0.41107177734375,-0.1175537109375,-0.8934326171875,-0.1378173828125,-13.1875,23.0625,23.5625,7.52,1.46,-6.11,stop,11
8.45,29894.417029814,26,3,3,0,3,8.27,3.02,-4.6,0.75,1.53,1.5,-14.1875,2.9375,-4.5,0.4111328125,-0.11773681640625,-0.8931884765625,-0.13909912109375,-13.1875,23.0625,23.5625,7.52,1.48,-6.11,stop,11
8.46,29894.417029814,26,3,3,0,3,7.28,2.6,-5.45,-0.23,1.1,0.66,-19.0625,-6.0,1.0625,0.4105224609375,-0.11859130859375,-0.89312744140625,-0.14044189453125,-13.1875,23.0625,23.5625,7.51,1.5,-6.11,stop,11
8.47,29894.432604725,26,3,3,0,3,6.68,2.31,-5.81,-0.81,0.79,0.3,-23.6875,-11.5,8.125,0.40948486328125,-0.1202392578125,-0.8931884765625,-0.14190673828125,-13.1875,23.0625,23.5625,7.5,1.52,-6.12,stop,11
8.48,29894.432604725,26,3,3,0,3,6.27,1.83,-5.95,-1.22,0.3,0.16,-24.1875,-5.4375,10.0625,0.408935546875,-0.12164306640625,-0.89300537109375,-0.1431884765625,-15.6875,23.5,24.0625,7.5,1.53,-6.12,stop,11
8.49,29894.446026559,26,3,3,0,3,6.2,1.55,-5.83,-1.3,0.01,0.27,-17.25,7.8125,4.625,0.40948486328125,-0.12249755859375,-0.8924560546875,-0.1444091796875,-15.6875,23.5,24.0625,7.51,1.54,-6.1,stop,11
8.5,29894.446026559,26,3,3,0,3,6.14,1.31,-5.71,-1.38,-0.23,0.37,-7.3125,16.0,-2.0625,0.41058349609375,-0.1224365234375,-0.89178466796875,-0.14520263671875,-15.6875,23.5,24.0625,7.53,1.55,-6.08,stop,11
8.51,29894.478092273,26,3,3,0,3,6.24,1.11,-5.56,-1.3,-0.44,0.5,1.9375,13.75,-5.75,0.41162109375,-0.12176513671875,-0.89141845703125,-0.14544677734375,-15.6875,23.5,24.0625,7.54,1.55,-6.06,stop,11
8.52,29894.478092273,26,3,3,0,3,6.7,1.12,-5.6,-0.84,-0.43,0.45,6.625,7.8125,-6.125,0.4122314453125,-0.12091064453125,-0.8912353515625,-0.14520263671875,-15.6875,23.5,24.0625,7.55,1.56,-6.05,stop,11
8.53,29894.492671049,26,3,3,0,3,6.9,1.24,-5.72,-0.64,-0.31,0.33,4.4375,5.125,-4.0,0.41265869140625,-0.12042236328125,-0.89117431640625,-0.14501953125,-14.6875,22.75,24.375,7.55,1.56,-6.05,stop,11
8.54,29894.492671049,26,3,3,0,3,6.96,1.33,-5.81,-0.59,-0.22,0.22,-0.9375,8.5625,0.25,0.413330078125,-0.120361328125,-0.890869140625,-0.1451416015625,-14.6875,22.75,24.375,7.56,1.56,-6.04,stop,11
8.55,29894.506441801,26,3,3,0,3,7.14,1.49,-6.17,-0.43,-0.06,-0.14,-7.5625,12.375,4.5625,0.41424560546875,-0.120849609375,-0.8902587890625,-0.14569091796875,-14.6875,22.75,24.375,7.57,1.56,-6.02,stop,11
8.56,29894.506441801,26,3,3,0,3,7.33,1.56,-6.35,-0.26,0.0,-0.34,-12.5625,12.5,7.3125,0.41522216796875,-0.1217041015625,-0.88958740234375,-0.14654541015625,-14.6875,22.75,24.375,7.59,1.56,-6.0,stop,11
8.57,29894.536995431,26,3,3,0,3,7.6,1.61,-6.52,0.0,0.04,-0.53,-13.75,10.5,7.6875,0.416015625,-0.1226806640625,-0.888916015625,-0.14739990234375,-14.6875,22.75,24.375,7.6,1.56,-5.98,stop,11
8.58,29894.536995431,26,3,3,0,3,7.81,1.63,-6.61,0.2,0.06,-0.64,-12.3125,8.5,5.6875,0.41650390625,-0.1239013671875,-0.8883056640625,-0.1484375,-15.0,22.75,25.5625,7.61,1.57,-5.97,stop,11
8.59,29894.551507923,26,3,3,0,3,8.06,1.77,-6.43,0.43,0.19,-0.47,-9.75,7.6875,3.0625,0.41705322265625,-0.12445068359375,-0.88787841796875,-0.149169921875,-15.0,22.75,25.5625,7.62,1.57,-5.95,stop,11
8.6,29894.551507923,26,3,3,0,3,8.03,1.86,-6.14,0.4,0.28,-0.2,-7.5,9.375,0.625,0.417724609375,-0.1246337890625,-0.887451171875,-0.1497802734375,-15.0,22.75,25.5625,7.63,1.58,-5.94,stop,11
8.61,29894.581974435,26,3,3,0,3,7.92,1.94,-5.95,0.27,0.35,-0.02,-5.4375,12.875,-0.9375,0.41864013671875,-0.12457275390625,-0.88690185546875,-0.150390625,-15.0,22.75,25.5625,7.64,1.59,-5.92,stop,11
8.62,29894.581974435,26,3,3,0,3,7.9,2.06,-5.82,0.24,0.46,0.08,-4.125,12.625,-1.25,0.4195556640625,-0.12451171875,-0.88641357421875,-0.15087890625,-15.0,22.75,25.5625,7.66,1.59,-5.9,stop,11
8.63,29894.595988351,26,3,3,0,3,8.02,2.22,-5.71,0.35,0.61,0.17,-4.1875,8.0,0.0,0.420166015625,-0.12451171875,-0.88604736328125,-0.15130615234375,-16.0625,22.0,24.75,7.67,1.6,-5.89,stop,11
8.64,29894.595988351,26,3,3,0,3,8.02,2.25,-5.74,0.34,0.64,0.14,-5.875,4.25,1.375,0.42047119140625,-0.12481689453125,-0.88580322265625,-0.1517333984375,-16.0625,22.0,24.75,7.67,1.6,-5.88,stop,11
8.65,29894.614094308,26,3,3,0,3,7.93,2.24,-5.78,0.25,0.63,0.09,-9.1875,3.625,3.6875,0.420654296875,-0.12542724609375,-0.885498046875,-0.15234375,-16.0625,22.0,24.75,7.68,1.61,-5.88,stop,11
8.66,29894.614094308,26,3,3,0,3,7.73,2.14,-5.59,0.04,0.52,0.27,-12.625,5.4375,5.625,0.4210205078125,-0.126220703125,-0.88507080078125,-0.15313720703125,-16.0625,22.0,24.75,7.68,1.61,-5.86,stop,11
8.67,29894.627522856,26,3,3,0,3,7.7,2.05,-5.56,0.01,0.43,0.29,-15.0,6.375,7.25,0.4215087890625,-0.12725830078125,-0.884521484375,-0.15411376953125,-16.0625,22.0,24.75,7.69,1.62,-5.85,stop,11
8.68,29894.627522856,26,3,3,0,3,7.71,1.96,-5.5,0.01,0.34,0.34,-16.0,5.1875,8.0,0.421875,-0.12811279296875,-0.88409423828125,-0.15496826171875,-15.6875,22.0,23.5625,7.7,1.62,-5.84,stop,11
8.69,29894.657817412,26,3,3,0,3,7.7,1.73,-5.51,0.0,0.1,0.31,-16.5,2.875,7.9375,0.4219970703125,-0.12933349609375,-0.8836669921875,-0.15594482421875,-15.6875,22.0,23.5625,7.7,1.63,-5.83,stop,11
8.7,29894.657817412,26,3,3,0,3,7.57,1.33,-5.49,-0.14,-0.29,0.33,-16.5,2.625,7.5625,0.422119140625,-0.1304931640625,-0.88323974609375,-0.156982421875,-15.6875,22.0,23.5625,7.71,1.63,-5.82,stop,11
8.71,29894.672138742,26,3,3,0,3,7.54,1.26,-5.53,-0.18,-0.37,0.28,-17.5625,5.125,7.25,0.42242431640625,-0.13165283203125,-0.88275146484375,-0.1580810546875,-15.6875,22.0,23.5625,7.72,1.64,-5.81,stop,11
8.72,29894.672138742,26,3,3,0,3,7.5,1.29,-5.56,-0.22,-0.35,0.23,-18.9375,7.1875,7.25,0.42291259765625,-0.1328125,-0.88214111328125,-0.15936279296875,-15.6875,22.0,23.5625,7.73,1.65,-5.8,stop,11
8.73,29894.686057443,26,3,3,0,3,7.54,1.39,-5.68,-0.19,-0.27,0.1,-20.3125,7.375,8.0625,0.42352294921875,-0.1331787109375,-0.881591796875,-0.1602783203125,-16.5,21.6875,23.5625,7.74,1.66,-5.78,stop,11
8.74,29894.686057443,26,3,3,0,3,7.74,1.34,-5.84,0.0,-0.32,-0.07,-21.3125,5.9375,8.9375,0.423828125,-0.13458251953125,-0.8809814453125,-0.16168212890625,-16.5,21.6875,23.5625,7.75,1.67,-5.77,stop,11
8.75,29894.717277617,26,3,3,0,3,7.77,1.23,-5.85,0.01,-0.44,-0.09,-20.4375,5.1875,8.625,0.42413330078125,-0.13592529296875,-0.88037109375,-0.1629638671875,-16.5,21.6875,23.5625,7.75,1.68,-5.75,stop,11
8.76,29894.717277617,26,3,3,0,3,7.79,1.16,-5.79,0.03,-0.52,-0.04,-17.0,5.1875,7.5,0.4244384765625,-0.1370849609375,-0.8798828125,-0.1640625,-16.5,21.6875,23.5625,7.76,1.68,-5.74,stop,11
8.77,29894.732812936,26,3,3,0,3,7.82,1.21,-5.69,0.0,-0.02,0.08,-13.25,4.0625,6.375,0.42950439453125,-0.148681640625,-0.87896728515625,-0.14447021484375,-16.5,21.6875,23.5625,7.82,1.23,-5.77,stop,11
8.78,29894.732812936,26,3,3,0,3,7.84,1.26,-5.66,0.01,0.02,0.1,-10.8125,3.125,5.375,0.4296875,-0.1492919921875,-0.878662109375,-0.14508056640625,-16.0625,21.25,24.375,7.82,1.24,-5.77,stop,11
8.79,29894.746633777,26,3,3,0,3,7.82,1.34,-5.67,0.0,0.09,0.08,-10.5,2.8125,4.625,0.4298095703125,-0.1500244140625,-0.87835693359375,-0.145751953125,-16.0625,21.25,24.375,7.83,1.24,-5.76,stop,11
8.8,29894.746633777,26,3,3,0,3,7.86,1.4,-5.72,0.02,0.15,0.03,-9.875,2.625,2.875,0.429931640625,-0.15057373046875,-0.8780517578125,-0.14642333984375,-16.0625,21.25,24.375,7.83,1.25,-5.76,stop,11
8.81,29894.777927153,26,3,3,0,3,7.96,1.41,-5.65,0.12,0.15,0.1,-8.4375,2.625,0.75,0.4300537109375,-0.15093994140625,-0.87786865234375,-0.1470947265625,-16.0625,21.25,24.375,7.84,1.25,-5.75,stop,11
8.82,29894.777927153,26,3,3,0,3,7.95,1.41,-5.62,0.11,0.14,0.12,-7.0,3.0625,-0.9375,0.43023681640625,-0.15106201171875,-0.87762451171875,-0.147705078125,-16.0625,21.25,24.375,7.84,1.26,-5.74,stop,11
8.83,29894.792565133,26,3,3,0,3,7.92,1.43,-5.55,0.08,0.15,0.17,-6.5625,4.5,-2.0,0.43048095703125,-0.15106201171875,-0.87738037109375,-0.14837646484375,-15.375,22.0,24.375,7.84,1.27,-5.73,stop,11
8.84,29894.792565133,26,3,3,0,3,7.91,1.37,-5.6,0.06,0.08,0.12,-6.3125,4.875,-2.375,0.4307861328125,-0.15106201171875,-0.87713623046875,-0.1490478515625,-15.375,22.0,24.375,7.85,1.28,-5.73,stop,11
8.85,29894.805609526,26,3,3,0,3,7.9,1.35,-5.59,0.04,0.05,0.12,-6.1875,4.0,-1.625,0.4310302734375,-0.151123046875,-0.87689208984375,-0.149658203125,-15.375,22.0,24.375,7.85,1.29,-5.72,stop,11
8.86,29894.805609526,26,3,3,0,3,7.9,1.28,-5.54,0.04,-0.02,0.17,-5.8125,3.0625,-1.1875,0.43121337890625,-0.15118408203125,-0.876708984375,-0.15020751953125,-15.375,22.0,24.375,7.86,1.3,-5.71,stop,11
8.87,29894.837339832,26,3,3,0,3,7.9,1.24,-5.5,0.04,-0.06,0.2,-5.125,2.625,-1.0,0.431396484375,-0.1512451171875,-0.87652587890625,-0.15069580078125,-15.375,22.0,24.375,7.86,1.31,-5.71,stop,11
8.88,29894.837339832,26,3,3,0,3,7.96,1.25,-5.47,0.1,-0.05,0.22,-3.3125,2.5,-1.5625,0.43157958984375,-0.151123046875,-0.87640380859375,-0.1510009765625,-16.5,21.25,24.75,7.86,1.31,-5.7,stop,11
8.89,29894.852809884,26,3,3,0,3,7.97,1.32,-5.47,0.1,0.0,0.22,-1.5625,2.75,-2.3125,0.43182373046875,-0.1510009765625,-0.87628173828125,-0.1512451171875,-16.5,21.25,24.75,7.86,1.32,-5.7,stop,11
8.9,29894.852809884,26,3,3,0,3,7.96,1.41,-5.53,0.08,0.09,0.15,-0.625,3.125,-2.875,0.43206787109375,-0.1507568359375,-0.87615966796875,-0.1514892578125,-16.5,21.25,24.75,7.87,1.32,-5.69,stop,11
8.91,29894.866677397,26,3,3,0,3,7.94,1.43,-5.53,0.07,0.1,0.15,-0.5625,3.8125,-3.3125,0.432373046875,-0.15045166015625,-0.8759765625,-0.1517333984375,-16.5,21.25,24.75,7.87,1.33,-5.68,stop,11
8.92,29894.866677397,26,3,3,0,3,7.86,1.41,-5.58,-0.01,0.07,0.09,0.0,4.625,-3.625,0.4327392578125,-0.15008544921875,-0.8758544921875,-0.15191650390625,-16.5,21.25,24.75,7.88,1.33,-5.68,stop,11
8.93,29894.8976929,26,3,3,0,3,7.86,1.44,-5.55,-0.01,0.1,0.12,1.3125,4.0,-3.8125,0.43304443359375,-0.1495361328125,-0.87579345703125,-0.1519775390625,-16.0625,20.875,24.0625,7.88,1.34,-5.67,stop,11
8.94,29894.8976929,26,3,3,0,3,7.86,1.44,-5.52,-0.02,0.09,0.14,2.625,2.625,-3.8125,0.43328857421875,-0.14910888671875,-0.87579345703125,-0.1519775390625,-16.0625,20.875,24.0625,7.88,1.34,-5.67,stop,11
8.95,29894.911938221,26,3,3,0,3,7.83,1.44,-5.43,-0.04,0.09,0.23,4.0625,1.9375,-3.6875,0.4334716796875,-0.14862060546875,-0.87579345703125,-0.15185546875,-16.0625,20.875,24.0625,7.88,1.34,-5.66,stop,11
8.96,29894.911938221,26,3,3,0,3,7.83,1.4,-5.37,-0.05,0.05,0.29,5.375,1.0625,-3.25,0.43359375,-0.14813232421875,-0.87579345703125,-0.151611328125,-16.0625,20.875,24.0625,7.88,1.34,-5.66,stop,11
8.97,29894.928179839,26,3,3,0,3,7.82,1.46,-5.44,-0.06,0.12,0.22,5.75,-0.0625,-2.5,0.4337158203125,-0.147705078125,-0.87591552734375,-0.15130615234375,-16.0625,20.875,24.0625,7.88,1.34,-5.66,stop,11
8.98,29894.928179839,26,3,3,0,3,7.85,1.47,-5.46,-0.03,0.13,0.2,6.3125,-1.875,-1.9375,0.43365478515625,-0.147216796875,-0.8760986328125,-0.15087890625,-16.5,20.875,24.375,7.88,1.34,-5.67,stop,11
8.99,29894.95905256,26,3,3,0,3,7.86,1.52,-5.41,-0.02,0.18,0.25,6.375,-2.25,-1.375,0.43359375,-0.1468505859375,-0.876220703125,-0.15045166015625,-16.5,20.875,24.375,7.88,1.33,-5.67,stop,11
9.0,29894.95905256,26,3,3,0,3,7.79,1.47,-5.47,-0.08,0.14,0.2,5.625,-1.375,-1.0625,0.43359375,-0.14654541015625,-0.8763427734375,-0.150146484375,-16.5,20.875,24.375,7.88,1.33,-5.67,stop,11
9.01,29894.971426706,26,3,3,0,3,7.75,1.42,-5.44,-0.13,0.09,0.23,4.8125,-1.5,-0.375,0.43359375,-0.1463623046875,-0.87646484375,-0.1497802734375,-16.5,20.875,24.375,7.88,1.33,-5.67,stop,11
9.02,29894.971426706,26,3,3,0,3,7.79,1.37,-5.45,-0.09,0.05,0.22,3.8125,-2.625,0.0,0.4334716796875,-0.146240234375,-0.8765869140625,-0.14947509765625,-16.5,20.875,24.375,7.88,1.32,-5.68,stop,11
9.03,29894.986222848,26,3,3,0,3,7.83,1.3,-5.4,-0.04,-0.02,0.28,3.75,-3.1875,0.1875,0.433349609375,-0.1458740234375,-0.87677001953125,-0.14910888671875,-16.0625,20.875,23.5625,7.87,1.32,-5.68,stop,11
9.04,29894.986222848,26,3,3,0,3,7.84,1.25,-5.38,-0.02,-0.06,0.3,4.0,-2.8125,0.3125,0.4332275390625,-0.145751953125,-0.87689208984375,-0.14874267578125,-16.0625,20.875,23.5625,7.87,1.31,-5.69,stop,11
9.05,29895.016992664,26,3,3,0,3,7.86,1.22,-5.4,0.0,-0.09,0.29,3.125,-2.8125,0.75,0.43316650390625,-0.145751953125,-0.876953125,-0.1484375,-16.0625,20.875,23.5625,7.87,1.31,-5.69,stop,11
9.06,29895.016992664,26,3,3,0,3,7.93,1.27,-5.45,0.06,-0.03,0.23,2.25,-2.875,0.625,0.43304443359375,-0.145751953125,-0.8770751953125,-0.14825439453125,-16.0625,20.875,23.5625,7.87,1.31,-5.69,stop,11
9.07,29895.032399443,26,3,3,0,3,7.94,1.33,-5.44,0.07,0.02,0.24,1.8125,-2.0625,0.125,0.43304443359375,-0.14569091796875,-0.87713623046875,-0.1480712890625,-16.0625,20.875,23.5625,7.87,1.31,-5.69,stop,11
9.09,29895.032399443,26,3,3,0,3,8.02,1.4,-5.4,0.14,0.09,0.29,1.75,-1.0,-0.3125,0.43304443359375,-0.14599609375,-0.8770751953125,-0.14813232421875,-16.0625,22.0,25.875,7.87,1.3,-5.69,stop,11
9.09,29895.047124988,26,3,3,0,3,8.04,1.41,-5.37,0.16,0.1,0.32,0.625,-0.1875,0.0,0.43316650390625,-0.14593505859375,-0.876953125,-0.148193359375,-16.0625,22.0,25.875,7.87,1.3,-5.69,stop,11
9.1,29895.047124988,26,3,3,0,3,8.09,1.37,-5.27,0.21,0.06,0.41,0.0,0.5,0.1875,0.43341064453125,-0.1458740234375,-0.8768310546875,-0.14825439453125,-16.0625,22.0,25.875,7.87,1.3,-5.69,stop,11
9.11,29895.077006865,26,3,3,0,3,8.08,1.33,-5.23,0.2,0.02,0.44,0.0,1.375,0.375,0.433837890625,-0.14581298828125,-0.87664794921875,-0.14837646484375,-16.0625,22.0,25.875,7.88,1.31,-5.68,stop,11
9.12,29895.077006865,26,3,3,0,3,8.08,1.28,-5.2,0.19,-0.02,0.47,0.4375,2.125,0.1875,0.434326171875,-0.14581298828125,-0.87640380859375,-0.14849853515625,-16.0625,22.0,25.875,7.88,1.31,-5.67,stop,11
9.13,29895.091402902,26,3,3,0,3,8.08,1.33,-5.2,0.19,0.02,0.46,0.8125,1.8125,-0.0625,0.43475341796875,-0.1458740234375,-0.8760986328125,-0.148681640625,-16.0625,20.5,24.75,7.89,1.31,-5.66,stop,11
9.14,29895.091402902,26,3,3,0,3,8.07,1.4,-5.36,0.17,0.09,0.29,1.0,1.625,-0.25,0.4351806640625,-0.14581298828125,-0.87591552734375,-0.14874267578125,-16.0625,20.5,24.75,7.9,1.31,-5.65,stop,11
9.15,29895.107925607,26,3,3,0,3,8.06,1.45,-5.42,0.15,0.13,0.22,1.25,1.75,-0.625,0.43548583984375,-0.1456298828125,-0.87579345703125,-0.14874267578125,-16.0625,20.5,24.75,7.9,1.31,-5.65,stop,11
9.16,29895.107925607,26,3,3,0,3,8.08,1.47,-5.45,0.17,0.16,0.19,1.25,2.125,-0.9375,0.435791015625,-0.14544677734375,-0.87567138671875,-0.1488037109375,-16.0625,20.5,24.75,7.9,1.31,-5.64,stop,11
9.17,29895.141609241,26,3,3,0,3,8.16,1.45,-5.39,0.25,0.13,0.24,1.4375,2.0,-1.4375,0.4361572265625,-0.14520263671875,-0.87548828125,-0.14892578125,-16.0625,20.5,24.75,7.91,1.31,-5.64,stop,11
9.18,29895.141609241,26,3,3,0,3,8.2,1.44,-5.31,0.28,0.12,0.32,1.75,2.1875,-2.0625,0.43646240234375,-0.14520263671875,-0.87530517578125,-0.149169921875,-15.0,21.25,24.375,7.91,1.31,-5.63,stop,11
9.19,29895.151704497,26,3,3,0,3,8.25,1.46,-5.23,0.33,0.14,0.38,1.8125,3.0625,-2.5625,0.43695068359375,-0.14483642578125,-0.8751220703125,-0.1492919921875,-15.0,21.25,24.375,7.92,1.32,-5.62,stop,11
9.2,29895.151704497,26,3,3,0,3,8.26,1.4,-5.21,0.33,0.08,0.4,1.4375,3.9375,-2.625,0.43756103515625,-0.14447021484375,-0.87481689453125,-0.14947509765625,-15.0,21.25,24.375,7.93,1.32,-5.61,stop,11
9.21,29895.166725086,26,3,3,0,3,8.24,1.36,-5.19,0.3,0.03,0.4,0.9375,4.4375,-2.375,0.438232421875,-0.1441650390625,-0.87451171875,-0.14971923828125,-15.0,21.25,24.375,7.94,1.32,-5.59,stop,11
9.22,29895.166725086,26,3,3,0,3,8.23,1.34,-5.23,0.28,0.01,0.34,0.5625,5.0,-1.8125,0.43896484375,-0.14385986328125,-0.8741455078125,-0.14990234375,-15.0,21.25,24.375,7.94,1.33,-5.58,stop,11
9.23,29895.197905506,26,3,3,0,3,8.18,1.33,-5.25,0.23,0.0,0.31,0.625,4.75,-1.75,0.43963623046875,-0.1434326171875,-0.8739013671875,-0.14990234375,-16.5,22.0,24.0625,7.95,1.33,-5.57,stop,11
9.24,29895.197905506,26,3,3,0,3,8.15,1.39,-5.3,0.19,0.06,0.26,1.875,5.0625,-2.0625,0.440185546875,-0.14306640625,-0.8736572265625,-0.1500244140625,-16.5,22.0,24.0625,7.96,1.33,-5.56,stop,11
9.25,29895.215492908,26,3,3,0,3,8.12,1.48,-5.28,0.14,0.14,0.26,2.875,5.5,-2.5,0.4407958984375,-0.1427001953125,-0.8734130859375,-0.1500244140625,-16.5,22.0,24.0625,7.97,1.33,-5.55,stop,11
9.26,29895.215492908,26,3,3,0,3,8.1,1.51,-5.31,0.12,0.17,0.23,3.0,6.0625,-2.5,0.44140625,-0.14227294921875,-0.8731689453125,-0.15008544921875,-16.5,22.0,24.0625,7.97,1.33,-5.54,stop,11
9.27,29895.226690215,26,3,3,0,3,8.08,1.55,-5.32,0.1,0.21,0.2,2.625,6.375,-2.4375,0.4420166015625,-0.141845703125,-0.87286376953125,-0.150146484375,-16.5,22.0,24.0625,7.98,1.34,-5.53,stop,11
9.28,29895.226690215,26,3,3,0,3,8.13,1.55,-5.23,0.13,0.2,0.28,2.0625,5.6875,-2.0,0.442626953125,-0.1414794921875,-0.87261962890625,-0.1502685546875,-16.0625,22.0,24.375,7.99,1.34,-5.52,stop,11
9.29,29895.257970041,26,3,3,0,3,8.19,1.55,-5.19,0.19,0.2,0.31,1.625,4.8125,-1.9375,0.443115234375,-0.14111328125,-0.87237548828125,-0.15045166015625,-16.0625,22.0,24.375,7.99,1.34,-5.51,stop,11
9.3,29895.257970041,26,3,3,0,3,8.24,1.56,-5.15,0.23,0.21,0.34,1.25,4.75,-1.9375,0.44366455078125,-0.14080810546875,-0.87213134765625,-0.150634765625,-16.0625,22.0,24.375,8.0,1.35,-5.5,stop,11
9.31,29895.272463408,26,3,3,0,3,8.24,1.55,-5.08,0.22,0.19,0.4,0.875,5.5,-1.8125,0.4443359375,-0.14044189453125,-0.871826171875,-0.15093994140625,-16.0625,22.0,24.375,8.01,1.35,-5.48,stop,11
9.32,29895.272463408,26,3,3,0,3,8.24,1.42,-4.99,0.22,0.06,0.47,-0.0625,6.0625,-1.25,0.44512939453125,-0.14019775390625,-0.87139892578125,-0.1512451171875,-16.0625,22.0,24.375,8.02,1.36,-5.47,stop,11
9.34,29895.286804066,26,3,3,0,3,8.28,1.4,-4.99,0.25,0.04,0.45,-1.25,6.1875,-0.3125,0.4459228515625,-0.14019775390625,-0.87091064453125,-0.151611328125,-16.5,22.0,24.75,8.03,1.36,-5.45,stop,11
9.34,29895.286804066,26,3,3,0,3,8.32,1.37,-5.0,0.28,0.01,0.43,-1.75,5.875,0.4375,0.44671630859375,-0.14019775390625,-0.8704833984375,-0.1519775390625,-16.5,22.0,24.75,8.04,1.36,-5.44,stop,11
9.35,29895.317927845,26,3,3,0,3,8.3,1.28,-5.12,0.24,-0.07,0.29,-0.625,5.1875,0.625,0.4473876953125,-0.14019775390625,-0.8701171875,-0.152099609375,-16.5,22.0,24.75,8.05,1.36,-5.42,stop,11
9.36,29895.317927845,26,3,3,0,3,8.31,1.35,-5.18,0.25,-0.01,0.23,0.75,4.0625,0.5625,0.44793701171875,-0.14013671875,-0.86981201171875,-0.15216064453125,-16.5,22.0,24.75,8.05,1.36,-5.41,stop,11
9.37,29895.332658721,26,3,3,0,3,8.28,1.36,-5.2,0.21,0.0,0.2,2.1875,3.3125,0.25,0.4483642578125,-0.1400146484375,-0.86962890625,-0.15203857421875,-16.5,22.0,24.75,8.06,1.36,-5.41,stop,11
9.38,29895.332658721,26,3,3,0,3,8.26,1.44,-5.16,0.19,0.08,0.24,2.8125,3.5,0.25,0.44879150390625,-0.14007568359375,-0.869384765625,-0.15203857421875,-16.0625,21.6875,24.375,8.07,1.35,-5.4,stop,11
9.39,29895.362560536,26,3,3,0,3,8.19,1.45,-5.09,0.12,0.1,0.29,3.6875,3.6875,0.3125,0.44927978515625,-0.13983154296875,-0.86920166015625,-0.15191650390625,-16.0625,21.6875,24.375,8.07,1.35,-5.39,stop,11
9.4,29895.362560536,26,3,3,0,3,8.19,1.5,-5.11,0.11,0.15,0.27,4.9375,3.875,0.0,0.44976806640625,-0.13958740234375,-0.8690185546875,-0.15167236328125,-16.0625,21.6875,24.375,8.08,1.35,-5.38,stop,11
9.41,29895.378266305,26,3,3,0,3,8.18,1.53,-5.11,0.1,0.18,0.26,6.25,3.0625,-0.3125,0.45025634765625,-0.13922119140625,-0.868896484375,-0.15130615234375,-16.0625,21.6875,24.375,8.08,1.34,-5.38,stop,11
9.42,29895.378266305,26,3,3,0,3,8.21,1.59,-5.11,0.12,0.24,0.25,6.375,1.4375,-0.4375,0.4505615234375,-0.138916015625,-0.86883544921875,-0.1510009765625,-16.0625,21.6875,24.375,8.08,1.34,-5.37,stop,11
9.43,29895.3913002,26,3,3,0,3,8.16,1.65,-5.14,0.07,0.31,0.23,6.125,1.0,-0.375,0.4508056640625,-0.138671875,-0.8687744140625,-0.15081787109375,-16.75,20.875,24.0625,8.09,1.34,-5.37,stop,11
9.44,29895.3913002,26,3,3,0,3,8.14,1.71,-5.11,0.05,0.37,0.25,5.125,2.1875,0.0,0.451171875,-0.13836669921875,-0.86871337890625,-0.150634765625,-16.75,20.875,24.0625,8.09,1.34,-5.36,stop,11
9.45,29895.406538604,26,3,3,0,3,8.15,1.75,-5.14,0.05,0.4,0.21,3.625,3.0625,0.8125,0.4515380859375,-0.13812255859375,-0.8685302734375,-0.150634765625,-16.75,20.875,24.0625,8.09,1.34,-5.36,stop,11
9.46,29895.406538604,26,3,3,0,3,8.12,1.65,-5.16,0.02,0.3,0.19,1.9375,2.3125,1.8125,0.45184326171875,-0.1380615234375,-0.868408203125,-0.150634765625,-16.75,20.875,24.0625,8.1,1.34,-5.35,stop,11
9.47,29895.436764474,26,3,3,0,3,8.02,1.57,-5.28,-0.07,0.23,0.06,1.8125,1.0,2.0,0.45196533203125,-0.1380615234375,-0.86834716796875,-0.1505126953125,-16.75,20.875,24.0625,8.1,1.34,-5.35,stop,11
9.48,29895.436764474,26,3,3,0,3,7.99,1.5,-5.29,-0.11,0.16,0.05,2.75,0.125,1.0625,0.4520263671875,-0.1380615234375,-0.86834716796875,-0.15045166015625,-16.5,21.25,23.6875,8.1,1.33,-5.35,stop,11
9.49,29895.45164037,26,3,3,0,3,7.98,1.45,-5.26,-0.11,0.12,0.09,3.0625,0.625,0.875,0.4521484375,-0.13800048828125,-0.8682861328125,-0.15020751953125,-16.5,21.25,23.6875,8.1,1.33,-5.35,stop,11
9.5,29895.45164037,26,3,3,0,3,8.03,1.44,-5.18,-0.06,0.11,0.16,2.375,1.25,1.125,0.4522705078125,-0.137939453125,-0.8682861328125,-0.15008544921875,-16.5,21.25,23.6875,8.1,1.33,-5.35,stop,11
9.51,29895.482512236,26,3,3,0,3,8.06,1.5,-5.15,-0.04,0.17,0.19,0.1875,2.375,2.1875,0.4525146484375,-0.1380615234375,-0.86810302734375,-0.15008544921875,-16.5,21.25,23.6875,8.11,1.32,-5.34,stop,11
9.52,29895.482512236,26,3,3,0,3,8.11,1.51,-5.16,0.0,0.18,0.18,-1.8125,3.1875,3.4375,0.45281982421875,-0.1383056640625,-0.867919921875,-0.150146484375,-16.5,21.25,23.6875,8.11,1.32,-5.34,stop,11
9.53,29895.496574289,26,3,3,0,3,8.17,1.46,-5.19,0.05,0.13,0.14,-2.125,2.625,4.375,0.45306396484375,-0.138671875,-0.86767578125,-0.1502685546875,-17.1875,22.0,24.0625,8.11,1.32,-5.33,stop,11
9.54,29895.496574289,26,3,3,0,3,8.19,1.46,-5.18,0.07,0.14,0.14,-0.9375,1.125,4.6875,0.4532470703125,-0.1390380859375,-0.8675537109375,-0.15020751953125,-17.1875,22.0,24.0625,8.12,1.32,-5.33,stop,11
9.55,29895.512543893,26,3,3,0,3,8.2,1.45,-5.19,0.07,0.13,0.14,0.0625,0.25,3.9375,0.453369140625,-0.1392822265625,-0.86749267578125,-0.150146484375,-17.1875,22.0,24.0625,8.12,1.31,-5.33,stop,11
9.56,29895.512543893,26,3,3,0,3,8.22,1.49,-5.22,0.1,0.18,0.1,0.625,0.0625,3.0,0.45343017578125,-0.13946533203125,-0.867431640625,-0.1500244140625,-17.1875,22.0,24.0625,8.12,1.31,-5.33,stop,11
9.57,29895.527520293,26,3,3,0,3,8.15,1.45,-5.26,0.02,0.14,0.06,0.125,0.9375,2.3125,0.45355224609375,-0.13958740234375,-0.8673095703125,-0.1500244140625,-17.1875,22.0,24.0625,8.12,1.3,-5.33,stop,11
9.59,29895.527520293,26,3,3,0,3,8.09,1.49,-5.23,-0.03,0.18,0.09,-0.1875,2.625,2.0625,0.45367431640625,-0.140380859375,-0.8670654296875,-0.150390625,-17.5625,21.25,25.1875,8.12,1.3,-5.32,stop,11
9.59,29895.55747411,26,3,3,0,3,8.09,1.47,-5.2,-0.04,0.16,0.11,-0.75,3.3125,1.3125,0.4539794921875,-0.14044189453125,-0.86688232421875,-0.15045166015625,-17.5625,21.25,25.1875,8.13,1.3,-5.32,stop,11
9.6,29895.55747411,26,3,3,0,3,8.06,1.52,-5.21,-0.07,0.21,0.09,-0.9375,3.875,1.0,0.45428466796875,-0.1405029296875,-0.86669921875,-0.15057373046875,-17.5625,21.25,25.1875,8.13,1.3,-5.31,stop,11
9.61,29895.571825021,26,3,3,0,3,8.07,1.51,-5.17,-0.06,0.2,0.13,-1.4375,3.625,0.5,0.45458984375,-0.14044189453125,-0.86651611328125,-0.15081787109375,-17.5625,21.25,25.1875,8.14,1.31,-5.3,stop,11
9.62,29895.571825021,26,3,3,0,3,8.13,1.52,-5.15,-0.01,0.21,0.15,-2.1875,2.5625,0.8125,0.45477294921875,-0.14056396484375,-0.86639404296875,-0.15106201171875,-17.5625,21.25,25.1875,8.14,1.31,-5.3,stop,11
9.63,29895.586875965,26,3,3,0,3,8.16,1.46,-5.12,0.01,0.14,0.17,-2.3125,0.375,1.0625,0.45477294921875,-0.140625,-0.8663330078125,-0.15118408203125,-17.5625,22.0,23.6875,8.14,1.31,-5.3,stop,11
9.64,29895.586875965,26,3,3,0,3,8.2,1.4,-5.08,0.06,0.08,0.21,-2.0,-0.8125,1.5,0.45477294921875,-0.1407470703125,-0.86627197265625,-0.1513671875,-17.5625,22.0,23.6875,8.14,1.31,-5.3,stop,11
9.65,29895.61637096,26,3,3,0,3,8.2,1.37,-5.06,0.06,0.05,0.23,-2.125,-1.125,1.9375,0.45477294921875,-0.1409912109375,-0.86627197265625,-0.1514892578125,-17.5625,22.0,23.6875,8.14,1.31,-5.3,stop,11
9.66,29895.61637096,26,3,3,0,3,8.13,1.43,-5.02,0.0,0.11,0.27,-2.75,-0.5,2.625,0.454833984375,-0.14129638671875,-0.86614990234375,-0.15167236328125,-17.5625,22.0,23.6875,8.14,1.31,-5.29,stop,11
9.67,29895.631280832,26,3,3,0,3,8.07,1.47,-5.05,-0.07,0.15,0.23,-3.4375,2.125,2.625,0.45501708984375,-0.14154052734375,-0.86590576171875,-0.15191650390625,-17.5625,22.0,23.6875,8.15,1.31,-5.29,stop,11
9.68,29895.631280832,26,3,3,0,3,8.01,1.46,-5.04,-0.13,0.14,0.23,-4.1875,3.0625,2.625,0.45526123046875,-0.14202880859375,-0.86566162109375,-0.15234375,-16.0625,21.6875,23.5625,8.15,1.31,-5.28,stop,11
9.69,29895.648101714,26,3,3,0,3,8.06,1.44,-5.03,-0.08,0.11,0.24,-5.0,1.625,2.375,0.45538330078125,-0.142333984375,-0.865478515625,-0.1527099609375,-16.0625,21.6875,23.5625,8.15,1.32,-5.28,stop,11
9.7,29895.648101714,26,3,3,0,3,8.17,1.39,-5.07,0.02,0.07,0.2,-5.1875,-0.8125,2.8125,0.45538330078125,-0.14276123046875,-0.8653564453125,-0.15301513671875,-16.0625,21.6875,23.5625,8.15,1.32,-5.28,stop,11
9.71,29895.676755889,26,3,3,0,3,8.23,1.32,-5.09,0.07,0.0,0.18,-5.25,-1.9375,2.9375,0.45526123046875,-0.1431884765625,-0.86529541015625,-0.1533203125,-16.0625,21.6875,23.5625,8.15,1.32,-5.28,stop,11
9.72,29895.676755889,26,3,3,0,3,8.26,1.3,-5.12,0.11,-0.01,0.15,-5.25,-1.375,3.125,0.4552001953125,-0.1436767578125,-0.86517333984375,-0.15362548828125,-16.0625,21.6875,23.5625,8.15,1.32,-5.28,stop,11
9.74,29895.692148508,26,3,3,0,3,8.23,1.27,-5.13,0.07,-0.04,0.14,-5.4375,-0.5625,3.3125,0.45501708984375,-0.14483642578125,-0.864990234375,-0.15423583984375,-15.6875,21.6875,24.0625,8.15,1.32,-5.27,stop,11
9.74,29895.692148508,26,3,3,0,3,8.21,1.27,-5.14,0.05,-0.05,0.13,-5.5,0.3125,3.5625,0.455078125,-0.14532470703125,-0.86480712890625,-0.154541015625,-15.6875,21.6875,24.0625,8.15,1.32,-5.27,stop,11
9.75,29895.706727406,26,3,3,0,3,8.17,1.29,-5.15,0.01,-0.02,0.11,-5.375,1.6875,3.125,0.4552001953125,-0.145751953125,-0.8646240234375,-0.15484619140625,-15.6875,21.6875,24.0625,8.16,1.32,-5.27,stop,11
9.76,29895.706727406,26,3,3,0,3,8.21,1.3,-5.03,0.04,-0.02,0.23,-4.625,1.4375,2.5,0.455322265625,-0.1461181640625,-0.86444091796875,-0.1551513671875,-15.6875,21.6875,24.0625,8.16,1.32,-5.26,stop,11
9.77,29895.737476918,26,3,3,0,3,8.17,1.35,-4.98,0.0,0.03,0.28,-4.125,2.375,1.75,0.45556640625,-0.1463623046875,-0.8642578125,-0.15545654296875,-15.6875,21.6875,24.0625,8.16,1.32,-5.26,stop,11
9.78,29895.737476918,26,3,3,0,3,8.12,1.39,-4.94,-0.04,0.06,0.3,-3.875,4.25,0.625,0.4556884765625,-0.14764404296875,-0.86376953125,-0.1563720703125,-16.0625,21.25,24.75,8.17,1.33,-5.25,stop,11
9.79,29895.752357004,26,3,3,0,3,8.11,1.38,-5.06,-0.06,0.04,0.17,-4.0625,4.25,0.8125,0.4560546875,-0.14776611328125,-0.86346435546875,-0.15673828125,-16.0625,21.25,24.75,8.17,1.33,-5.24,stop,11
9.8,29895.752357004,26,3,3,0,3,8.15,1.34,-5.06,-0.02,0.01,0.17,-4.0,2.8125,1.125,0.45623779296875,-0.14801025390625,-0.86328125,-0.1571044921875,-16.0625,21.25,24.75,8.18,1.33,-5.23,stop,11
9.81,29895.7657589,26,3,3,0,3,8.22,1.34,-5.06,0.03,0.0,0.17,-3.5625,0.5625,1.3125,0.456298828125,-0.148193359375,-0.8631591796875,-0.1573486328125,-16.0625,21.25,24.75,8.18,1.33,-5.23,stop,11
9.82,29895.7657589,26,3,3,0,3,8.35,1.41,-5.28,0.16,0.07,-0.04,-3.625,-0.5625,1.625,0.45623779296875,-0.14849853515625,-0.86309814453125,-0.15753173828125,-16.0625,21.25,24.75,8.18,1.33,-5.23,stop,11
9.84,29895.796726063,26,3,3,0,3,8.32,1.45,-5.3,0.14,0.11,-0.06,-4.0,-0.4375,1.6875,0.45623779296875,-0.1488037109375,-0.863037109375,-0.1578369140625,-17.1875,20.875,24.0625,8.18,1.33,-5.23,stop,11
9.84,29895.796726063,26,3,3,0,3,8.29,1.41,-5.3,0.1,0.07,-0.07,-4.0625,0.0,1.6875,0.45623779296875,-0.14910888671875,-0.8629150390625,-0.1580810546875,-17.1875,20.875,24.0625,8.18,1.34,-5.23,stop,11
9.85,29895.812228179,26,3,3,0,3,8.24,1.44,-5.31,0.05,0.1,-0.07,-3.8125,0.0,1.5,0.4561767578125,-0.14935302734375,-0.86285400390625,-0.1583251953125,-17.1875,20.875,24.0625,8.18,1.34,-5.23,stop,11
9.86,29895.812228179,26,3,3,0,3,8.11,1.59,-5.22,-0.07,0.24,0.0,-3.6875,0.75,1.4375,0.45623779296875,-0.14959716796875,-0.86273193359375,-0.1585693359375,-17.1875,20.875,24.0625,8.18,1.34,-5.23,stop,11
9.87,29895.826091338,26,3,3,0,3,8.03,1.59,-5.12,-0.14,0.24,0.09,-4.1875,1.625,1.25,0.456298828125,-0.1497802734375,-0.86260986328125,-0.158935546875,-17.1875,20.875,24.0625,8.18,1.34,-5.22,stop,11
9.89,29895.826091338,26,3,3,0,3,8.01,1.54,-5.07,-0.17,0.19,0.15,-4.9375,1.5625,1.6875,0.45635986328125,-0.1500244140625,-0.8624267578125,-0.1593017578125,-16.75,22.0,24.0625,8.18,1.35,-5.22,stop,11
9.89,29895.856762481,26,3,3,0,3,7.95,1.53,-5.05,-0.23,0.18,0.16,-4.8125,1.3125,1.6875,0.4564208984375,-0.15032958984375,-0.8623046875,-0.15966796875,-16.75,22.0,24.0625,8.19,1.35,-5.22,stop,11
9.9,29895.856762481,26,3,3,0,3,7.91,1.41,-5.07,-0.27,0.05,0.14,-4.8125,-1.125,2.0625,0.456298828125,-0.15069580078125,-0.86224365234375,-0.159912109375,-16.75,22.0,24.0625,8.18,1.35,-5.22,stop,11
9.91,29895.873073679,26,3,3,0,3,7.9,1.34,-5.08,-0.28,0.0,0.13,-4.4375,-3.5,2.625,0.4560546875,-0.151123046875,-0.8623046875,-0.16009521484375,-16.75,22.0,24.0625,8.18,1.35,-5.22,stop,11
9.93,29895.873073679,26,3,3,0,3,7.9,1.26,-5.09,-0.27,-0.08,0.14,-3.5,-5.125,2.3125,0.45562744140625,-0.1514892578125,-0.8624267578125,-0.16021728515625,-16.75,22.0,24.0625,8.18,1.35,-5.23,stop,11
9.93,29895.886566843,26,3,3,0,3,8.03,1.22,-5.23,-0.13,-0.13,0.0,-1.9375,-6.25,1.6875,0.4552001953125,-0.15179443359375,-0.86260986328125,-0.16021728515625,-17.1875,21.6875,24.0625,8.17,1.35,-5.23,stop,11
9.94,29895.886566843,26,3,3,0,3,8.13,1.22,-5.34,-0.03,-0.12,-0.09,-0.5,-7.5625,0.875,0.45465087890625,-0.1519775390625,-0.8629150390625,-0.1600341796875,-17.1875,21.6875,24.0625,8.17,1.35,-5.25,stop,11
9.95,29895.917177194,26,3,3,0,3,8.24,1.24,-5.38,0.08,-0.1,-0.12,0.8125,-8.3125,0.1875,0.45404052734375,-0.15203857421875,-0.86322021484375,-0.15985107421875,-17.1875,21.6875,24.0625,8.16,1.35,-5.26,stop,11
9.96,29895.917177194,26,3,3,0,3,8.32,1.28,-5.4,0.16,-0.06,-0.12,1.5,-7.5,-0.3125,0.4534912109375,-0.152099609375,-0.86358642578125,-0.15966796875,-17.1875,21.6875,24.0625,8.15,1.35,-5.27,stop,11
9.97,29895.933577422,26,3,3,0,3,8.29,1.49,-5.29,0.14,0.14,-0.01,1.125,-5.6875,-0.8125,0.45306396484375,-0.15203857421875,-0.86383056640625,-0.1595458984375,-17.1875,21.6875,24.0625,8.15,1.35,-5.28,stop,11
9.98,29895.933577422,26,3,3,0,3,8.22,1.54,-5.19,0.07,0.19,0.09,-0.0625,-2.875,-1.125,0.45281982421875,-0.152099609375,-0.86395263671875,-0.15960693359375,-15.6875,22.0,24.0625,8.14,1.35,-5.28,stop,11
9.99,29895.946775013,26,3,3,0,3,8.21,1.51,-5.19,0.06,0.16,0.09,-1.625,-1.6875,-1.1875,0.45263671875,-0.15203857421875,-0.864013671875,-0.15972900390625,-15.6875,22.0,24.0625,8.14,1.35,-5.28,stop,11
10.0,29895.946775013,26,3,3,0,3,8.15,1.6,-4.96,0.0,0.24,0.32,-2.875,-1.5625,-0.875,0.45245361328125,-0.15216064453125,-0.864013671875,-0.15997314453125,-15.6875,22.0,24.0625,8.14,1.36,-5.28,stop,11
10.01,29895.981120269,26,3,3,0,3,7.97,1.42,-5.08,-0.17,0.05,0.2,-3.75,-1.25,-0.875,0.45233154296875,-0.1522216796875,-0.864013671875,-0.1602783203125,-15.6875,22.0,24.0625,8.14,1.36,-5.29,stop,11
10.02,29895.981120269,26,3,3,0,3,7.87,1.28,-5.06,-0.26,-0.08,0.23,-1.8125,-4.625,-0.625,0.45196533203125,-0.15234375,-0.86419677734375,-0.160400390625,-15.6875,22.0,24.0625,8.13,1.36,-5.29,stop,11
10.03,29895.99197883,26,3,3,0,3,7.8,1.22,-5.04,-0.32,-0.14,0.25,0.375,-6.75,-0.8125,0.451416015625,-0.15234375,-0.86444091796875,-0.16033935546875,-16.5,22.375,24.375,8.13,1.36,-5.3,stop,11
10.04,29895.99197883,26,3,3,0,3,7.72,1.1,-5.14,-0.39,-0.26,0.16,1.8125,-7.625,-0.9375,0.45086669921875,-0.15228271484375,-0.86480712890625,-0.16015625,-16.5,22.375,24.375,8.12,1.36,-5.31,stop,11
10.05,29896.007722645,26,3,3,0,3,7.7,1.1,-5.16,-0.4,-0.26,0.16,2.625,-8.0625,-0.1875,0.4503173828125,-0.15228271484375,-0.86517333984375,-0.15985107421875,-16.5,22.375,24.375,8.11,1.36,-5.32,stop,11
10.06,29896.007722645,26,3,3,0,3,7.72,1.09,-5.21,-0.38,-0.26,0.13,3.3125,-8.5625,0.0,0.44970703125,-0.15228271484375,-0.86553955078125,-0.15948486328125,-16.5,22.375,24.375,8.11,1.36,-5.34,stop,11
10.07,29896.038933664,26,3,3,0,3,7.71,1.13,-5.25,-0.38,-0.22,0.09,3.625,-9.75,0.0,0.44903564453125,-0.15228271484375,-0.865966796875,-0.1590576171875,-16.5,22.375,24.375,8.1,1.36,-5.35,stop,11
10.09,29896.038933664,26,3,3,0,3,7.81,1.2,-5.29,-0.27,-0.15,0.08,3.9375,-11.5,-0.9375,0.44818115234375,-0.15234375,-0.866455078125,-0.15869140625,-16.5,21.25,24.75,8.09,1.35,-5.37,stop,11
10.09,29896.051774444,26,3,3,0,3,7.75,1.3,-5.25,-0.32,-0.05,0.13,4.5625,-11.5,-2.0625,0.44732666015625,-0.15216064453125,-0.86700439453125,-0.15826416015625,-16.5,21.25,24.75,8.07,1.35,-5.39,stop,11
10.1,29896.051774444,26,3,3,0,3,7.57,1.31,-5.17,-0.49,-0.04,0.23,5.1875,-9.0,-3.3125,0.4466552734375,-0.15179443359375,-0.86749267578125,-0.15789794921875,-16.5,21.25,24.75,8.06,1.35,-5.4,stop,11
10.11,29896.066800201,26,3,3,0,3,7.42,1.31,-5.07,-0.64,-0.04,0.33,4.9375,-7.375,-3.8125,0.44610595703125,-0.15142822265625,-0.86785888671875,-0.1575927734375,-16.5,21.25,24.75,8.06,1.35,-5.41,stop,11
10.12,29896.066800201,26,3,3,0,3,7.37,1.25,-5.06,-0.67,-0.09,0.36,5.125,-9.0,-3.25,0.4454345703125,-0.151123046875,-0.86834716796875,-0.1572265625,-16.5,21.25,24.75,8.05,1.35,-5.43,stop,11
10.13,29896.098880482,26,3,3,0,3,7.66,1.22,-5.09,-0.37,-0.13,0.36,7.0,-14.25,-2.125,0.4444580078125,-0.15087890625,-0.8690185546875,-0.15655517578125,-16.0625,22.375,24.375,8.03,1.35,-5.45,stop,11
10.14,29896.098880482,26,3,3,0,3,7.99,1.28,-5.11,-0.02,-0.06,0.36,9.5,-19.5625,-0.3125,0.44305419921875,-0.1507568359375,-0.86993408203125,-0.15557861328125,-16.0625,22.375,24.375,8.01,1.34,-5.48,stop,11
10.15,29896.105078073,26,3,3,0,3,7.99,1.28,-5.11,-0.02,-0.06,0.36,9.5,-19.5625,-0.3125,0.44305419921875,-0.1507568359375,-0.86993408203125,-0.15557861328125,-16.0625,22.375,24.375,8.01,1.34,-5.48,stop,11
10.16,29896.105078073,26,3,3,0,3,8.89,1.54,-5.01,0.89,0.2,0.5,10.125,-22.6875,2.25,0.4415283203125,-0.15087890625,-0.87091064453125,-0.1544189453125,-16.0625,22.375,24.375,7.99,1.33,-5.51,stop,11
10.16,29896.128366851,26,3,3,0,3,9.49,1.83,-5.1,1.52,0.51,0.45,6.3125,-26.0625,6.25,0.439697265625,-0.15142822265625,-0.87188720703125,-0.15338134765625,-16.0625,22.375,24.375,7.97,1.31,-5.55,stop,11
10.18,29896.128366851,26,3,3,0,3,10.23,2.06,-5.29,2.28,0.75,0.3,-0.125,-28.9375,9.9375,0.4376220703125,-0.152587890625,-0.87286376953125,-0.152587890625,-16.0625,22.375,24.375,7.94,1.3,-5.59,stop,11
10.18,29896.142074818,26,3,3,0,3,10.9,2.36,-5.91,2.97,1.08,-0.28,-3.5625,-29.3125,13.1875,0.435546875,-0.15411376953125,-0.873779296875,-0.1519775390625,-16.0625,21.6875,24.75,7.92,1.28,-5.63,stop,11
10.19,29896.142074818,26,3,3,0,3,12.23,2.3,-7.58,4.34,1.02,-1.9,-5.0,-38.125,14.5625,0.43280029296875,-0.1558837890625,-0.87493896484375,-0.15130615234375,-16.0625,21.6875,24.75,7.88,1.27,-5.68,stop,11
10.2,29896.159058868,26,3,3,0,3,12.84,2.12,-8.5,5.0,0.87,-2.74,-0.5625,-55.0625,17.4375,0.42877197265625,-0.15802001953125,-0.87677001953125,-0.14996337890625,-16.0625,21.6875,24.75,7.83,1.24,-5.75,stop,11
10.21,29896.159058868,26,3,3,0,3,13.29,1.95,-9.23,5.52,0.73,-3.37,9.125,-73.875,18.5,0.42352294921875,-0.1600341796875,-0.87933349609375,-0.14752197265625,-16.0625,21.6875,24.75,7.76,1.21,-5.86,stop,11
10.22,29896.186878081,26,3,3,0,3,13.08,1.56,-9.95,5.39,0.38,-3.98,18.4375,-79.5625,14.1875,0.4178466796875,-0.16143798828125,-0.88232421875,-0.14447021484375,-16.0625,21.6875,24.75,7.68,1.17,-5.97,stop,11
10.23,29896.186878081,26,3,3,0,3,12.54,1.36,-10.1,4.91,0.22,-4.05,19.4375,-61.5,7.5625,0.4134521484375,-0.16217041015625,-0.8846435546875,-0.14190673828125,-15.0,22.375,25.1875,7.62,1.14,-6.05,stop,11
10.24,29896.201861928,26,3,3,0,3,11.86,1.22,-10.11,4.27,0.08,-4.01,8.5,-29.375,4.5,0.411376953125,-0.16259765625,-0.8857421875,-0.14068603515625,-15.0,22.375,25.1875,7.59,1.13,-6.09,stop,11
10.26,29896.201861928,26,3,3,0,3,11.12,0.93,-9.78,3.53,-0.19,-3.68,-3.25,-0.25,5.75,0.41143798828125,-0.16314697265625,-0.8856201171875,-0.1407470703125,-15.0,22.375,25.1875,7.59,1.12,-6.09,stop,11
10.26,29896.217189564,26,3,3,0,3,9.91,0.61,-8.88,2.29,-0.51,-2.8,-6.875,13.1875,5.5,0.41241455078125,-0.1636962890625,-0.88494873046875,-0.1412353515625,-15.0,22.375,25.1875,7.61,1.12,-6.07,stop,11
10.27,29896.217189564,26,3,3,0,3,9.46,0.62,-8.27,1.83,-0.5,-2.21,-4.6875,13.3125,3.5625,0.4134521484375,-0.1639404296875,-0.8843994140625,-0.14166259765625,-15.0,22.375,25.1875,7.62,1.12,-6.06,stop,11
10.28,29896.246772002,26,3,3,0,3,9.01,0.67,-7.72,1.36,-0.44,-1.68,-2.625,13.25,2.9375,0.41436767578125,-0.16455078125,-0.88372802734375,-0.14215087890625,-13.5,22.375,26.25,7.64,1.12,-6.04,stop,11
10.29,29896.246772002,26,3,3,0,3,8.57,0.66,-7.12,0.91,-0.45,-1.1,-2.375,17.3125,4.0625,0.415771484375,-0.16473388671875,-0.883056640625,-0.1424560546875,-13.5,22.375,26.25,7.66,1.12,-6.01,stop,11
10.3,29896.262265533,26,3,3,0,3,7.36,0.73,-5.85,-0.32,-0.38,0.12,-1.375,26.0,3.25,0.41778564453125,-0.1646728515625,-0.88201904296875,-0.142822265625,-13.5,22.375,26.25,7.68,1.12,-5.98,stop,11
10.31,29896.262265533,26,3,3,0,3,6.62,0.59,-5.28,-1.1,-0.52,0.65,1.4375,37.25,-2.5,0.420654296875,-0.16400146484375,-0.88067626953125,-0.143310546875,-13.5,22.375,26.25,7.72,1.12,-5.93,stop,11
10.32,29896.277611561,26,3,3,0,3,5.76,0.32,-4.68,-2.0,-0.8,1.18,5.25,47.9375,-8.5625,0.42431640625,-0.16253662109375,-0.879150390625,-0.1439208984375,-13.5,22.375,26.25,7.77,1.12,-5.86,stop,11
10.34,29896.277611561,26,3,3,0,3,4.03,-0.1,-3.35,-3.79,-1.24,2.44,5.0625,53.625,-12.4375,0.4283447265625,-0.16046142578125,-0.87738037109375,-0.14459228515625,-12.75,23.0625,24.0625,7.82,1.14,-5.79,stop,11
10.34,29896.307225616,26,3,3,0,3,3.22,0.08,-2.94,-4.66,-1.07,2.76,2.625,62.375,-14.5,0.4329833984375,-0.15850830078125,-0.87530517578125,-0.14581298828125,-12.75,23.0625,24.0625,7.88,1.15,-5.71,stop,11
10.35,29896.307225616,26,3,3,0,3,2.54,0.18,-2.59,-5.41,-0.99,3.01,1.75,75.75,-17.625,0.4385986328125,-0.1561279296875,-0.8726806640625,-0.14739990234375,-12.75,23.0625,24.0625,7.95,1.18,-5.6,stop,11
10.36,29896.321804148,26,3,3,0,3,1.88,0.3,-2.14,-6.15,-0.9,3.33,0.6875,90.875,-19.75,0.44525146484375,-0.15338134765625,-0.86944580078125,-0.14935302734375,-12.75,23.0625,24.0625,8.04,1.2,-5.48,moving,11
10.37,29896.321804148,26,3,3,0,3,0.76,0.5,-1.57,-7.38,-0.72,3.74,-2.625,113.625,-16.3125,0.45361328125,-0.1507568359375,-0.86517333984375,-0.15167236328125,-12.75,23.0625,24.0625,8.14,1.23,-5.32,moving,11
10.38,29896.337300363,26,3,3,0,3,0.29,0.72,-1.17,-7.96,-0.53,3.94,-12.4375,133.4375,-9.375,0.46331787109375,-0.1488037109375,-0.85980224609375,-0.15472412109375,-15.6875,22.0,25.5625,8.26,1.25,-5.12,moving,11
10.39,29896.337300363,26,3,3,0,3,-0.11,0.98,-0.91,-8.51,-0.3,3.98,-26.375,151.875,-3.75,0.47430419921875,-0.14752197265625,-0.853271484375,-0.1588134765625,-15.6875,22.0,25.5625,8.39,1.28,-4.89,moving,11
10.4,29896.366469268,26,3,3,0,3,-0.34,1.01,-0.73,-8.88,-0.3,3.89,-39.0625,172.375,-3.0,0.48651123046875,-0.146484375,-0.84552001953125,-0.1640625,-15.6875,22.0,25.5625,8.53,1.32,-4.63,moving,11
10.41,29896.366469268,26,3,3,0,3,-0.05,0.71,-1.43,-8.74,-0.64,2.9,-49.125,187.25,-1.875,0.4996337890625,-0.145751953125,-0.8367919921875,-0.17010498046875,-15.6875,22.0,25.5625,8.68,1.36,-4.34,moving,11
10.43,29896.381626576,26,3,3,0,3,-0.09,1.07,-1.76,-8.91,-0.31,2.3,-54.8125,174.0625,6.6875,0.51165771484375,-0.14599609375,-0.82818603515625,-0.176025390625,-15.6875,22.0,25.5625,8.81,1.39,-4.06,moving,11
10.43,29896.381626576,26,3,3,0,3,-0.23,1.4,-1.81,-9.14,0.0,2.04,-56.0,125.625,13.9375,0.52020263671875,-0.14752197265625,-0.821533203125,-0.18096923828125,-18.25,22.375,24.0625,8.9,1.41,-3.85,moving,11
10.44,29896.396682118,26,3,3,0,3,0.27,1.11,-2.15,-8.67,-0.3,1.58,-55.6875,66.3125,15.125,0.52447509765625,-0.15008544921875,-0.8173828125,-0.18511962890625,-18.25,22.375,24.0625,8.95,1.42,-3.73,moving,11
10.45,29896.396682118,26,3,3,0,3,0.86,0.86,-2.22,-8.09,-0.56,1.48,-56.3125,5.75,17.75,0.5244140625,-0.15380859375,-0.81597900390625,-0.18841552734375,-18.25,22.375,24.0625,8.96,1.43,-3.71,moving,11
10.46,29896.427604074,26,3,3,0,3,0.86,0.86,-2.22,-8.09,-0.56,1.48,-56.3125,5.75,17.75,0.5244140625,-0.15380859375,-0.81597900390625,-0.18841552734375,-18.25,22.375,24.0625,8.96,1.43,-3.71,moving,11
10.47,29896.427604074,26,3,3,0,3,1.38,0.63,-2.28,-7.54,-0.8,1.49,-56.3125,-52.5625,19.125,0.52020263671875,-0.15863037109375,-0.81719970703125,-0.19085693359375,-18.25,22.375,24.0625,8.93,1.44,-3.78,moving,11
10.47,29896.433678049,26,3,3,0,3,2.1,0.35,-2.45,-6.76,-1.09,1.47,-50.75,-100.8125,16.875,0.5125732421875,-0.163818359375,-0.8206787109375,-0.19232177734375,-18.25,22.375,24.0625,8.86,1.44,-3.92,moving,11
10.49,29896.433678049,26,3,3,0,3,3.82,-0.05,-3.22,-4.94,-1.5,0.9,-38.125,-140.125,13.25,0.50213623046875,-0.16876220703125,-0.8260498046875,-0.19244384765625,-20.5,21.25,22.0625,8.77,1.45,-4.13,moving,11
10.49,29896.456493723,26,3,3,0,3,5.47,-0.31,-3.73,-3.16,-1.77,0.66,-23.0,-173.875,12.0,0.48944091796875,-0.173583984375,-0.8330078125,-0.19097900390625,-20.5,21.25,22.0625,8.64,1.45,-4.39,moving,11
10.51,29896.456493723,26,3,3,0,3,8.04,-0.21,-5.89,-0.44,-1.65,-1.2,-14.8125,-204.75,18.8125,0.47454833984375,-0.178955078125,-0.841064453125,-0.1881103515625,-20.5,21.25,22.0625,8.48,1.43,-4.69,moving,11
10.51,29896.471397694,26,3,3,0,3,15.57,0.5,-14.01,7.29,-0.88,-8.94,-12.5,-253.6875,43.0,0.456298828125,-0.186767578125,-0.8504638671875,-0.1832275390625,-20.5,21.25,22.0625,8.28,1.38,-5.06,moving,11
10.52,29896.471397694,26,3,3,0,3,20.16,0.03,-19.08,12.16,-1.23,-13.55,-0.3125,-325.9375,81.8125,0.4332275390625,-0.19793701171875,-0.86175537109375,-0.174560546875,-20.5,21.25,22.0625,8.0,1.26,-5.52,moving,11
10.53,29896.486523712,26,3,3,0,3,24.85,0.26,-25.64,17.18,-0.82,-19.63,15.1875,-353.125,117.9375,0.40850830078125,-0.21148681640625,-0.87286376953125,-0.16278076171875,-17.1875,20.875,24.0625,7.66,1.09,-6.01,moving,11
10.54,29896.486523712,26,3,3,0,3,29.12,2.93,-30.45,21.74,2.0,-24.06,27.75,-280.8125,99.8125,0.388916015625,-0.2220458984375,-0.881103515625,-0.15185546875,-17.1875,20.875,24.0625,7.38,0.93,-6.38,moving,11
10.55,29896.517218414,26,3,3,0,3,32.3,6.19,-19.0,25.04,5.25,-12.47,29.625,-106.75,-37.3125,0.3807373046875,-0.21954345703125,-0.88580322265625,-0.14874267578125,-17.1875,20.875,24.0625,7.25,0.94,-6.52,moving,11
10.56,29896.517218414,26,3,3,0,3,28.14,5.66,-7.16,20.74,4.52,-0.82,60.0,159.375,-205.875,0.39141845703125,-0.19952392578125,-0.885009765625,-0.15399169921875,-17.1875,20.875,24.0625,7.39,1.14,-6.33,moving,11
10.58,29896.532173777,26,3,3,0,3,21.03,7.66,-4.02,13.17,6.3,1.67,19.3125,485.25,-179.6875,0.4263916015625,-0.17828369140625,-0.8709716796875,-0.1668701171875,-17.1875,20.875,24.0625,7.86,1.35,-5.69,moving,11
10.59,29896.532173777,26,3,3,0,3,14.63,8.13,-3.98,6.23,6.57,0.82,-111.8125,598.8125,-74.625,0.4683837890625,-0.1678466796875,-0.84698486328125,-0.18719482421875,-8.75,22.0,27.5,8.39,1.56,-4.81,moving,11
10.59,29896.550197499,26,3,3,0,3,11.11,1.07,-2.36,2.31,-0.62,1.63,-170.75,516.875,-0.75,0.50347900390625,-0.1661376953125,-0.82220458984375,-0.2071533203125,-8.75,22.0,27.5,8.79,1.7,-3.99,moving,11
10.6,29896.550197499,26,3,3,0,3,11.16,-1.27,-1.33,2.13,-3.0,2.07,-154.4375,344.875,45.0,0.5264892578125,-0.1697998046875,-0.80316162109375,-0.22113037109375,-8.75,22.0,27.5,9.03,1.73,-3.41,moving,11
10.61,29896.577679392,26,3,3,0,3,10.83,-1.95,-1.43,1.69,-3.66,1.69,-103.75,160.6875,49.625,0.537109375,-0.1749267578125,-0.79290771484375,-0.228515625,-8.75,22.0,27.5,9.13,1.71,-3.12,moving,11
10.62,29896.577679392,26,3,3,0,3,9.64,0.77,-1.9,0.5,-0.92,1.21,-42.875,-8.9375,20.5,0.5362548828125,-0.17852783203125,-0.79217529296875,-0.2303466796875,-8.75,22.0,27.5,9.13,1.7,-3.12,moving,11
10.63,29896.591887074,26,3,3,0,3,11.31,2.02,-5.44,2.23,0.33,-2.16,-10.3125,-98.3125,8.5625,0.5294189453125,-0.18157958984375,-0.79638671875,-0.2291259765625,-20.5,20.1875,22.875,9.08,1.69,-3.27,moving,11
10.64,29896.591887074,26,3,3,0,3,7.08,-0.82,-2.69,-2.09,-2.55,0.31,-90.0,153.9375,7.75,0.538818359375,-0.18316650390625,-0.7872314453125,-0.2374267578125,-20.5,20.1875,22.875,9.17,1.73,-3.0,moving,11
10.65,29896.606481231,26,3,3,0,3,4.5,-0.96,0.65,-4.72,-2.77,3.41,-87.125,136.625,-20.75,0.54632568359375,-0.1829833984375,-0.77923583984375,-0.24652099609375,-20.5,20.1875,22.875,9.23,1.8,-2.76,moving,11
10.67,29896.606481231,26,3,3,0,3,0.98,-0.57,0.65,-8.31,-2.45,3.15,-52.625,148.0,-29.625,0.55487060546875,-0.1802978515625,-0.771484375,-0.25384521484375,-20.5,20.1875,22.875,9.29,1.87,-2.5,moving,11
10.68,29896.636955596,26,3,3,0,3,0.29,-0.29,0.31,-9.06,-2.24,2.48,-59.5625,195.6875,-29.375,0.56634521484375,-0.17681884765625,-0.760986328125,-0.2623291015625,-20.5,20.1875,22.875,9.36,1.95,-2.16,moving,11
10.68,29896.636955596,26,3,3,0,3,-0.26,0.05,-0.12,-9.7,-1.95,1.63,-82.125,229.75,-22.8125,0.5797119140625,-0.174072265625,-0.74798583984375,-0.27239990234375,-22.25,18.6875,21.375,9.43,2.01,-1.76,moving,11
10.69,29896.651692779,26,3,3,0,3,-0.67,0.42,-0.84,-10.16,-1.63,0.46,-99.375,253.6875,-12.75,0.59429931640625,-0.1722412109375,-0.73272705078125,-0.28326416015625,-22.25,18.6875,21.375,9.49,2.06,-1.3,moving,11
10.7,29896.651692779,26,3,3,0,3,-1.47,0.71,-1.69,-11.01,-1.36,-0.84,-107.75,253.5625,1.25,0.60870361328125,-0.17156982421875,-0.71673583984375,-0.2938232421875,-22.25,18.6875,21.375,9.54,2.08,-0.84,moving,11
10.71,29896.66649946,26,3,3,0,3,-1.47,0.71,-1.69,-11.01,-1.36,-0.84,-107.75,253.5625,1.25,0.60870361328125,-0.17156982421875,-0.71673583984375,-0.2938232421875,-22.25,18.6875,21.375,9.54,2.08,-0.84,moving,11
10.72,29896.66649946,26,3,3,0,3,-1.61,0.7,-1.85,-11.19,-1.36,-1.42,-117.0625,223.75,14.875,0.6212158203125,-0.1729736328125,-0.701416015625,-0.30364990234375,-22.25,18.6875,21.375,9.57,2.06,-0.42,moving,11
10.72,29896.683004221,26,3,3,0,3,-1.81,0.71,-1.85,-11.4,-1.31,-1.76,-136.0625,173.125,24.625,0.6302490234375,-0.17724609375,-0.68792724609375,-0.31317138671875,-22.25,18.6875,21.375,9.59,2.03,-0.09,moving,11
10.73,29896.683004221,26,3,3,0,3,-1.87,0.67,-2.41,-11.47,-1.32,-2.58,-148.5625,123.125,22.875,0.63592529296875,-0.183349609375,-0.6766357421875,-0.32269287109375,-26.0,16.875,18.25,9.6,1.99,0.16,moving,11
10.75,29896.711742909,26,3,3,0,3,-1.77,0.28,-2.69,-11.37,-1.69,-3.06,-128.125,94.625,5.5625,0.6395263671875,-0.1881103515625,-0.66766357421875,-0.3314208984375,-26.0,16.875,18.25,9.59,1.97,0.36,moving,11
10.76,29896.711742909,26,3,3,0,3,-1.43,0.01,-3.12,-11.02,-1.97,-3.64,-82.125,71.875,-10.125,0.64202880859375,-0.1900634765625,-0.661376953125,-0.337890625,-26.0,16.875,18.25,9.58,1.99,0.51,moving,11
10.76,29896.727332346,26,3,3,0,3,-1.1,-0.02,-3.07,-10.68,-2.03,-3.65,-34.3125,27.75,-13.9375,0.64263916015625,-0.19036865234375,-0.6590576171875,-0.34112548828125,-26.0,16.875,18.25,9.58,2.01,0.57,moving,11
10.77,29896.727332346,26,3,3,0,3,-0.54,0.17,-2.14,-10.12,-1.85,-2.66,5.0625,-32.0625,-12.1875,0.64056396484375,-0.1903076171875,-0.6612548828125,-0.34100341796875,-26.0,16.875,18.25,9.57,2.03,0.52,moving,11
10.78,29896.742457875,26,3,3,0,3,-0.07,0.4,-1.86,-9.65,-1.65,-2.23,36.625,-79.8125,-12.5,0.63616943359375,-0.18994140625,-0.6669921875,-0.3382568359375,-29.0,15.25,17.1875,9.58,2.05,0.37,moving,11
10.79,29896.742457875,26,3,3,0,3,0.41,0.66,-1.69,-9.17,-1.41,-1.85,63.375,-113.75,-14.9375,0.63006591796875,-0.18890380859375,-0.67535400390625,-0.33349609375,-29.0,15.25,17.1875,9.58,2.08,0.16,moving,11
10.8,29896.757021677,26,3,3,0,3,0.89,0.85,-1.62,-8.68,-1.26,-1.51,86.0625,-145.875,-19.25,0.62225341796875,-0.187255859375,-0.6861572265625,-0.3270263671875,-29.0,15.25,17.1875,9.57,2.11,-0.11,moving,11
10.81,29896.757021677,26,3,3,0,3,2.06,1.41,-2.07,-7.49,-0.73,-1.62,109.375,-181.625,-21.8125,0.6124267578125,-0.18511962890625,-0.6993408203125,-0.318603515625,-29.0,15.25,17.1875,9.55,2.14,-0.45,moving,11
10.83,29896.78779308,26,3,3,0,3,3.06,1.93,-2.89,-6.45,-0.22,-2.0,141.6875,-223.6875,-20.8125,0.600341796875,-0.1824951171875,-0.71539306640625,-0.307373046875,-29.0,15.25,17.1875,9.52,2.16,-0.88,moving,11
10.84,29896.78779308,26,3,3,0,3,4.74,2.39,-4.47,-4.7,0.23,-3.03,190.9375,-287.5625,-20.125,0.5845947265625,-0.1788330078125,-0.735595703125,-0.29180908203125,-28.5625,14.1875,17.5625,9.45,2.15,-1.43,moving,11
10.84,29896.803080719,26,3,3,0,3,11.79,2.6,-8.9,2.47,0.5,-6.7,250.5625,-407.25,-14.875,0.5615234375,-0.17535400390625,-0.7623291015625,-0.2698974609375,-28.5625,14.1875,17.5625,9.32,2.1,-2.19,moving,11
10.85,29896.803080719,26,3,3,0,3,15.94,4.07,-10.64,6.91,2.12,-7.36,284.0,-613.25,9.3125,0.52435302734375,-0.17620849609375,-0.79754638671875,-0.24072265625,-28.5625,14.1875,17.5625,9.03,1.95,-3.27,moving,11
10.86,29896.819371978,26,3,3,0,3,18.33,5.67,-10.98,9.86,4.0,-6.33,274.9375,-837.875,59.375,0.47015380859375,-0.184814453125,-0.8382568359375,-0.20538330078125,-28.5625,14.1875,17.5625,8.47,1.67,-4.64,moving,11
10.87,29896.819371978,26,3,3,0,3,21.36,4.05,-12.41,13.64,2.66,-6.51,193.3125,-851.1875,74.8125,0.4111328125,-0.197021484375,-0.87286376953125,-0.1739501953125,-28.5625,14.1875,17.5625,7.71,1.38,-5.89,moving,11
10.88,29896.846546946,26,3,3,0,3,34.8,3.72,-31.04,27.62,2.43,-24.49,-6.9375,-509.5625,78.3125,0.37298583984375,-0.21075439453125,-0.8887939453125,-0.16278076171875,-22.875,17.1875,22.1875,7.17,1.29,-6.55,moving,11
10.89,29896.846546946,26,3,3,0,3,39.2,5.18,-24.18,32.15,3.83,-17.49,-126.375,-128.875,74.1875,0.36163330078125,-0.222412109375,-0.88970947265625,-0.167724609375,-22.875,17.1875,22.1875,7.04,1.34,-6.68,moving,11
10.91,29896.862024648,26,3,3,0,3,32.47,3.61,-14.66,25.15,2.11,-8.3,12.1875,268.3125,-129.0,0.38067626953125,-0.2080078125,-0.8836669921875,-0.176025390625,-22.875,17.1875,22.1875,7.31,1.49,-6.35,moving,11
10.92,29896.862024648,26,3,3,0,3,13.74,6.71,-6.98,5.98,5.01,-1.24,72.25,484.1875,-214.25,0.41558837890625,-0.18145751953125,-0.87164306640625,-0.18609619140625,-22.875,17.1875,22.1875,7.76,1.7,-5.74,moving,11
10.93,29896.8788155,26,3,3,0,3,11.71,7.93,-7.49,3.48,6.07,-2.5,-11.0625,536.25,-109.125,0.453857421875,-0.1646728515625,-0.852783203125,-0.19915771484375,-22.875,17.1875,22.1875,8.23,1.86,-4.98,moving,11
10.93,29896.8788155,26,3,3,0,3,13.68,6.77,-6.01,5.1,4.84,-1.68,-67.5625,431.1875,-8.375,0.48443603515625,-0.15911865234375,-0.83404541015625,-0.2105712890625,-9.6875,20.375,27.1875,8.58,1.93,-4.33,moving,11
10.94,29896.907720652,26,3,3,0,3,17.01,3.58,-3.04,8.29,1.65,1.0,-80.0625,169.5,41.125,0.496337890625,-0.162353515625,-0.82470703125,-0.21697998046875,-9.6875,20.375,27.1875,8.72,1.92,-4.05,moving,11
10.95,29896.907720652,26,3,3,0,3,16.71,1.09,-4.52,8.04,-0.79,-0.35,-69.4375,-93.6875,59.75,0.48974609375,-0.17144775390625,-0.82659912109375,-0.21807861328125,-9.6875,20.375,27.1875,8.67,1.88,-4.17,moving,11
10.96,29896.921169179,26,3,3,0,3,14.73,1.4,-6.25,6.21,-0.43,-1.76,-25.1875,-220.4375,41.6875,0.47418212890625,-0.1796875,-0.834716796875,-0.21478271484375,-9.6875,20.375,27.1875,8.51,1.84,-4.49,moving,11
10.97,29896.921169179,26,3,3,0,3,14.73,1.4,-6.25,6.21,-0.43,-1.76,-25.1875,-220.4375,41.6875,0.47418212890625,-0.1796875,-0.834716796875,-0.21478271484375,-9.6875,20.375,27.1875,8.51,1.84,-4.49,moving,11
10.98,29896.937655181,26,3,3,0,3,13.32,2.08,-6.61,4.96,0.26,-1.81,10.8125,-205.75,14.25,0.45953369140625,-0.18408203125,-0.84307861328125,-0.21014404296875,-9.6875,20.375,27.1875,8.35,1.81,-4.79,moving,11
10.99,29896.937655181,26,3,3,0,3,11.69,2.8,-6.37,3.43,0.98,-1.4,-0.375,-118.125,3.125,0.45086669921875,-0.18646240234375,-0.84771728515625,-0.20806884765625,-19.0625,18.1875,23.25,8.25,1.81,-4.96,moving,11
11.0,29896.95238679,26,3,3,0,3,8.42,1.03,-4.4,0.16,-0.79,0.55,-21.125,2.375,-1.8125,0.45068359375,-0.1871337890625,-0.8472900390625,-0.20977783203125,-19.0625,18.1875,23.25,8.25,1.83,-4.95,moving,11
11.01,29896.95238679,26,3,3,0,3,6.74,0.37,-4.74,-1.62,-1.49,0.0,-54.9375,129.0,2.6875,0.4593505859375,-0.1871337890625,-0.841064453125,-0.2158203125,-19.0625,18.1875,23.25,8.36,1.87,-4.75,moving,11
11.01,29896.966462351,26,3,3,0,3,5.55,0.03,-1.96,-3.04,-1.92,2.32,-118.3125,287.5625,6.1875,0.47845458984375,-0.18682861328125,-0.826904296875,-0.22882080078125,-19.0625,18.1875,23.25,8.59,1.95,-4.28,moving,11
11.02,29896.966462351,26,3,3,0,3,2.07,-0.63,-0.47,-6.77,-2.69,3.22,-134.1875,357.9375,-4.625,0.501708984375,-0.18487548828125,-0.8089599609375,-0.24444580078125,-19.0625,18.1875,23.25,8.84,2.05,-3.69,moving,11
11.03,29896.997147817,26,3,3,0,3,1.09,0.04,-1.24,-7.99,-2.1,1.77,-128.375,406.75,-5.5625,0.52783203125,-0.1812744140625,-0.7879638671875,-0.2601318359375,-16.875,19.0,26.375,9.08,2.14,-3.01,moving,11
11.05,29896.997147817,26,3,3,0,3,0.04,0.8,-1.66,-9.24,-1.38,0.61,-127.75,430.875,9.9375,0.55523681640625,-0.17791748046875,-0.76446533203125,-0.2750244140625,-16.875,19.0,26.375,9.28,2.18,-2.27,moving,11
11.06,29897.01214566,26,3,3,0,3,-0.28,1.36,-2.14,-9.71,-0.83,-0.57,-138.9375,403.8125,23.5,0.5802001953125,-0.1763916015625,-0.74066162109375,-0.28924560546875,-16.875,19.0,26.375,9.42,2.19,-1.56,moving,11
11.07,29897.01214566,26,3,3,0,3,-1.1,1.07,-2.37,-10.62,-1.11,-1.48,-153.0,372.8125,22.9375,0.60211181640625,-0.1761474609375,-0.7171630859375,-0.303466796875,-16.875,19.0,26.375,9.51,2.18,-0.88,moving,11
11.08,29897.027392934,26,3,3,0,3,-1.77,1.22,-1.8,-11.33,-0.93,-1.53,-157.625,337.4375,26.0625,0.62115478515625,-0.177001953125,-0.69451904296875,-0.3170166015625,-16.875,19.0,26.375,9.56,2.16,-0.26,moving,11
11.09,29897.027392934,26,3,3,0,3,-2.13,1.23,-1.77,-11.71,-0.85,-2.04,-168.4375,283.9375,42.5,0.63665771484375,-0.1807861328125,-0.67352294921875,-0.32916259765625,-26.0625,15.25,19.875,9.57,2.09,0.26,moving,11
11.09,29897.057651886,26,3,3,0,3,-2.4,1.27,-1.93,-11.98,-0.72,-2.65,-176.9375,227.1875,46.0,0.6483154296875,-0.186767578125,-0.6549072265625,-0.3404541015625,-26.0625,15.25,19.875,9.57,1.99,0.71,moving,11
11.1,29897.057651886,26,3,3,0,3,-1.96,0.46,-2.38,-11.52,-1.46,-3.45,-161.3125,179.625,28.125,0.6566162109375,-0.19207763671875,-0.63934326171875,-0.3509521484375,-26.0625,15.25,19.875,9.55,1.92,1.06,moving,11
11.11,29897.081062693,26,3,3,0,3,-1.42,-0.17,-2.43,-10.95,-2.05,-3.76,-121.5,134.375,12.0625,0.662353515625,-0.19561767578125,-0.627685546875,-0.35919189453125,-26.0625,15.25,19.875,9.53,1.88,1.32,moving,11
11.12,29897.081062693,26,3,3,0,3,-0.82,-0.62,-2.26,-10.34,-2.47,-3.74,-71.1875,76.75,7.4375,0.66558837890625,-0.19769287109375,-0.620849609375,-0.36395263671875,-26.0625,15.25,19.875,9.51,1.85,1.48,moving,11
11.14,29897.089599965,26,3,3,0,3,-0.03,-0.92,-1.37,-9.54,-2.75,-2.87,-18.9375,11.1875,8.375,0.66607666015625,-0.19891357421875,-0.61944580078125,-0.36468505859375,-29.375,14.1875,15.25,9.51,1.83,1.5,moving,11
11.15,29897.089599965,26,3,3,0,3,0.13,-0.8,-1.0,-9.39,-2.62,-2.42,30.5625,-44.375,9.6875,0.66455078125,-0.19903564453125,-0.62286376953125,-0.3616943359375,-29.375,14.1875,15.25,9.53,1.82,1.42,moving,11
11.16,29897.118757354,26,3,3,0,3,0.31,-0.46,-0.81,-9.23,-2.29,-2.07,73.5625,-80.0625,8.25,0.66168212890625,-0.19775390625,-0.629638671875,-0.3558349609375,-29.375,14.1875,15.25,9.55,1.82,1.26,moving,11
11.17,29897.118757354,26,3,3,0,3,0.6,-0.28,-0.69,-8.96,-2.12,-1.75,105.8125,-103.25,2.25,0.6578369140625,-0.1949462890625,-0.6387939453125,-0.34808349609375,-29.375,14.1875,15.25,9.57,1.84,1.05,moving,11
11.18,29897.133518422,26,3,3,0,3,1.98,0.19,-1.25,-7.61,-1.68,-2.05,126.75,-130.125,-6.0,0.6524658203125,-0.1912841796875,-0.650146484375,-0.339111328125,-29.375,14.1875,15.25,9.59,1.87,0.79,moving,11
11.18,29897.133518422,26,3,3,0,3,2.88,0.57,-1.88,-6.72,-1.33,-2.33,146.1875,-177.625,-7.5625,0.64447021484375,-0.187744140625,-0.66461181640625,-0.32818603515625,-29.875,13.5,14.5625,9.6,1.9,0.45,moving,11
11.19,29897.162767324,26,3,3,0,3,4.24,1.15,-2.79,-5.37,-0.75,-2.76,173.875,-255.3125,0.4375,0.63226318359375,-0.18524169921875,-0.6837158203125,-0.3138427734375,-29.875,13.5,14.5625,9.61,1.91,-0.03,moving,11
11.2,29897.162767324,26,3,3,0,3,6.38,1.63,-4.38,-3.2,-0.23,-3.63,213.75,-383.625,12.1875,0.61273193359375,-0.18450927734375,-0.71002197265625,-0.29400634765625,-29.875,13.5,14.5625,9.59,1.87,-0.74,moving,11
11.21,29897.178103464,26,3,3,0,3,10.43,3.35,-8.84,0.95,1.61,-7.04,283.6875,-580.375,41.0,0.5814208984375,-0.1865234375,-0.7464599609375,-0.26446533203125,-29.875,13.5,14.5625,9.47,1.74,-1.8,moving,11
11.23,29897.178103464,26,3,3,0,3,13.34,3.45,-10.52,4.21,1.97,-7.26,371.6875,-831.625,65.5,0.53314208984375,-0.19049072265625,-0.79364013671875,-0.22265625,-29.875,13.5,14.5625,9.13,1.47,-3.25,moving,11
11.23,29897.191231679,26,3,3,0,3,13.34,3.45,-10.52,4.21,1.97,-7.26,371.6875,-831.625,65.5,0.53314208984375,-0.19049072265625,-0.79364013671875,-0.22265625,-29.875,13.5,14.5625,9.13,1.47,-3.25,moving,11
11.24,29897.191231679,26,3,3,0,3,17.13,2.77,-13.21,8.74,1.64,-8.26,382.25,-1052.5625,48.3125,0.46533203125,-0.195556640625,-0.84521484375,-0.17559814453125,-28.0,16.375,18.875,8.38,1.12,-4.95,moving,11
11.25,29897.207730092,26,3,3,0,3,26.07,-1.93,-24.08,18.72,-2.8,-17.64,235.625,-1053.1875,15.75,0.39013671875,-0.202392578125,-0.88739013671875,-0.1390380859375,-28.0,16.375,18.875,7.34,0.87,-6.44,moving,11
11.26,29897.207730092,26,3,3,0,3,30.18,0.97,-34.71,23.57,0.15,-27.51,-2.6875,-620.1875,47.25,0.3421630859375,-0.21337890625,-0.90631103515625,-0.12646484375,-28.0,16.375,18.875,6.61,0.81,-7.19,moving,11
11.26,29897.221642039,26,3,3,0,3,32.12,8.01,-28.76,25.64,7.22,-21.45,-92.9375,-116.6875,125.9375,0.33251953125,-0.22735595703125,-0.90631103515625,-0.12786865234375,-28.0,16.375,18.875,6.48,0.78,-7.31,moving,11
11.27,29897.221642039,26,3,3,0,3,36.28,11.0,-10.84,29.5,10.14,-3.81,-70.6875,238.625,14.625,0.35003662109375,-0.22784423828125,-0.89813232421875,-0.1376953125,-28.0,16.375,18.875,6.78,0.86,-7.03,moving,11
11.28,29897.252470042,26,3,3,0,3,16.85,5.18,-5.95,9.38,4.08,0.29,1.375,630.5625,-196.0625,0.39642333984375,-0.20452880859375,-0.88134765625,-0.15582275390625,-6.375,22.25,28.375,7.47,1.1,-6.24,moving,11
11.29,29897.252470042,26,3,3,0,3,12.66,6.34,-6.64,4.59,5.01,-1.23,-46.6875,612.625,-134.0625,0.440185546875,-0.187255859375,-0.860595703125,-0.17474365234375,-6.375,22.25,28.375,8.07,1.33,-5.4,moving,11
11.3,29897.26676065,26,3,3,0,3,13.73,3.05,-6.86,5.27,1.57,-2.13,-113.875,449.125,-28.5,0.47119140625,-0.1824951171875,-0.8414306640625,-0.19158935546875,-6.375,22.25,28.375,8.46,1.47,-4.73,moving,11
11.32,29897.26676065,26,3,3,0,3,17.4,0.84,-5.04,8.78,-0.66,-0.59,-74.625,181.25,18.625,0.4835205078125,-0.183837890625,-0.83233642578125,-0.19915771484375,-6.375,22.25,28.375,8.61,1.5,-4.44,moving,11
11.33,29897.282104116,26,3,3,0,3,16.53,1.86,-5.13,7.98,0.38,-0.56,14.875,-82.1875,9.6875,0.47796630859375,-0.18536376953125,-0.83587646484375,-0.19635009765625,-6.375,22.25,28.375,8.54,1.48,-4.57,moving,11
11.34,29897.282104116,26,3,3,0,3,15.27,2.51,-5.64,6.92,1.04,-0.71,50.125,-231.5,-20.5625,0.46142578125,-0.1856689453125,-0.84649658203125,-0.18975830078125,-15.875,21.1875,26.0625,8.35,1.47,-4.92,moving,11
11.34,29897.297498932,26,3,3,0,3,13.88,2.78,-6.93,5.71,1.31,-1.71,7.875,-204.3125,-8.5,0.44622802734375,-0.1881103515625,-0.8548583984375,-0.1861572265625,-15.875,21.1875,26.0625,8.16,1.47,-5.22,moving,11
11.35,29897.297498932,26,3,3,0,3,9.29,0.62,-8.27,1.19,-0.87,-2.94,-49.1875,-79.0625,14.125,0.43975830078125,-0.19232177734375,-0.85687255859375,-0.18798828125,-15.875,21.1875,26.0625,8.09,1.5,-5.32,moving,11
11.36,29897.326949371,26,3,3,0,3,8.13,0.42,-7.27,-0.06,-1.13,-2.13,-90.1875,106.875,19.25,0.446533203125,-0.1954345703125,-0.8509521484375,-0.19580078125,-15.875,21.1875,26.0625,8.2,1.55,-5.14,moving,11
