timestamp,android_nano_timestamp,temperature,calib_mag,calib_accel,calib_gyro,calib_sys,acc_x,acc_y,acc_z,lacc_x,lacc_y,lacc_z,gyro_x,gyro_y,gyro_z,quat_w,quat_x,quat_y,quat_z,mag_x,mag_y,mag_z,gravity_x,gravity_y,gravity_z,label,person
4.13,615512.544951091,22,1,0,0,0,10.36,0.63,0.52,0.61,0.0,-0.25,-1.0625,10.0,-3.9375,0.17620849609375,0.6676025390625,-0.11981201171875,0.71337890625,-38.75,16.1875,-12.25,9.75,0.63,0.78,moving,1
4.14,615512.544951091,22,1,0,0,0,10.1,0.55,0.54,0.35,-0.08,-0.25,-2.1875,10.0625,-3.4375,0.17669677734375,0.6669921875,-0.11962890625,0.7138671875,-38.75,16.1875,-12.25,9.75,0.63,0.8,moving,1
4.15,615512.560581177,22,1,0,0,0,9.61,0.39,0.75,-0.14,-0.24,-0.06,-2.125,10.875,-3.125,0.1771240234375,0.666259765625,-0.119384765625,0.7144775390625,-38.75,16.1875,-12.25,9.75,0.64,0.81,moving,1
4.16,615512.560581177,22,1,0,0,0,9.3,0.35,0.91,-0.44,-0.29,0.07,2.5,14.3125,-4.0625,0.1773681640625,0.66546630859375,-0.1187744140625,0.71527099609375,-38.375,16.1875,-13.0625,9.74,0.64,0.84,moving,1
4.17,615512.573620321,22,1,0,0,0,8.97,0.36,0.98,-0.76,-0.29,0.1,11.0625,19.9375,-6.5,0.1773681640625,0.66448974609375,-0.11737060546875,0.7164306640625,-38.375,16.1875,-13.0625,9.74,0.66,0.87,moving,1
4.18,615512.573620321,22,1,0,0,0,8.01,0.41,0.76,-1.72,-0.26,-0.15,19.375,25.5,-8.875,0.177001953125,0.66326904296875,-0.115234375,0.71795654296875,-38.375,16.1875,-13.0625,9.73,0.67,0.91,moving,1
4.19,615512.605721314,22,1,0,0,0,7.43,0.42,0.45,-2.29,-0.28,-0.5,24.4375,28.75,-10.25,0.17657470703125,0.66192626953125,-0.1126708984375,0.7197265625,-38.375,16.1875,-13.0625,9.73,0.7,0.96,moving,1
4.2,615512.605721314,22,1,0,0,0,6.94,0.29,0.13,-2.78,-0.43,-0.86,27.5,28.25,-10.4375,0.1759033203125,0.66070556640625,-0.10992431640625,0.721435546875,-38.375,16.1875,-13.0625,9.72,0.72,1.0,moving,1
4.21,615512.621505046,22,1,0,0,0,6.53,0.13,-0.02,-3.18,-0.6,-1.07,28.4375,26.875,-9.625,0.17510986328125,0.6595458984375,-0.107177734375,0.72308349609375,-40.25,17.25,-13.0625,9.72,0.74,1.05,moving,1
4.22,615512.621505046,22,1,0,0,0,5.92,0.33,0.33,-3.78,-0.43,-0.75,25.0625,26.9375,-7.375,0.17437744140625,0.65826416015625,-0.104736328125,0.72479248046875,-40.25,17.25,-13.0625,9.71,0.76,1.09,moving,1
4.23,615512.632783977,22,1,0,0,0,5.54,0.32,0.79,-4.16,-0.45,-0.35,19.75,29.5,-5.5625,0.17388916015625,0.65673828125,-0.10272216796875,0.7265625,-40.25,17.25,-13.0625,9.7,0.77,1.14,moving,1
4.24,615512.632783977,22,1,0,0,0,5.17,0.45,1.16,-4.52,-0.32,-0.02,15.1875,32.125,-4.9375,0.173583984375,0.65496826171875,-0.1009521484375,0.72845458984375,-40.25,17.25,-13.0625,9.7,0.78,1.19,moving,1
4.25,615512.663442221,22,1,0,0,0,4.84,0.6,1.58,-4.84,-0.18,0.35,8.5625,27.375,-3.1875,0.173583984375,0.65338134765625,-0.099853515625,0.73004150390625,-40.25,17.25,-13.0625,9.69,0.79,1.23,moving,1
4.26,615512.663442221,22,1,0,0,0,4.87,0.78,2.14,-4.81,-0.01,0.88,-2.3125,12.4375,-1.0625,0.17388916015625,0.652587890625,-0.0997314453125,0.730712890625,-40.25,14.6875,-15.75,9.69,0.79,1.25,moving,1
4.27,615512.677800578,22,1,0,0,0,5.5,0.71,1.75,-4.18,-0.07,0.49,-14.875,-4.8125,0.5625,0.17462158203125,0.65264892578125,-0.10076904296875,0.7303466796875,-40.25,14.6875,-15.75,9.69,0.79,1.25,moving,1
4.28,615512.677800578,22,1,0,0,0,6.85,0.52,1.03,-2.84,-0.25,-0.18,-21.8125,-19.6875,2.9375,0.175537109375,0.653564453125,-0.1026611328125,0.72906494140625,-40.25,14.6875,-15.75,9.69,0.78,1.22,moving,1
4.29,615512.695045411,22,1,0,0,0,11.43,-0.12,0.14,1.73,-0.88,-1.02,-27.875,-33.75,7.25,0.17633056640625,0.65521240234375,-0.1053466796875,0.72698974609375,-40.25,14.6875,-15.75,9.7,0.76,1.16,moving,1
4.3,615512.695045411,22,1,0,0,0,14.46,-0.07,0.74,4.74,-0.8,-0.34,-40.9375,-48.8125,16.0,0.17724609375,0.657470703125,-0.109619140625,0.72406005859375,-40.25,14.6875,-15.75,9.71,0.72,1.09,moving,1
4.31,615512.708798788,22,1,0,0,0,14.46,-0.07,0.74,4.74,-0.8,-0.34,-40.9375,-48.8125,16.0,0.17724609375,0.657470703125,-0.109619140625,0.72406005859375,-40.25,14.6875,-15.75,9.71,0.72,1.09,moving,1
4.32,615512.708798788,22,1,0,0,0,16.32,0.67,0.88,6.59,0.0,-0.1,-63.375,-68.75,28.375,0.17840576171875,0.66058349609375,-0.11627197265625,0.71990966796875,-38.5,14.6875,-15.5,9.73,0.66,0.98,moving,1
4.32,615512.722797445,22,1,0,0,0,16.83,1.76,1.68,7.07,1.17,0.83,-78.1875,-88.375,36.0625,0.17974853515625,0.66448974609375,-0.1246337890625,0.71453857421875,-38.5,14.6875,-15.5,9.75,0.59,0.84,moving,1
4.33,615512.722797445,22,1,0,0,0,16.81,1.72,0.42,7.04,1.17,-0.31,-59.5625,-61.25,24.125,0.1810302734375,0.6671142578125,-0.1307373046875,0.710693359375,-38.5,14.6875,-15.5,9.76,0.54,0.74,moving,1
4.34,615512.753839763,22,1,0,0,0,15.7,0.35,-0.49,5.93,-0.18,-1.21,-26.5625,-13.5625,4.1875,0.18212890625,0.66748046875,-0.13287353515625,0.709716796875,-38.5,14.6875,-15.5,9.76,0.53,0.72,moving,1
4.35,615512.753839763,22,1,0,0,0,16.04,0.91,1.33,6.27,0.37,0.61,1.375,-2.625,-3.3125,0.1822509765625,0.667724609375,-0.13262939453125,0.70947265625,-38.5,14.6875,-15.5,9.76,0.54,0.71,moving,1
4.36,615512.768271322,22,1,0,0,0,13.24,0.46,0.3,3.48,-0.08,-0.44,2.625,16.9375,-4.75,0.18255615234375,0.666748046875,-0.13189697265625,0.71044921875,-39.6875,18.6875,-13.1875,9.76,0.54,0.74,moving,1
4.37,615512.768271322,22,1,0,0,0,12.95,1.06,0.78,3.19,0.5,-0.02,3.0,37.4375,-6.625,0.1832275390625,0.66455078125,-0.1307373046875,0.7125244140625,-39.6875,18.6875,-13.1875,9.75,0.56,0.8,moving,1
4.38,615512.783869263,22,1,0,0,0,11.98,1.42,1.36,2.23,0.84,0.5,17.1875,30.625,-6.5625,0.1829833984375,0.6629638671875,-0.1287841796875,0.71441650390625,-39.6875,18.6875,-13.1875,9.75,0.57,0.86,moving,1
4.39,615512.783869263,22,1,0,0,0,11.38,1.37,1.59,1.63,0.77,0.69,31.875,26.9375,-12.0,0.18218994140625,0.66192626953125,-0.12567138671875,0.71612548828125,-39.6875,18.6875,-13.1875,9.74,0.6,0.9,moving,1
4.4,615512.814064983,22,1,0,0,0,8.58,0.9,0.83,-1.15,0.28,-0.13,34.5625,38.375,-13.0,0.181396484375,0.66021728515625,-0.12213134765625,0.718505859375,-39.6875,18.6875,-13.1875,9.73,0.62,0.96,moving,1
4.41,615512.814064983,22,1,0,0,0,6.91,0.76,0.37,-2.81,0.11,-0.64,28.4375,38.75,-11.4375,0.180908203125,0.65838623046875,-0.11907958984375,0.7208251953125,-38.875,16.875,-13.5,9.73,0.65,1.02,moving,1
4.42,615512.828836304,22,1,0,0,0,7.36,1.2,1.3,-2.35,0.52,0.24,18.4375,21.0,-9.5625,0.1806640625,0.657470703125,-0.1170654296875,0.72210693359375,-38.875,16.875,-13.5,9.72,0.67,1.06,moving,1
4.43,615512.828836304,22,1,0,0,0,5.92,0.33,0.69,-3.79,-0.35,-0.39,1.375,15.75,-10.5625,0.181396484375,0.6566162109375,-0.1160888671875,0.72283935546875,-38.875,16.875,-13.5,9.72,0.69,1.08,moving,1
4.44,615512.843913371,22,1,0,0,0,5.27,0.05,0.25,-4.44,-0.64,-0.87,-8.4375,21.1875,-10.0,0.1827392578125,0.65521240234375,-0.11572265625,0.72381591796875,-38.875,16.875,-13.5,9.71,0.7,1.12,moving,1
4.45,615512.843913371,22,1,0,0,0,4.65,0.06,0.15,-5.05,-0.65,-1.02,-6.4375,32.0,-8.9375,0.18402099609375,0.6531982421875,-0.1151123046875,0.72540283203125,-38.875,16.875,-13.5,9.7,0.71,1.17,moving,1
4.46,615512.874884156,22,1,0,0,0,4.5,0.0,0.2,-5.19,-0.73,-1.02,1.0,29.125,-10.25,0.18487548828125,0.6514892578125,-0.114013671875,0.7269287109375,-38.875,15.75,-14.25,9.7,0.73,1.22,moving,1
4.47,615512.874884156,22,1,0,0,0,4.47,0.02,0.44,-5.21,-0.73,-0.82,6.9375,23.125,-10.8125,0.1854248046875,0.65020751953125,-0.112548828125,0.7281494140625,-38.875,15.75,-14.25,9.69,0.75,1.26,moving,1
4.48,615512.888244711,22,1,0,0,0,4.56,0.11,0.61,-5.12,-0.66,-0.66,10.875,8.625,-9.4375,0.18548583984375,0.64996337890625,-0.1112060546875,0.72857666015625,-38.875,15.75,-14.25,9.69,0.77,1.27,moving,1
4.49,615512.888244711,22,1,0,0,0,5.11,0.37,1.63,-4.57,-0.41,0.34,8.875,3.3125,-7.8125,0.18548583984375,0.64996337890625,-0.110107421875,0.72869873046875,-38.875,15.75,-14.25,9.69,0.79,1.28,moving,1
4.5,615512.903486329,22,1,0,0,0,5.44,0.7,2.19,-4.23,-0.09,0.9,2.125,3.0,-5.3125,0.185791015625,0.64984130859375,-0.109619140625,0.72882080078125,-38.875,15.75,-14.25,9.68,0.8,1.28,moving,1
4.51,615512.903486329,22,1,0,0,0,7.01,0.74,1.42,-2.67,-0.05,0.12,-11.5625,5.625,-1.8125,0.18658447265625,0.6492919921875,-0.11016845703125,0.72900390625,-40.6875,16.1875,-15.75,9.68,0.8,1.29,moving,1
4.52,615512.933239055,22,1,0,0,0,8.04,0.33,0.27,-1.63,-0.45,-1.01,-26.5,-8.0625,2.0,0.1878662109375,0.64935302734375,-0.11212158203125,0.72833251953125,-40.6875,16.1875,-15.75,9.68,0.79,1.28,moving,1
4.53,615512.933239055,22,1,0,0,0,11.34,0.26,0.03,1.64,-0.5,-1.17,-37.375,-49.375,7.25,0.18902587890625,0.65179443359375,-0.11572265625,0.72528076171875,-40.6875,16.1875,-15.75,9.7,0.77,1.21,moving,1
4.54,615512.948781332,22,1,0,0,0,15.04,-0.45,0.09,5.32,-1.18,-0.99,-56.625,-75.4375,15.375,0.1905517578125,0.65545654296875,-0.12139892578125,0.72064208984375,-40.6875,16.1875,-15.75,9.71,0.73,1.09,moving,1
4.55,615512.948781332,22,1,0,0,0,15.41,0.24,0.16,5.68,-0.43,-0.79,-64.125,-81.4375,24.0,0.19183349609375,0.65924072265625,-0.128173828125,0.71563720703125,-40.6875,16.1875,-15.75,9.73,0.68,0.96,moving,1
4.56,615512.964741334,22,1,0,0,0,15.34,1.17,0.8,5.6,0.54,-0.08,-54.875,-40.6875,24.875,0.19293212890625,0.66058349609375,-0.1336669921875,0.71307373046875,-38.875,15.75,-15.0,9.74,0.63,0.89,moving,1
4.57,615512.964741334,22,1,0,0,0,15.34,1.17,0.8,5.6,0.54,-0.08,-54.875,-40.6875,24.875,0.19293212890625,0.66058349609375,-0.1336669921875,0.71307373046875,-38.875,15.75,-15.0,9.74,0.63,0.89,moving,1
4.57,615512.97918095,22,1,0,0,0,15.93,1.85,0.8,6.18,1.24,-0.08,-30.375,-3.875,10.5625,0.19403076171875,0.66021728515625,-0.13629150390625,0.71270751953125,-38.875,15.75,-15.0,9.74,0.6,0.89,moving,1
4.58,615512.97918095,22,1,0,0,0,17.18,0.97,0.13,7.43,0.37,-0.73,-18.375,-13.3125,1.625,0.19482421875,0.66070556640625,-0.13775634765625,0.71173095703125,-38.875,15.75,-15.0,9.74,0.6,0.87,moving,1
4.59,615512.993185548,22,1,0,0,0,16.46,0.55,0.16,6.71,-0.04,-0.63,-7.75,-43.8125,2.1875,0.194580078125,0.66326904296875,-0.13909912109375,0.70916748046875,-38.875,15.75,-15.0,9.75,0.59,0.79,moving,1
4.6,615512.993185548,22,1,0,0,0,15.29,0.64,0.7,5.53,0.04,-0.04,15.9375,-26.4375,-3.75,0.19354248046875,0.66522216796875,-0.1383056640625,0.70770263671875,-38.875,15.75,-15.0,9.75,0.6,0.75,moving,1
4.61,615513.023531983,22,1,0,0,0,12.4,1.44,1.43,2.64,0.8,0.65,38.625,19.125,-12.375,0.19232177734375,0.66485595703125,-0.1348876953125,0.7091064453125,-40.375,15.6875,-12.6875,9.75,0.63,0.78,moving,1
4.62,615513.023531983,22,1,0,0,0,10.91,1.6,1.33,1.16,0.93,0.48,49.1875,44.1875,-17.25,0.1910400390625,0.66314697265625,-0.130126953125,0.7119140625,-40.375,15.6875,-12.6875,9.74,0.66,0.84,moving,1
4.63,615513.038483074,22,1,0,0,0,9.39,1.7,1.13,-0.34,0.99,0.21,58.8125,50.25,-21.1875,0.18951416015625,0.66119384765625,-0.1243896484375,0.71514892578125,-40.375,15.6875,-12.6875,9.73,0.71,0.92,moving,1
4.64,615513.038483074,22,1,0,0,0,7.78,1.61,0.9,-1.93,0.85,-0.09,64.875,49.375,-21.75,0.18768310546875,0.659423828125,-0.1182861328125,0.71832275390625,-40.375,15.6875,-12.6875,9.72,0.76,1.0,moving,1
4.65,615513.068912598,22,1,0,0,0,5.66,0.68,0.33,-4.04,-0.11,-0.74,53.0625,44.8125,-17.5625,0.1861572265625,0.65765380859375,-0.11322021484375,0.72113037109375,-40.375,15.6875,-12.6875,9.71,0.8,1.07,moving,1
4.66,615513.068912598,22,1,0,0,0,4.99,0.94,0.74,-4.7,0.11,-0.38,32.875,36.25,-13.125,0.18548583984375,0.65606689453125,-0.10980224609375,0.7232666015625,-38.875,15.375,-14.25,9.7,0.82,1.12,moving,1
4.67,615513.08323755,22,1,0,0,0,4.4,0.59,1.09,-5.29,-0.25,-0.07,23.375,24.0,-9.5,0.1849365234375,0.655029296875,-0.10736083984375,0.7247314453125,-38.875,15.375,-14.25,9.69,0.84,1.16,moving,1
4.68,615513.08323755,22,1,0,0,0,3.34,0.07,0.52,-6.34,-0.79,-0.7,14.125,38.5625,-7.375,0.18499755859375,0.65289306640625,-0.10540771484375,0.7269287109375,-38.875,15.375,-14.25,9.69,0.86,1.22,moving,1
4.69,615513.099210328,22,1,0,0,0,2.69,-0.17,0.47,-6.98,-1.05,-0.81,10.25,38.25,-9.125,0.185302734375,0.65069580078125,-0.1036376953125,0.72906494140625,-38.875,15.375,-14.25,9.68,0.88,1.29,moving,1
4.7,615513.099210328,22,1,0,0,0,3.37,-0.06,0.45,-6.29,-0.96,-0.89,10.25,30.4375,-6.6875,0.1854248046875,0.64898681640625,-0.10211181640625,0.73077392578125,-38.875,15.375,-14.25,9.67,0.89,1.34,moving,1
4.71,615513.113084107,22,1,0,0,0,3.62,-0.05,0.66,-6.04,-0.95,-0.66,10.25,-5.875,-0.6875,0.18487548828125,0.6495361328125,-0.10150146484375,0.73052978515625,-39.6875,14.25,-15.0,9.67,0.9,1.32,moving,1
4.72,615513.113084107,22,1,0,0,0,4.89,0.29,1.35,-4.78,-0.6,0.04,10.25,-5.875,-0.6875,0.18426513671875,0.65008544921875,-0.10089111328125,0.730224609375,-39.6875,14.25,-15.0,9.67,0.9,1.31,moving,1
4.73,615513.143848186,22,1,0,0,0,5.24,0.24,1.48,-4.43,-0.64,0.2,-2.3125,-22.5,4.1875,0.1839599609375,0.65142822265625,-0.1016845703125,0.72900390625,-39.6875,14.25,-15.0,9.68,0.89,1.28,moving,1
4.74,615513.143848186,22,1,0,0,0,5.75,0.5,1.72,-3.93,-0.37,0.48,-18.125,-26.125,8.875,0.18414306640625,0.6527099609375,-0.103759765625,0.72747802734375,-39.6875,14.25,-15.0,9.68,0.87,1.23,moving,1
4.75,615513.159782268,22,1,0,0,0,6.18,0.71,1.65,-3.5,-0.13,0.44,-25.75,-22.8125,10.9375,0.1846923828125,0.6536865234375,-0.10638427734375,0.72613525390625,-39.6875,14.25,-15.0,9.69,0.85,1.2,moving,1
4.76,615513.159782268,22,1,0,0,0,9.03,0.95,1.93,-0.67,0.13,0.81,-42.8125,-52.1875,12.0,0.1859130859375,0.65618896484375,-0.110595703125,0.72296142578125,-39.25,14.5625,-16.1875,9.7,0.82,1.12,moving,1
4.77,615513.173262371,22,1,0,0,0,10.98,1.13,1.01,1.26,0.35,0.0,-65.8125,-68.4375,19.0,0.18780517578125,0.6591796875,-0.116943359375,0.71868896484375,-39.25,14.5625,-16.1875,9.72,0.77,1.01,moving,1
4.78,615513.173262371,22,1,0,0,0,12.98,0.44,1.36,3.24,-0.28,0.46,-75.625,-75.0,23.75,0.18988037109375,0.66241455078125,-0.124267578125,0.71392822265625,-39.25,14.5625,-16.1875,9.73,0.72,0.89,moving,1
4.79,615513.203106283,22,1,0,0,0,16.15,1.27,-0.04,6.4,0.61,-0.86,-71.875,-51.0,28.0,0.1917724609375,0.6640625,-0.1312255859375,0.71063232421875,-39.25,14.5625,-16.1875,9.74,0.66,0.81,moving,1
4.8,615513.203106283,22,1,0,0,0,16.24,1.02,0.28,6.49,0.38,-0.52,-36.3125,-6.9375,15.875,0.19281005859375,0.6636962890625,-0.134521484375,0.7100830078125,-39.25,14.5625,-16.1875,9.75,0.63,0.81,moving,1
4.81,615513.218723919,22,1,0,0,0,16.11,0.98,0.95,6.36,0.33,0.09,2.5625,25.625,-3.3125,0.19317626953125,0.6622314453125,-0.13372802734375,0.7115478515625,-39.75,15.375,-13.875,9.74,0.64,0.85,moving,1
4.82,615513.218723919,22,1,0,0,0,16.11,0.98,0.95,6.36,0.33,0.09,2.5625,25.625,-3.3125,0.19317626953125,0.6622314453125,-0.13372802734375,0.7115478515625,-39.75,15.375,-13.875,9.74,0.64,0.85,moving,1
4.82,615513.233221599,22,1,0,0,0,15.26,1.16,0.88,5.51,0.5,-0.01,27.0625,25.3125,-9.0,0.19244384765625,0.66119384765625,-0.131103515625,0.71319580078125,-39.75,15.375,-13.875,9.74,0.66,0.89,moving,1
4.83,615513.233221599,22,1,0,0,0,15.33,1.12,-0.99,5.59,0.44,-1.88,32.5,1.5625,-9.4375,0.191162109375,0.6617431640625,-0.12847900390625,0.71343994140625,-39.75,15.375,-13.875,9.74,0.68,0.89,moving,1
4.84,615513.24922636,22,1,0,0,0,16.09,0.83,-0.83,6.34,0.14,-1.69,23.0625,-20.625,-4.5625,0.18988037109375,0.6634521484375,-0.12713623046875,0.71246337890625,-39.75,15.375,-13.875,9.74,0.69,0.85,moving,1
4.85,615513.24922636,22,1,0,0,0,15.93,0.84,0.08,6.18,0.13,-0.75,21.375,-5.875,-3.6875,0.18878173828125,0.66424560546875,-0.12567138671875,0.7122802734375,-39.75,15.375,-13.875,9.74,0.7,0.84,moving,1
4.86,615513.281742799,22,1,0,0,0,13.61,1.24,1.06,3.87,0.51,0.18,35.3125,25.5625,-10.875,0.187744140625,0.663330078125,-0.1224365234375,0.71392822265625,-39.75,15.6875,-12.6875,9.73,0.72,0.88,moving,1
4.87,615513.281742799,22,1,0,0,0,12.12,1.72,1.23,2.39,0.96,0.29,41.5,32.0,-14.3125,0.1865234375,0.66217041015625,-0.1185302734375,0.71600341796875,-39.75,15.6875,-12.6875,9.73,0.75,0.93,moving,1
4.88,615513.293681601,22,1,0,0,0,10.77,1.87,1.32,1.04,1.08,0.35,28.375,26.8125,-12.125,0.1859130859375,0.6611328125,-0.1156005859375,0.7176513671875,-39.75,15.6875,-12.6875,9.72,0.78,0.97,moving,1
4.89,615513.293681601,22,1,0,0,0,9.47,1.53,0.88,-0.25,0.73,-0.12,14.8125,23.25,-6.75,0.18572998046875,0.65997314453125,-0.1138916015625,0.718994140625,-39.75,15.6875,-12.6875,9.72,0.79,1.0,moving,1
4.9,615513.30793742,22,1,0,0,0,7.84,1.85,1.92,-1.86,1.04,0.85,7.5,37.8125,-7.875,0.1861572265625,0.65777587890625,-0.11236572265625,0.72113037109375,-39.75,15.6875,-12.6875,9.71,0.81,1.07,moving,1
4.91,615513.30793742,22,1,0,0,0,5.73,1.03,0.62,-3.96,0.21,-0.54,-6.0625,56.9375,-9.25,0.18768310546875,0.6541748046875,-0.11126708984375,0.72418212890625,-39.0,15.6875,-14.25,9.7,0.82,1.16,moving,1
4.92,615513.323844036,22,1,0,0,0,5.18,0.85,1.24,-4.5,0.01,-0.02,0.1875,56.75,-9.5625,0.1888427734375,0.65069580078125,-0.10980224609375,0.72723388671875,-39.0,15.6875,-14.25,9.68,0.84,1.26,moving,1
4.93,615513.323844036,22,1,0,0,0,3.58,-0.16,0.63,-6.09,-1.03,-0.72,8.625,56.875,-12.0,0.18963623046875,0.6473388671875,-0.10760498046875,0.7303466796875,-39.0,15.6875,-14.25,9.67,0.86,1.36,moving,1
4.94,615513.353369589,22,1,0,0,0,3.53,-0.23,0.78,-6.12,-1.12,-0.65,15.8125,48.625,-11.8125,0.18994140625,0.64459228515625,-0.10516357421875,0.7330322265625,-39.0,15.6875,-14.25,9.65,0.88,1.43,moving,1
4.95,615513.353369589,22,1,0,0,0,3.12,-0.24,0.61,-6.52,-1.16,-0.88,22.3125,39.0,-9.0625,0.18963623046875,0.642578125,-0.1025390625,0.73529052734375,-39.0,15.6875,-14.25,9.64,0.91,1.5,moving,1
4.96,615513.383986044,22,1,0,0,0,3.47,-0.17,1.24,-6.16,-1.1,-0.29,28.0625,30.0,-8.0625,0.1888427734375,0.64117431640625,-0.09979248046875,0.737060546875,-40.0625,14.5625,-15.0,9.63,0.93,1.54,moving,1
4.97,615513.383986044,22,1,0,0,0,3.56,0.45,1.73,-6.06,-0.5,0.15,29.25,21.3125,-7.625,0.1878662109375,0.640380859375,-0.09716796875,0.73834228515625,-40.0625,14.5625,-15.0,9.63,0.95,1.57,moving,1
4.98,615513.389315715,22,1,0,0,0,3.64,0.52,1.59,-5.97,-0.44,0.0,22.1875,11.9375,-4.9375,0.18707275390625,0.6400146484375,-0.09521484375,0.7391357421875,-40.0625,14.5625,-15.0,9.62,0.96,1.59,moving,1
4.99,615513.389315715,22,1,0,0,0,4.07,0.48,1.69,-5.54,-0.48,0.1,8.375,-5.3125,0.0,0.18658447265625,0.6405029296875,-0.09478759765625,0.7388916015625,-40.0625,14.5625,-15.0,9.62,0.96,1.58,moving,1
5.0,615513.413755535,22,1,0,0,0,4.8,0.41,1.49,-4.82,-0.54,-0.04,-10.125,-23.9375,7.6875,0.1864013671875,0.64178466796875,-0.09625244140625,0.73760986328125,-40.0625,14.5625,-15.0,9.63,0.95,1.54,moving,1
5.01,615513.413755535,22,1,0,0,0,8.08,0.26,0.76,-1.56,-0.65,-0.7,-28.1875,-49.9375,14.375,0.1866455078125,0.6444091796875,-0.09967041015625,0.73480224609375,-39.375,13.875,-16.1875,9.65,0.92,1.46,moving,1
5.02,615513.428198202,22,1,0,0,0,10.41,0.33,0.4,0.73,-0.54,-0.93,-47.1875,-82.3125,22.3125,0.1871337890625,0.64874267578125,-0.10528564453125,0.7301025390625,-39.375,13.875,-16.1875,9.67,0.87,1.33,moving,1
5.03,615513.428198202,22,1,0,0,0,13.62,0.5,0.82,3.91,-0.29,-0.32,-70.5,-113.0,30.3125,0.18817138671875,0.6544189453125,-0.11334228515625,0.7235107421875,-39.375,13.875,-16.1875,9.7,0.8,1.15,moving,1
5.04,615513.44412492,22,1,0,0,0,18.07,1.24,2.3,8.34,0.51,1.35,-97.0,-128.3125,40.4375,0.18988037109375,0.66046142578125,-0.1239013671875,0.7158203125,-39.375,13.875,-16.1875,9.73,0.72,0.94,moving,1
5.05,615513.44412492,22,1,0,0,0,17.78,2.4,0.82,8.03,1.74,0.0,-54.5,-74.5,32.3125,0.190185546875,0.66387939453125,-0.13037109375,0.71142578125,-39.375,13.875,-16.1875,9.74,0.65,0.82,moving,1
5.06,615513.474352418,22,1,0,0,0,17.95,1.78,-0.26,8.2,1.13,-1.06,-11.6875,-15.25,2.5625,0.19049072265625,0.66461181640625,-0.13153076171875,0.71044921875,-40.0625,14.5625,-15.0,9.75,0.65,0.8,moving,1
5.07,615513.474352418,22,1,0,0,0,17.95,1.78,-0.26,8.2,1.13,-1.06,-11.6875,-15.25,2.5625,0.19049072265625,0.66461181640625,-0.13153076171875,0.71044921875,-40.0625,14.5625,-15.0,9.75,0.65,0.8,moving,1
5.08,615513.480140056,22,1,0,0,0,18.55,1.38,0.87,8.8,0.72,0.02,11.1875,26.6875,-3.625,0.19036865234375,0.66314697265625,-0.130126953125,0.7120361328125,-40.0625,14.5625,-15.0,9.74,0.65,0.84,moving,1
5.08,615513.480140056,22,1,0,0,0,15.07,1.0,-0.55,5.34,0.32,-1.49,26.875,56.75,-9.8125,0.1900634765625,0.66021728515625,-0.126953125,0.7154541015625,-40.0625,14.5625,-15.0,9.73,0.67,0.94,moving,1
5.09,615513.503089112,22,1,0,0,0,14.16,1.01,-0.34,4.43,0.31,-1.35,31.0625,39.375,-8.9375,0.18927001953125,0.6583251953125,-0.12384033203125,0.7178955078125,-40.0625,14.5625,-15.0,9.72,0.7,1.0,moving,1
5.1,615513.503089112,22,1,0,0,0,13.2,0.76,0.3,3.48,0.05,-0.74,26.875,28.0625,-5.6875,0.18841552734375,0.6571044921875,-0.12139892578125,0.7197265625,-40.0625,14.5625,-15.0,9.72,0.71,1.04,moving,1
5.11,615513.518645997,22,1,0,0,0,11.04,0.54,1.47,1.33,-0.19,0.34,37.125,50.1875,-13.3125,0.1876220703125,0.65472412109375,-0.117431640625,0.7227783203125,-40.75,16.75,-13.1875,9.71,0.74,1.12,moving,1
5.12,615513.518645997,22,1,0,0,0,9.45,0.45,1.64,-0.23,-0.32,0.39,48.625,71.125,-16.125,0.18658447265625,0.65118408203125,-0.1123046875,0.72698974609375,-40.75,16.75,-13.1875,9.69,0.78,1.24,moving,1
5.13,615513.533142864,22,1,0,0,0,7.8,0.56,1.14,-1.87,-0.24,-0.2,39.25,66.25,-12.375,0.185791015625,0.647705078125,-0.1080322265625,0.73095703125,-40.75,16.75,-13.1875,9.67,0.81,1.34,moving,1
5.14,615513.533142864,22,1,0,0,0,6.65,0.34,1.13,-3.01,-0.48,-0.27,22.75,38.0625,-9.625,0.18548583984375,0.645751953125,-0.10540771484375,0.733154296875,-40.75,16.75,-13.1875,9.66,0.83,1.41,moving,1
5.15,615513.563873333,22,1,0,0,0,5.18,0.51,1.41,-4.48,-0.33,-0.01,13.5625,11.1875,-4.0,0.18505859375,0.645263671875,-0.1041259765625,0.73382568359375,-40.75,16.75,-13.1875,9.66,0.84,1.42,moving,1
5.16,615513.563873333,22,1,0,0,0,5.72,0.91,2.51,-3.94,0.07,1.1,-1.5625,-12.25,-0.875,0.18511962890625,0.64605712890625,-0.1043701171875,0.73309326171875,-40.0625,15.6875,-15.75,9.66,0.84,1.4,moving,1
5.17,615513.579179444,22,1,0,0,0,5.4,1.19,1.63,-4.26,0.36,0.23,-20.5,-2.875,4.625,0.18597412109375,0.6458740234375,-0.10601806640625,0.73284912109375,-40.0625,15.6875,-15.75,9.66,0.83,1.4,moving,1
5.18,615513.579179444,22,1,0,0,0,4.79,0.32,1.56,-4.86,-0.49,0.14,-13.625,9.875,2.125,0.18670654296875,0.64501953125,-0.1068115234375,0.7332763671875,-40.0625,15.6875,-15.75,9.66,0.82,1.42,moving,1
5.19,615513.592573569,22,1,0,0,0,4.1,0.29,1.06,-5.55,-0.53,-0.41,-0.5625,35.125,-1.8125,0.1871337890625,0.64276123046875,-0.106201171875,0.7352294921875,-40.0625,15.6875,-15.75,9.65,0.82,1.48,moving,1
5.2,615513.592573569,22,1,0,0,0,3.74,0.26,1.48,-5.9,-0.57,-0.07,10.4375,46.875,-4.5,0.18731689453125,0.63995361328125,-0.1044921875,0.73785400390625,-40.0625,15.6875,-15.75,9.64,0.83,1.55,moving,1
5.21,615513.625348512,22,1,0,0,0,3.58,0.41,1.61,-6.04,-0.43,-0.02,11.5,46.5625,-5.625,0.18743896484375,0.63720703125,-0.1026611328125,0.740478515625,-39.0,15.0,-15.75,9.63,0.85,1.63,moving,1
5.22,615513.625348512,22,1,0,0,0,3.91,0.8,2.41,-5.7,-0.05,0.72,2.5625,31.9375,-3.5,0.18780517578125,0.63519287109375,-0.101806640625,0.7421875,-39.0,15.0,-15.75,9.62,0.85,1.68,moving,1
5.23,615513.639839438,22,1,0,0,0,4.7,0.79,2.39,-4.91,-0.05,0.69,-9.0625,8.0,1.5625,0.18829345703125,0.634521484375,-0.10235595703125,0.74261474609375,-39.0,15.0,-15.75,9.61,0.85,1.7,moving,1
5.24,615513.639839438,22,1,0,0,0,5.86,0.6,2.25,-3.75,-0.22,0.57,-18.8125,-16.1875,6.8125,0.188720703125,0.63519287109375,-0.10418701171875,0.74163818359375,-39.0,15.0,-15.75,9.62,0.83,1.67,moving,1
5.25,615513.670186606,22,1,0,0,0,7.44,0.32,1.57,-2.19,-0.48,-0.04,-27.75,-38.1875,12.3125,0.18914794921875,0.6370849609375,-0.1072998046875,0.73944091796875,-39.0,15.0,-15.75,9.63,0.8,1.61,moving,1
5.26,615513.670186606,22,1,0,0,0,12.29,-0.05,0.84,2.63,-0.82,-0.66,-37.625,-68.5,20.25,0.18927001953125,0.64068603515625,-0.11199951171875,0.735595703125,-40.5,15.0,-16.1875,9.65,0.76,1.5,moving,1
5.27,615513.683945802,22,1,0,0,0,16.06,0.06,1.69,6.37,-0.63,0.35,-57.5625,-110.125,28.625,0.1895751953125,0.646484375,-0.11907958984375,0.72930908203125,-40.5,15.0,-16.1875,9.69,0.7,1.33,moving,1
5.28,615513.683945802,22,1,0,0,0,18.32,1.27,1.41,8.6,0.65,0.29,-72.3125,-129.5625,41.25,0.18963623046875,0.653076171875,-0.128173828125,0.72186279296875,-40.5,15.0,-16.1875,9.72,0.61,1.11,moving,1
5.29,615513.699188844,22,1,0,0,0,19.11,2.54,1.48,9.37,1.96,0.46,-1.6875,-57.8125,24.25,0.18756103515625,0.6563720703125,-0.130615234375,0.718994140625,-40.5,15.0,-16.1875,9.73,0.57,1.02,moving,1
5.3,615513.699188844,22,1,0,0,0,18.98,0.99,0.54,9.24,0.4,-0.46,14.9375,-5.5625,-5.6875,0.18701171875,0.65704345703125,-0.12945556640625,0.71875,-40.5,15.0,-16.1875,9.73,0.58,1.01,moving,1
5.31,615513.712832399,22,1,0,0,0,18.18,1.88,0.6,8.45,1.27,-0.42,50.75,19.1875,-9.8125,0.1849365234375,0.65679931640625,-0.1253662109375,0.72021484375,-39.25,15.75,-15.0,9.73,0.61,1.03,moving,1
5.32,615513.712832399,22,1,0,0,0,16.39,2.12,0.43,6.66,1.48,-0.66,53.375,37.8125,-13.0625,0.18310546875,0.6553955078125,-0.12066650390625,0.7227783203125,-39.25,15.75,-15.0,9.72,0.64,1.09,moving,1
5.33,615513.728210165,22,1,0,0,0,16.39,2.12,0.43,6.66,1.48,-0.66,53.375,37.8125,-13.0625,0.18310546875,0.6553955078125,-0.12066650390625,0.7227783203125,-39.25,15.75,-15.0,9.72,0.64,1.09,moving,1
5.33,615513.728210165,22,1,0,0,0,14.16,1.72,0.68,4.45,1.07,-0.45,16.25,30.0625,-6.625,0.18292236328125,0.65380859375,-0.1187744140625,0.72454833984375,-39.25,15.75,-15.0,9.71,0.65,1.14,moving,1
5.34,615513.743297812,22,1,0,0,0,12.98,1.25,1.6,3.27,0.59,0.41,-3.6875,24.1875,-3.5,0.18359375,0.65228271484375,-0.118408203125,0.725830078125,-39.25,15.75,-15.0,9.71,0.66,1.18,moving,1
5.35,615513.743297812,22,1,0,0,0,11.61,0.95,1.88,1.91,0.27,0.61,2.375,44.9375,-7.875,0.1844482421875,0.6495361328125,-0.1170654296875,0.728271484375,-39.25,15.75,-15.0,9.7,0.67,1.26,moving,1
5.36,615513.773588421,22,1,0,0,0,7.76,0.55,1.13,-1.91,-0.13,-0.23,5.875,65.9375,-7.0,0.18524169921875,0.6455078125,-0.115234375,0.73193359375,-40.375,16.5625,-13.875,9.68,0.69,1.37,moving,1
5.37,615513.773588421,22,1,0,0,0,6.41,0.17,0.77,-3.25,-0.52,-0.7,4.0,60.3125,-4.3125,0.18585205078125,0.64178466796875,-0.11376953125,0.73529052734375,-40.375,16.5625,-13.875,9.66,0.69,1.47,moving,1
5.38,615513.788442954,22,1,0,0,0,4.97,0.3,1.09,-4.67,-0.4,-0.44,5.1875,38.1875,-5.8125,0.18634033203125,0.63946533203125,-0.11248779296875,0.73736572265625,-40.375,16.5625,-13.875,9.65,0.71,1.53,moving,1
5.39,615513.788442954,22,1,0,0,0,5.19,0.24,1.65,-4.45,-0.47,0.06,0.0,34.3125,-8.875,0.187255859375,0.6373291015625,-0.1114501953125,0.7391357421875,-40.375,16.5625,-13.875,9.64,0.72,1.59,moving,1
5.4,615513.803743328,22,1,0,0,0,3.88,-0.09,1.54,-5.75,-0.83,-0.1,3.25,32.0625,-9.75,0.18798828125,0.63543701171875,-0.11016845703125,0.74078369140625,-40.375,16.5625,-13.875,9.63,0.74,1.64,moving,1
5.41,615513.803743328,22,1,0,0,0,3.44,-0.19,1.1,-6.18,-0.95,-0.61,13.5,40.4375,-10.8125,0.1883544921875,0.63311767578125,-0.1080322265625,0.74298095703125,-39.6875,17.25,-15.0,9.62,0.76,1.71,moving,1
5.42,615513.833943198,22,1,0,0,0,3.4,0.01,1.42,-6.2,-0.77,-0.35,20.75,39.5625,-11.5625,0.18829345703125,0.6309814453125,-0.1053466796875,0.74517822265625,-39.6875,17.25,-15.0,9.61,0.79,1.77,moving,1
5.43,615513.833943198,22,1,0,0,0,3.26,0.15,1.24,-6.33,-0.65,-0.58,19.875,33.1875,-10.6875,0.188232421875,0.6292724609375,-0.1029052734375,0.74700927734375,-39.6875,17.25,-15.0,9.59,0.81,1.83,moving,1
5.44,615513.848448365,22,1,0,0,0,3.31,0.06,1.49,-6.27,-0.77,-0.36,17.0,16.625,-7.875,0.18792724609375,0.6285400390625,-0.10113525390625,0.7479248046875,-39.6875,17.25,-15.0,9.59,0.83,1.85,moving,1
5.45,615513.848448365,22,1,0,0,0,3.2,0.03,1.46,-6.38,-0.81,-0.4,15.6875,5.3125,-4.375,0.18743896484375,0.62847900390625,-0.09979248046875,0.748291015625,-39.6875,17.25,-15.0,9.59,0.84,1.86,moving,1
5.46,615513.86377999,22,1,0,0,0,3.38,0.22,1.96,-6.2,-0.62,0.11,15.125,-3.0,-1.375,0.1866455078125,0.62896728515625,-0.0987548828125,0.74822998046875,-38.875,16.875,-17.6875,9.59,0.85,1.85,moving,1
5.47,615513.86377999,22,1,0,0,0,4.18,0.86,2.13,-5.41,0.01,0.29,8.0,-12.375,2.75,0.1859130859375,0.6298828125,-0.09857177734375,0.7476806640625,-38.875,16.875,-17.6875,9.59,0.85,1.83,moving,1
5.48,615513.895306357,22,1,0,0,0,5.09,0.81,1.8,-4.51,-0.01,0.01,-5.125,-29.1875,9.125,0.18536376953125,0.631591796875,-0.09991455078125,0.74615478515625,-38.875,16.875,-17.6875,9.6,0.83,1.78,moving,1
5.49,615513.895306357,22,1,0,0,0,6.75,0.54,1.48,-2.86,-0.26,-0.2,-20.25,-55.8125,16.0,0.1849365234375,0.634765625,-0.10296630859375,0.7431640625,-38.875,16.875,-17.6875,9.62,0.8,1.69,moving,1
5.5,615513.923818767,22,1,0,0,0,9.36,0.32,1.02,-0.29,-0.42,-0.51,-39.125,-96.0625,26.1875,0.1845703125,0.64007568359375,-0.1085205078125,0.73785400390625,-38.875,16.875,-17.6875,9.65,0.74,1.54,moving,1
5.51,615513.923818767,22,1,0,0,0,18.35,-0.03,1.96,8.65,-0.69,0.66,-75.375,-147.0625,40.875,0.1846923828125,0.64788818359375,-0.1180419921875,0.72955322265625,-38.5625,15.6875,-17.6875,9.69,0.65,1.3,moving,1
5.52,615513.929628582,22,1,0,0,0,22.68,-0.83,3.45,12.94,-1.35,2.44,-113.6875,-178.8125,64.5625,0.1851806640625,0.6566162109375,-0.13177490234375,0.71917724609375,-38.5625,15.6875,-17.6875,9.74,0.52,1.0,moving,1
5.53,615513.929628582,22,1,0,0,0,21.41,1.9,1.31,11.65,1.47,0.48,-39.375,-108.375,52.125,0.182861328125,0.66217041015625,-0.13897705078125,0.71331787109375,-38.5625,15.6875,-17.6875,9.76,0.43,0.82,moving,1
5.54,615513.953433961,22,1,0,0,0,21.43,1.1,1.28,11.66,0.67,0.49,-14.1875,-23.1875,1.5625,0.183349609375,0.663330078125,-0.14031982421875,0.71185302734375,-38.5625,15.6875,-17.6875,9.76,0.42,0.79,moving,1
5.55,615513.953433961,22,1,0,0,0,19.55,1.69,0.32,9.78,1.24,-0.5,16.6875,22.5,-11.4375,0.183349609375,0.662353515625,-0.13824462890625,0.713134765625,-38.5625,15.6875,-17.6875,9.76,0.44,0.82,moving,1
5.56,615513.969072185,22,1,0,0,0,17.55,1.94,-0.43,7.8,1.46,-1.35,52.1875,59.125,-14.8125,0.18194580078125,0.65966796875,-0.1331787109375,0.7169189453125,-40.0625,16.5,-12.6875,9.75,0.48,0.92,moving,1
5.57,615513.969072185,22,1,0,0,0,15.75,1.53,-0.69,6.01,1.02,-1.69,30.5625,47.4375,-10.625,0.181396484375,0.65728759765625,-0.1298828125,0.7198486328125,-40.0625,16.5,-12.6875,9.74,0.5,1.0,moving,1
5.58,615513.984117351,22,1,0,0,0,14.07,1.46,0.99,4.33,0.95,-0.04,0.1875,19.5,-2.9375,0.18182373046875,0.65606689453125,-0.12939453125,0.720947265625,-40.0625,16.5,-12.6875,9.73,0.5,1.03,moving,1
5.59,615513.984117351,22,1,0,0,0,14.07,1.46,0.99,4.33,0.95,-0.04,0.1875,19.5,-2.9375,0.18182373046875,0.65606689453125,-0.12939453125,0.720947265625,-40.0625,16.5,-12.6875,9.73,0.5,1.03,moving,1
5.59,615513.998167848,22,1,0,0,0,12.25,1.01,1.55,2.52,0.48,0.44,10.0,43.6875,-13.625,0.1826171875,0.65362548828125,-0.1273193359375,0.72332763671875,-40.0625,16.5,-12.6875,9.72,0.53,1.1,moving,1
5.6,615513.998167848,22,1,0,0,0,10.46,0.45,1.01,0.75,-0.12,-0.26,38.0,103.75,-22.0625,0.1829833984375,0.64794921875,-0.12200927734375,0.729248046875,-40.0625,16.5,-12.6875,9.7,0.58,1.28,moving,1
5.61,615514.012759401,22,1,0,0,0,4.93,1.09,1.51,-4.73,0.46,0.03,43.0,118.375,-24.4375,0.183349609375,0.64129638671875,-0.115966796875,0.7359619140625,-39.0,17.1875,-13.875,9.67,0.63,1.47,moving,1
5.62,615514.012759401,22,1,0,0,0,3.4,0.03,0.08,-6.24,-0.62,-1.51,24.0,75.3125,-14.9375,0.1837158203125,0.63702392578125,-0.11236572265625,0.74017333984375,-39.0,17.1875,-13.875,9.65,0.66,1.6,moving,1
5.63,615514.043519126,22,1,0,0,0,2.96,0.0,1.52,-6.67,-0.68,-0.1,22.9375,16.8125,-14.6875,0.18359375,0.63641357421875,-0.10980224609375,0.7410888671875,-39.0,17.1875,-13.875,9.64,0.69,1.62,moving,1
5.64,615514.043519126,22,1,0,0,0,2.94,-0.26,0.83,-6.69,-0.99,-0.82,16.75,20.5625,-18.6875,0.18402099609375,0.63555908203125,-0.10736083984375,0.7420654296875,-39.0,17.1875,-13.875,9.63,0.73,1.65,moving,1
5.65,615514.059468873,22,1,0,0,0,2.24,-0.44,1.36,-7.38,-1.21,-0.33,23.5625,31.6875,-19.5,0.18426513671875,0.634033203125,-0.104248046875,0.7437744140625,-39.0,17.1875,-13.875,9.62,0.77,1.7,moving,1
5.66,615514.059468873,22,1,0,0,0,1.34,-0.28,0.21,-8.25,-1.09,-1.6,33.25,65.0625,-19.8125,0.184326171875,0.6304931640625,-0.09991455078125,0.747314453125,-39.375,16.0625,-17.25,9.6,0.81,1.81,moving,1
5.67,615514.076232016,22,1,0,0,0,1.8,-0.09,1.47,-7.77,-0.95,-0.43,41.5,66.4375,-22.1875,0.18408203125,0.62701416015625,-0.09490966796875,0.7509765625,-39.375,16.0625,-17.25,9.57,0.86,1.91,moving,1
5.68,615514.076232016,22,1,0,0,0,1.4,0.0,0.76,-8.15,-0.91,-1.25,32.25,60.0,-19.8125,0.18408203125,0.623779296875,-0.09075927734375,0.754150390625,-39.375,16.0625,-17.25,9.55,0.9,2.01,moving,1
5.69,615514.104218263,22,1,0,0,0,1.9,-0.36,1.45,-7.63,-1.3,-0.61,18.75,34.5,-13.9375,0.18426513671875,0.62188720703125,-0.08819580078125,0.7559814453125,-39.375,16.0625,-17.25,9.53,0.93,2.06,moving,1
5.7,615514.104218263,22,1,0,0,0,2.02,-0.46,1.35,-7.5,-1.42,-0.73,9.3125,15.0,-7.1875,0.184326171875,0.62115478515625,-0.08697509765625,0.7567138671875,-39.375,16.0625,-17.25,9.53,0.95,2.09,moving,1
5.71,615514.120290813,22,1,0,0,0,2.54,-0.5,1.73,-6.99,-1.45,-0.34,5.4375,-5.3125,-0.375,0.18402099609375,0.62158203125,-0.086669921875,0.7564697265625,-39.75,15.0,-17.6875,9.53,0.95,2.08,moving,1
5.72,615514.120290813,22,1,0,0,0,3.96,-0.05,1.69,-5.57,-0.99,-0.34,-6.9375,-27.9375,7.9375,0.18365478515625,0.62322998046875,-0.0880126953125,0.75506591796875,-39.75,15.0,-17.6875,9.54,0.94,2.03,moving,1
5.73,615514.135411297,22,1,0,0,0,5.4,0.13,1.09,-4.16,-0.76,-0.85,-34.375,-56.5,18.0,0.18389892578125,0.62628173828125,-0.0921630859375,0.75201416015625,-39.75,15.0,-17.6875,9.56,0.89,1.94,moving,1
5.74,615514.135411297,22,1,0,0,0,8.13,0.07,1.07,-1.47,-0.75,-0.71,-63.6875,-103.625,28.0,0.1846923828125,0.63177490234375,-0.09954833984375,0.7462158203125,-39.75,15.0,-17.6875,9.6,0.83,1.78,moving,1
5.75,615514.165362469,22,1,0,0,0,11.64,0.15,0.45,1.98,-0.58,-1.08,-86.625,-151.3125,40.1875,0.18548583984375,0.6397705078125,-0.10986328125,0.7376708984375,-39.75,15.0,-17.6875,9.65,0.73,1.54,moving,1
5.76,615514.165362469,22,1,0,0,0,20.38,-0.13,3.59,10.67,-0.75,2.34,-110.625,-182.4375,53.6875,0.18646240234375,0.64910888671875,-0.12286376953125,0.7271728515625,-39.375,14.5625,-17.75,9.7,0.62,1.24,moving,1
5.77,615514.178497601,22,1,0,0,0,21.93,0.9,2.35,12.18,0.41,1.33,-97.1875,-138.125,69.1875,0.18603515625,0.65545654296875,-0.13519287109375,0.7193603515625,-39.375,14.5625,-17.75,9.74,0.48,1.02,moving,1
5.78,615514.178497601,22,1,0,0,0,21.93,2.9,1.11,12.18,2.48,0.2,-39.5625,-68.3125,37.0,0.1851806640625,0.65863037109375,-0.14093017578125,0.715576171875,-39.375,14.5625,-17.75,9.75,0.41,0.9,moving,1
5.79,615514.194852052,22,1,0,0,0,21.49,0.57,0.9,11.73,0.14,0.05,-0.1875,-40.1875,-12.75,0.18548583984375,0.66131591796875,-0.14080810546875,0.71307373046875,-39.375,14.5625,-17.75,9.76,0.43,0.84,moving,1
5.8,615514.194852052,22,1,0,0,0,21.25,2.26,0.52,11.49,1.78,-0.3,56.5,-1.75,-16.0,0.18316650390625,0.66253662109375,-0.13641357421875,0.71337890625,-39.375,14.5625,-17.75,9.75,0.47,0.83,moving,1
5.81,615514.22349463,22,1,0,0,0,18.91,2.01,-1.18,9.16,1.51,-2.09,41.9375,47.8125,-14.8125,0.1822509765625,0.660400390625,-0.1322021484375,0.71636962890625,-39.25,17.5625,-13.1875,9.75,0.5,0.91,moving,1
5.82,615514.22349463,22,1,0,0,0,17.6,0.92,-0.33,7.85,0.42,-1.28,-10.25,20.9375,-1.125,0.18316650390625,0.658935546875,-0.1324462890625,0.71746826171875,-39.25,17.5625,-13.1875,9.74,0.5,0.94,moving,1
5.83,615514.240855511,22,1,0,0,0,15.35,1.06,1.28,5.6,0.56,0.3,-19.0625,19.5,1.625,0.18438720703125,0.6573486328125,-0.1334228515625,0.7183837890625,-39.25,17.5625,-13.1875,9.74,0.49,0.98,moving,1
5.84,615514.240855511,22,1,0,0,0,15.35,1.06,1.28,5.6,0.56,0.3,-19.0625,19.5,1.625,0.18438720703125,0.6573486328125,-0.1334228515625,0.7183837890625,-39.25,17.5625,-13.1875,9.74,0.49,0.98,moving,1
5.84,615514.253792563,22,1,0,0,0,13.53,0.77,1.87,3.79,0.23,0.79,26.4375,58.8125,-17.25,0.18463134765625,0.654296875,-0.12982177734375,0.72174072265625,-39.25,17.5625,-13.1875,9.73,0.53,1.07,moving,1
5.85,615514.253792563,22,1,0,0,0,9.83,0.91,-0.48,0.11,0.33,-1.73,50.1875,98.75,-20.5625,0.18414306640625,0.64910888671875,-0.1239013671875,0.72760009765625,-39.25,17.5625,-13.1875,9.71,0.57,1.24,moving,1
5.86,615514.268286338,22,1,0,0,0,6.33,0.17,1.17,-3.35,-0.44,-0.23,50.625,102.375,-17.3125,0.1834716796875,0.6435546875,-0.1180419921875,0.733642578125,-39.6875,16.875,-14.25,9.68,0.61,1.4,moving,1
5.87,615514.268286338,22,1,0,0,0,4.43,0.73,0.1,-5.22,0.09,-1.44,19.25,80.375,-10.625,0.18389892578125,0.63885498046875,-0.11492919921875,0.7381591796875,-39.6875,16.875,-14.25,9.66,0.64,1.54,moving,1
5.88,615514.283990114,22,1,0,0,0,3.11,0.84,2.53,-6.54,0.18,0.93,5.75,34.0625,-7.375,0.18438720703125,0.63677978515625,-0.11358642578125,0.739990234375,-39.6875,16.875,-14.25,9.65,0.65,1.59,moving,1
5.89,615514.283990114,22,1,0,0,0,3.91,0.33,1.45,-5.73,-0.33,-0.19,-19.5,30.8125,-16.0,0.18682861328125,0.6346435546875,-0.11346435546875,0.7412109375,-39.6875,16.875,-14.25,9.64,0.67,1.65,moving,1
5.9,615514.316525473,22,1,0,0,0,3.14,-0.53,3.06,-6.49,-1.23,1.37,-9.75,24.9375,-19.875,0.18890380859375,0.633056640625,-0.11260986328125,0.7421875,-39.6875,16.875,-14.25,9.63,0.7,1.69,moving,1
5.91,615514.316525473,22,1,0,0,0,2.82,-0.16,1.73,-6.79,-0.91,-0.06,11.3125,62.5625,-22.875,0.19036865234375,0.62945556640625,-0.10955810546875,0.745361328125,-38.75,16.1875,-15.5,9.61,0.74,1.8,moving,1
5.92,615514.329189088,22,1,0,0,0,2.31,-0.31,2.07,-7.26,-1.11,0.13,26.0625,86.125,-26.1875,0.19146728515625,0.62451171875,-0.10498046875,0.7498779296875,-38.75,16.1875,-15.5,9.57,0.8,1.94,moving,1
5.93,615514.329189088,22,1,0,0,0,2.06,-0.39,1.64,-7.47,-1.25,-0.45,26.875,94.5625,-28.5625,0.19268798828125,0.6190185546875,-0.10009765625,0.7547607421875,-38.75,16.1875,-15.5,9.54,0.85,2.09,moving,1
5.94,615514.343837363,22,1,0,0,0,1.58,-0.62,1.73,-7.92,-1.52,-0.47,16.75,73.8125,-25.25,0.194091796875,0.6146240234375,-0.09637451171875,0.75848388671875,-38.75,16.1875,-15.5,9.51,0.9,2.21,moving,1
5.95,615514.343837363,22,1,0,0,0,1.64,-0.46,1.49,-7.84,-1.4,-0.79,0.1875,46.25,-19.4375,0.19573974609375,0.6116943359375,-0.09454345703125,0.7606201171875,-38.75,16.1875,-15.5,9.48,0.93,2.29,moving,1
5.96,615514.373777915,22,1,0,0,0,2.07,-0.26,2.35,-7.4,-1.21,0.03,-13.25,11.375,-10.125,0.197265625,0.61077880859375,-0.09466552734375,0.76092529296875,-38.0625,14.375,-17.25,9.48,0.94,2.31,moving,1
5.97,615514.373777915,22,1,0,0,0,4.22,0.19,2.52,-5.26,-0.74,0.23,-20.875,-15.375,2.5,0.19805908203125,0.6114501953125,-0.09649658203125,0.760009765625,-38.0625,14.375,-17.25,9.48,0.93,2.29,moving,1
5.98,615514.388573406,22,1,0,0,0,6.16,0.35,2.08,-3.34,-0.54,-0.12,-29.1875,-52.3125,12.4375,0.1983642578125,0.6142578125,-0.0999755859375,0.7572021484375,-38.0625,14.375,-17.25,9.51,0.9,2.2,moving,1
5.99,615514.388573406,22,1,0,0,0,9.17,0.39,1.36,-0.38,-0.45,-0.65,-47.0,-112.8125,22.4375,0.1983642578125,0.62066650390625,-0.10626220703125,0.75103759765625,-38.0625,14.375,-17.25,9.55,0.85,2.02,moving,1
6.0,615514.403959311,22,1,0,0,0,13.33,0.35,0.85,3.7,-0.4,-0.86,-74.0625,-190.75,38.125,0.1981201171875,0.6314697265625,-0.116455078125,0.7406005859375,-38.0625,14.375,-17.25,9.62,0.76,1.72,moving,1
6.01,615514.403959311,22,1,0,0,0,21.9,-0.67,4.79,12.2,-1.3,3.45,-116.25,-238.1875,55.0625,0.198486328125,0.64410400390625,-0.131103515625,0.72705078125,-38.75,15.75,-17.6875,9.69,0.63,1.33,moving,1
6.02,615514.435529624,22,1,0,0,0,20.34,2.02,1.08,10.61,1.5,-0.02,-75.0625,-137.3125,61.4375,0.19720458984375,0.65069580078125,-0.14166259765625,0.719482421875,-38.75,15.75,-17.6875,9.73,0.51,1.1,moving,1
6.03,615514.435529624,22,1,0,0,0,19.37,2.6,0.86,9.64,2.11,-0.23,9.4375,-4.1875,13.3125,0.19573974609375,0.65093994140625,-0.14190673828125,0.7196044921875,-38.75,15.75,-17.6875,9.73,0.49,1.1,moving,1
6.04,615514.448874269,22,1,0,0,0,16.28,0.74,0.79,6.55,0.18,-0.31,57.75,10.0,-26.4375,0.19427490234375,0.651611328125,-0.1365966796875,0.72039794921875,-38.75,15.75,-17.6875,9.72,0.55,1.11,moving,1
6.05,615514.448874269,22,1,0,0,0,17.37,2.67,1.41,7.65,2.04,0.31,125.375,0.1875,-28.125,0.18890380859375,0.654052734375,-0.12713623046875,0.72137451171875,-38.75,15.75,-17.6875,9.72,0.62,1.09,moving,1
6.06,615514.463956504,22,1,0,0,0,15.07,2.86,-0.78,5.36,2.17,-1.91,90.0,21.3125,-28.8125,0.185791015625,0.65447998046875,-0.11944580078125,0.72308349609375,-38.75,17.25,-12.6875,9.71,0.69,1.12,moving,1
6.07,615514.463956504,22,1,0,0,0,14.8,2.24,0.79,5.08,1.53,-0.33,12.625,2.8125,-5.0625,0.1854248046875,0.654541015625,-0.11834716796875,0.72332763671875,-38.75,17.25,-12.6875,9.71,0.7,1.12,moving,1
6.08,615514.496598227,22,1,0,0,0,12.68,1.13,1.18,2.97,0.44,0.03,-22.0625,15.25,2.8125,0.1866455078125,0.6531982421875,-0.11962890625,0.7239990234375,-38.75,17.25,-12.6875,9.71,0.69,1.15,moving,1
6.09,615514.496598227,22,1,0,0,0,11.99,0.97,1.71,2.28,0.26,0.5,9.75,34.1875,-9.3125,0.18701171875,0.65130615234375,-0.117919921875,0.72589111328125,-38.75,17.25,-12.6875,9.7,0.71,1.21,moving,1
6.1,615514.502526776,22,1,0,0,0,11.99,0.97,1.71,2.28,0.26,0.5,9.75,34.1875,-9.3125,0.18701171875,0.65130615234375,-0.117919921875,0.72589111328125,-38.75,17.25,-12.6875,9.7,0.71,1.21,moving,1
6.11,615514.502526776,22,1,0,0,0,9.16,1.21,0.48,-0.52,0.47,-0.81,31.375,54.0,-13.125,0.1866455078125,0.64849853515625,-0.11431884765625,0.72906494140625,-38.75,17.25,-12.6875,9.69,0.73,1.3,moving,1
6.11,615514.525077231,22,1,0,0,0,7.97,0.69,0.4,-1.69,-0.07,-0.98,34.9375,54.0625,-14.0625,0.18609619140625,0.645751953125,-0.11041259765625,0.73223876953125,-39.5625,15.75,-13.875,9.67,0.77,1.38,moving,1
6.12,615514.525077231,22,1,0,0,0,5.16,1.67,0.86,-4.49,0.87,-0.6,17.3125,51.8125,-13.3125,0.18646240234375,0.64288330078125,-0.10772705078125,0.735107421875,-39.5625,15.75,-13.875,9.66,0.79,1.47,moving,1
6.13,615514.538357383,22,1,0,0,0,4.63,1.06,1.11,-5.02,0.26,-0.38,-0.3125,15.625,0.5,0.1866455078125,0.641845703125,-0.107421875,0.7359619140625,-39.5625,15.75,-13.875,9.65,0.79,1.49,stop,1
6.14,615514.538357383,22,1,0,0,0,4.45,0.53,0.39,-5.2,-0.28,-1.1,-1.0,-0.625,-10.125,0.18731689453125,0.6419677734375,-0.10693359375,0.7357177734375,-39.5625,15.75,-13.875,9.65,0.81,1.49,stop,1
6.15,615514.554218548,22,1,0,0,0,4.11,-0.24,0.6,-5.54,-1.09,-0.88,12.75,-2.3125,-19.4375,0.18780517578125,0.64251708984375,-0.1051025390625,0.73541259765625,-39.5625,15.75,-13.875,9.65,0.85,1.49,stop,1
6.16,615514.554218548,22,1,0,0,0,3.24,-0.22,0.44,-6.4,-1.11,-1.06,23.75,13.8125,-21.4375,0.18798828125,0.6422119140625,-0.10211181640625,0.73602294921875,-39.5625,15.0625,-15.75,9.64,0.89,1.51,stop,1
6.17,615514.584303183,22,1,0,0,0,3.13,-0.05,0.96,-6.5,-0.99,-0.58,27.375,23.4375,-24.5625,0.188232421875,0.64141845703125,-0.0986328125,0.7371826171875,-39.5625,15.0625,-15.75,9.63,0.94,1.54,stop,1
6.18,615514.584303183,22,1,0,0,0,3.01,-0.23,0.79,-6.61,-1.23,-0.79,27.125,29.375,-27.3125,0.18878173828125,0.64019775390625,-0.0948486328125,0.7386474609375,-39.5625,15.0625,-15.75,9.62,0.99,1.59,stop,1
6.19,615514.599140057,22,1,0,0,0,3.06,-0.05,1.03,-6.54,-1.1,-0.59,30.25,22.9375,-26.3125,0.18896484375,0.639404296875,-0.091064453125,0.73968505859375,-39.5625,15.0625,-15.75,9.61,1.04,1.62,stop,1
6.2,615514.599140057,22,1,0,0,0,3.2,-0.03,1.05,-6.39,-1.13,-0.58,32.0625,11.625,-22.0,0.18865966796875,0.63934326171875,-0.0875244140625,0.740234375,-39.5625,15.0625,-15.75,9.6,1.09,1.63,stop,1
6.21,615514.614005332,22,1,0,0,0,3.87,0.15,1.0,-5.73,-0.96,-0.61,28.5625,-7.3125,-14.0,0.18792724609375,0.640380859375,-0.08502197265625,0.73980712890625,-40.25,14.0,-16.1875,9.6,1.12,1.62,stop,1
6.22,615514.614005332,22,1,0,0,0,5.8,0.42,0.56,-3.8,-0.71,-1.0,17.9375,-27.0,-3.375,0.18695068359375,0.6424560546875,-0.0841064453125,0.7384033203125,-40.25,14.0,-16.1875,9.61,1.13,1.57,stop,1
6.23,615514.644305137,22,1,0,0,0,7.12,0.36,0.38,-2.5,-0.75,-1.1,2.0625,-45.0,6.5625,0.18603515625,0.64532470703125,-0.0850830078125,0.7359619140625,-40.25,14.0,-16.1875,9.62,1.12,1.49,stop,1
6.24,615514.644305137,22,1,0,0,0,8.58,0.33,0.56,-1.06,-0.76,-0.83,-17.125,-57.75,13.875,0.18572998046875,0.648681640625,-0.08795166015625,0.7327880859375,-40.25,14.0,-16.1875,9.64,1.09,1.4,stop,1
6.25,615514.660542482,22,1,0,0,0,9.97,0.35,0.67,0.31,-0.69,-0.62,-38.625,-66.25,21.875,0.18597412109375,0.652099609375,-0.09271240234375,0.7291259765625,-40.25,14.0,-16.1875,9.66,1.05,1.29,stop,1
6.26,615514.660542482,22,1,0,0,0,12.64,1.01,1.42,2.95,0.02,0.24,-60.875,-75.8125,29.5625,0.18695068359375,0.6556396484375,-0.0994873046875,0.7247314453125,-40.25,13.25,-17.0,9.68,0.98,1.18,stop,1
6.27,615514.675033937,22,1,0,0,0,13.55,1.13,1.04,3.84,0.22,0.0,-78.3125,-86.375,33.375,0.18853759765625,0.6595458984375,-0.1077880859375,0.7196044921875,-40.25,13.25,-17.0,9.7,0.91,1.04,stop,1
6.28,615514.675033937,22,1,0,0,0,14.66,1.12,0.43,4.93,0.27,-0.47,-72.125,-92.625,29.9375,0.18994140625,0.663818359375,-0.11553955078125,0.71405029296875,-40.25,13.25,-17.0,9.72,0.85,0.9,stop,1
6.29,615514.705915,22,1,0,0,0,19.13,1.82,-0.73,9.39,1.01,-1.48,-36.5625,-92.875,20.0,0.1898193359375,0.66876220703125,-0.1204833984375,0.7086181640625,-40.25,13.25,-17.0,9.74,0.81,0.74,stop,1
6.3,615514.705915,22,1,0,0,0,20.3,3.07,1.08,10.54,2.28,0.51,0.0625,-104.75,13.5625,0.1878662109375,0.67510986328125,-0.123046875,0.70269775390625,-40.25,13.25,-17.0,9.75,0.79,0.57,stop,1
6.31,615514.719466066,22,1,0,0,0,19.68,4.1,2.28,9.92,3.32,1.81,21.5625,-60.5,6.375,0.185546875,0.6790771484375,-0.123046875,0.699462890625,-39.875,14.375,-13.875,9.76,0.78,0.46,stop,1
6.32,615514.719466066,22,1,0,0,0,17.45,4.59,2.2,7.69,3.78,1.7,32.9375,22.3125,-13.375,0.1846923828125,0.67840576171875,-0.11993408203125,0.700927734375,-39.875,14.375,-13.875,9.76,0.8,0.49,stop,1
6.33,615514.733837811,22,1,0,0,0,11.86,2.34,0.55,2.11,1.49,-0.07,21.8125,74.4375,-22.5,0.185546875,0.6744384765625,-0.11602783203125,0.7052001953125,-39.875,14.375,-13.875,9.74,0.84,0.62,stop,1
6.34,615514.733837811,22,1,0,0,0,10.97,1.73,1.28,1.23,0.84,0.55,7.9375,68.1875,-27.0625,0.18743896484375,0.67059326171875,-0.11285400390625,0.70880126953125,-39.875,14.375,-13.875,9.73,0.89,0.73,stop,1
6.35,615514.74864616,22,1,0,0,0,9.5,0.8,1.68,-0.22,-0.14,0.84,1.625,57.0625,-28.125,0.18963623046875,0.6673583984375,-0.11016845703125,0.711669921875,-39.875,14.375,-13.875,9.72,0.94,0.83,stop,1
6.36,615514.74864616,22,1,0,0,0,9.5,0.8,1.68,-0.22,-0.14,0.84,1.625,57.0625,-28.125,0.18963623046875,0.6673583984375,-0.11016845703125,0.711669921875,-39.875,14.375,-13.875,9.72,0.94,0.83,stop,1
6.36,615514.76447929,22,1,0,0,0,8.56,0.12,1.95,-1.14,-0.85,1.03,-5.5,52.375,-22.3125,0.19183349609375,0.66424560546875,-0.10833740234375,0.71429443359375,-39.5625,15.5,-13.1875,9.71,0.98,0.92,stop,1
6.37,615514.76447929,22,1,0,0,0,6.32,-0.42,0.87,-3.37,-1.42,-0.12,-8.5,45.1875,-15.875,0.19378662109375,0.66143798828125,-0.107177734375,0.716552734375,-39.5625,15.5,-13.1875,9.7,1.0,1.0,stop,1
6.38,615514.793692832,22,1,0,0,0,5.71,-0.34,0.34,-3.97,-1.37,-0.69,3.1875,27.0,-12.875,0.19464111328125,0.659912109375,-0.10577392578125,0.71795654296875,-39.5625,15.5,-13.1875,9.69,1.02,1.04,stop,1
6.39,615514.793692832,22,1,0,0,0,5.84,-0.16,0.02,-3.85,-1.21,-1.02,21.3125,4.625,-10.875,0.19415283203125,0.66009521484375,-0.10369873046875,0.71820068359375,-39.5625,15.5,-13.1875,9.69,1.05,1.04,stop,1
6.4,615514.80850464,22,1,0,0,0,7.29,1.03,0.62,-2.4,-0.03,-0.39,34.5,-14.75,-7.125,0.19244384765625,0.66168212890625,-0.10137939453125,0.717529296875,-39.5625,15.5,-13.1875,9.69,1.07,1.01,stop,1
6.41,615514.80850464,22,1,0,0,0,7.93,1.4,0.85,-1.76,0.33,-0.11,27.625,-23.5,-1.3125,0.19073486328125,0.66363525390625,-0.0999755859375,0.7164306640625,-39.6875,14.6875,-13.5,9.69,1.07,0.97,stop,1
6.42,615514.824563926,22,1,0,0,0,8.13,1.24,0.69,-1.57,0.17,-0.23,10.375,-22.0625,6.75,0.18951416015625,0.66510009765625,-0.10009765625,0.71533203125,-39.6875,14.6875,-13.5,9.7,1.06,0.93,stop,1
6.43,615514.824563926,22,1,0,0,0,8.11,1.23,0.29,-1.59,0.17,-0.62,1.9375,-12.6875,9.25,0.188720703125,0.66583251953125,-0.1007080078125,0.71478271484375,-39.6875,14.6875,-13.5,9.7,1.05,0.91,stop,1
6.44,615514.853659263,22,1,0,0,0,8.35,1.45,0.01,-1.35,0.41,-0.87,3.25,-10.875,8.6875,0.18792724609375,0.66650390625,-0.1011962890625,0.71429443359375,-39.6875,14.6875,-13.5,9.71,1.03,0.89,stop,1
6.45,615514.853659263,22,1,0,0,0,8.78,1.68,0.0,-0.93,0.65,-0.85,2.75,-21.75,8.375,0.18701171875,0.6678466796875,-0.10186767578125,0.71319580078125,-39.6875,14.6875,-13.5,9.71,1.02,0.85,stop,1
6.46,615514.868532228,22,1,0,0,0,9.59,1.56,0.14,-0.12,0.55,-0.65,-4.0,-33.9375,9.0,0.1864013671875,0.6697998046875,-0.10321044921875,0.7113037109375,-40.375,14.375,-14.25,9.72,1.0,0.79,stop,1
6.47,615514.868532228,22,1,0,0,0,10.82,1.2,0.3,1.09,0.21,-0.43,-13.625,-37.8125,10.5625,0.18621826171875,0.67181396484375,-0.10528564453125,0.70916748046875,-40.375,14.375,-14.25,9.72,0.98,0.73,stop,1
6.48,615514.883810549,22,1,0,0,0,11.05,1.03,0.2,1.32,0.06,-0.47,-22.8125,-34.4375,10.9375,0.1865234375,0.6734619140625,-0.10791015625,0.70709228515625,-40.375,14.375,-14.25,9.73,0.96,0.68,stop,1
6.49,615514.883810549,22,1,0,0,0,11.67,0.85,0.77,1.93,-0.09,0.14,-27.625,-34.0,8.9375,0.18731689453125,0.675048828125,-0.11065673828125,0.7049560546875,-40.375,14.375,-14.25,9.74,0.94,0.62,stop,1
6.5,615514.914151084,22,1,0,0,0,11.81,0.64,0.73,2.07,-0.28,0.14,-26.375,-22.1875,7.0625,0.18817138671875,0.6759033203125,-0.113037109375,0.7034912109375,-40.375,14.375,-14.25,9.74,0.93,0.59,stop,1
6.51,615514.914151084,22,1,0,0,0,11.31,0.77,1.06,1.57,-0.15,0.46,-9.8125,-1.0625,1.6875,0.18865966796875,0.67584228515625,-0.11376953125,0.703369140625,-39.6875,14.6875,-12.6875,9.74,0.93,0.59,stop,1
6.52,615514.928492515,22,1,0,0,0,10.18,0.88,0.76,0.44,-0.05,0.13,2.6875,19.5625,-1.6875,0.18878173828125,0.6746826171875,-0.11322021484375,0.70452880859375,-39.6875,14.6875,-12.6875,9.74,0.93,0.62,stop,1
6.53,615514.928492515,22,1,0,0,0,9.8,0.85,0.82,0.06,-0.08,0.16,3.0,18.8125,-2.3125,0.18896484375,0.673583984375,-0.112548828125,0.70562744140625,-39.6875,14.6875,-12.6875,9.73,0.93,0.65,stop,1
6.54,615514.944125978,22,1,0,0,0,9.39,0.84,0.92,-0.34,-0.09,0.25,0.5625,9.625,-0.0625,0.18902587890625,0.67303466796875,-0.11236572265625,0.7061767578125,-39.6875,14.6875,-12.6875,9.73,0.93,0.67,stop,1
6.55,615514.944125978,22,1,0,0,0,9.32,1.09,0.94,-0.41,0.15,0.26,3.75,2.625,1.125,0.188720703125,0.67291259765625,-0.11212158203125,0.7064208984375,-39.6875,14.6875,-12.6875,9.73,0.93,0.67,stop,1
6.56,615514.973996258,22,1,0,0,0,9.36,1.27,0.92,-0.37,0.34,0.24,6.5,0.0,1.75,0.188232421875,0.6729736328125,-0.11181640625,0.70648193359375,-40.375,16.1875,-12.25,9.73,0.93,0.67,stop,1
6.57,615514.973996258,22,1,0,0,0,9.23,1.27,0.62,-0.5,0.34,-0.05,6.5,1.0625,2.0,0.187744140625,0.67303466796875,-0.11151123046875,0.7066650390625,-40.375,16.1875,-12.25,9.73,0.93,0.67,stop,1
6.58,615514.988500938,22,1,0,0,0,9.32,1.19,0.48,-0.41,0.26,-0.18,6.125,-0.75,2.0625,0.187255859375,0.67315673828125,-0.11126708984375,0.7066650390625,-40.375,16.1875,-12.25,9.73,0.92,0.67,stop,1
6.59,615514.988500938,22,1,0,0,0,9.44,1.1,0.56,-0.29,0.17,-0.09,3.9375,-5.5,2.4375,0.18682861328125,0.67352294921875,-0.11126708984375,0.7064208984375,-40.375,16.1875,-12.25,9.74,0.92,0.66,stop,1
6.6,615515.0045341,22,1,0,0,0,9.59,1.07,0.57,-0.14,0.15,-0.07,0.6875,-9.3125,2.5625,0.1865234375,0.674072265625,-0.11151123046875,0.7059326171875,-40.375,16.1875,-12.25,9.74,0.92,0.65,stop,1
6.61,615515.0045341,22,1,0,0,0,9.56,1.03,0.56,-0.18,0.12,-0.07,-0.9375,-8.25,1.9375,0.1864013671875,0.674560546875,-0.11181640625,0.7054443359375,-40.0625,15.75,-12.25,9.74,0.91,0.63,stop,1
6.62,615515.035120933,22,1,0,0,0,9.32,0.96,0.53,-0.42,0.05,-0.09,-1.0625,-4.375,1.3125,0.18634033203125,0.6748046875,-0.112060546875,0.7052001953125,-40.0625,15.75,-12.25,9.74,0.91,0.62,stop,1
6.63,615515.035120933,22,1,0,0,0,9.26,0.99,0.52,-0.46,-0.05,-0.04,0.5625,-2.4375,0.875,0.1904296875,0.677978515625,-0.1072998046875,0.7017822265625,-40.0625,15.75,-12.25,9.73,1.05,0.56,stop,1
6.64,615515.048782228,22,1,0,0,0,9.38,1.01,0.59,-0.34,-0.03,0.03,3.25,-3.0625,0.5625,0.190185546875,0.67822265625,-0.107177734375,0.70166015625,-40.0625,15.75,-12.25,9.73,1.05,0.55,stop,1
6.65,615515.048782228,22,1,0,0,0,9.25,0.91,0.36,-0.48,-0.13,-0.19,3.25,0.8125,1.4375,0.18988037109375,0.67822265625,-0.1070556640625,0.7017822265625,-40.0625,15.75,-12.25,9.73,1.05,0.55,stop,1
6.66,615515.063565716,22,1,0,0,0,9.28,0.98,0.37,-0.44,-0.06,-0.18,4.0625,5.5,1.5,0.18963623046875,0.677978515625,-0.1068115234375,0.7021484375,-40.0625,16.5625,-12.6875,9.73,1.05,0.56,stop,1
6.67,615515.063565716,22,1,0,0,0,9.27,0.98,0.33,-0.45,-0.06,-0.24,4.25,4.5625,2.0625,0.18927001953125,0.67779541015625,-0.10662841796875,0.70245361328125,-40.0625,16.5625,-12.6875,9.73,1.04,0.57,stop,1
6.68,615515.095622438,22,1,0,0,0,9.47,0.95,0.4,-0.25,-0.08,-0.16,0.5,-0.125,3.3125,0.18902587890625,0.67779541015625,-0.1068115234375,0.70245361328125,-40.0625,16.5625,-12.6875,9.73,1.04,0.57,stop,1
6.69,615515.095622438,22,1,0,0,0,9.47,0.95,0.4,-0.25,-0.08,-0.16,0.5,-0.125,3.3125,0.18902587890625,0.67779541015625,-0.1068115234375,0.70245361328125,-40.0625,16.5625,-12.6875,9.73,1.04,0.57,stop,1
6.7,615515.100784181,22,1,0,0,0,9.93,0.77,0.5,0.19,-0.25,-0.05,-5.1875,-4.25,4.9375,0.18902587890625,0.67791748046875,-0.10748291015625,0.7022705078125,-40.0625,16.5625,-12.6875,9.73,1.03,0.56,stop,1
6.7,615515.100784181,22,1,0,0,0,10.12,0.76,0.67,0.39,-0.25,0.12,-9.0625,-7.3125,5.6875,0.18914794921875,0.67816162109375,-0.1085205078125,0.70184326171875,-40.0625,16.5625,-12.6875,9.73,1.02,0.55,stop,1
6.71,615515.124361655,22,1,0,0,0,10.21,0.72,0.88,0.47,-0.28,0.34,-10.625,-9.125,5.9375,0.1893310546875,0.67852783203125,-0.10968017578125,0.7012939453125,-39.375,15.0625,-12.6875,9.73,1.01,0.54,stop,1
6.72,615515.124361655,22,1,0,0,0,10.24,0.84,1.12,0.5,-0.15,0.59,-10.6875,-8.125,5.375,0.18951416015625,0.67877197265625,-0.11077880859375,0.70074462890625,-39.375,15.0625,-12.6875,9.74,1.0,0.52,stop,1
6.73,615515.139951784,22,1,0,0,0,10.15,0.84,1.11,0.41,-0.14,0.58,-10.4375,-1.625,4.625,0.1898193359375,0.67864990234375,-0.1116943359375,0.70062255859375,-39.375,15.0625,-12.6875,9.74,0.99,0.52,stop,1
6.74,615515.139951784,22,1,0,0,0,9.95,0.88,1.07,0.21,-0.09,0.53,-8.0625,6.5,3.5,0.190185546875,0.6781005859375,-0.1123046875,0.70098876953125,-39.375,15.0625,-12.6875,9.74,0.98,0.54,stop,1
6.75,615515.15360958,22,1,0,0,0,9.69,0.9,1.02,-0.04,-0.07,0.46,-4.4375,10.8125,1.875,0.1904296875,0.67730712890625,-0.11248779296875,0.70166015625,-39.375,15.0625,-12.6875,9.74,0.98,0.56,stop,1
6.76,615515.15360958,22,1,0,0,0,9.32,0.85,0.84,-0.41,-0.12,0.26,-2.0,10.625,0.9375,0.19061279296875,0.6766357421875,-0.11248779296875,0.7022705078125,-39.6875,14.6875,-12.25,9.74,0.97,0.57,stop,1
6.77,615515.187640261,22,1,0,0,0,9.24,0.81,0.71,-0.49,-0.16,0.12,-1.0625,8.3125,0.8125,0.190673828125,0.67608642578125,-0.11248779296875,0.7027587890625,-39.6875,14.6875,-12.25,9.73,0.97,0.59,stop,1
6.78,615515.187640261,22,1,0,0,0,9.2,0.76,0.62,-0.53,-0.21,0.02,-0.0625,7.1875,0.375,0.1907958984375,0.6756591796875,-0.11236572265625,0.70318603515625,-39.6875,14.6875,-12.25,9.73,0.97,0.6,stop,1
6.79,615515.199603517,22,1,0,0,0,9.23,0.75,0.51,-0.5,-0.22,-0.09,0.375,6.375,0.4375,0.19085693359375,0.67529296875,-0.11224365234375,0.70355224609375,-39.6875,14.6875,-12.25,9.73,0.97,0.61,stop,1
6.8,615515.199603517,22,1,0,0,0,9.56,0.67,0.5,-0.17,-0.29,-0.11,-1.5,2.4375,1.625,0.19085693359375,0.675048828125,-0.1124267578125,0.7037353515625,-39.6875,14.6875,-12.25,9.73,0.97,0.62,stop,1
6.81,615515.214114951,22,1,0,0,0,9.79,0.7,0.57,0.05,-0.26,-0.03,-4.1875,-3.25,3.125,0.19085693359375,0.6751708984375,-0.1129150390625,0.70355224609375,-39.375,14.375,-11.5625,9.73,0.96,0.61,stop,1
6.82,615515.214114951,22,1,0,0,0,9.96,0.76,0.67,0.22,-0.2,0.06,-5.5625,-5.5625,3.875,0.19091796875,0.6754150390625,-0.11358642578125,0.70318603515625,-39.375,14.375,-11.5625,9.74,0.96,0.6,stop,1
6.83,615515.24344271,22,1,0,0,0,10.07,0.89,0.88,0.32,-0.06,0.28,-6.3125,-4.875,3.6875,0.19097900390625,0.675537109375,-0.1142578125,0.70294189453125,-39.375,14.375,-11.5625,9.74,0.95,0.59,stop,1
6.84,615515.24344271,22,1,0,0,0,10.04,0.84,0.96,0.3,-0.1,0.36,-8.0,-2.75,3.3125,0.19122314453125,0.675537109375,-0.114990234375,0.7027587890625,-39.375,14.375,-11.5625,9.74,0.94,0.59,stop,1
6.85,615515.259562787,22,1,0,0,0,9.97,0.85,0.97,0.23,-0.08,0.37,-8.3125,0.0,2.4375,0.19158935546875,0.6754150390625,-0.11566162109375,0.70269775390625,-39.375,14.375,-11.5625,9.74,0.94,0.59,stop,1
6.86,615515.259562787,22,1,0,0,0,9.78,0.87,0.95,0.04,-0.07,0.34,-6.25,4.0625,0.75,0.19195556640625,0.675048828125,-0.11602783203125,0.702880859375,-39.375,15.5,-12.25,9.74,0.94,0.6,stop,1
6.87,615515.274630739,22,1,0,0,0,9.43,0.89,0.76,-0.3,-0.05,0.14,-2.75,7.1875,-0.9375,0.1922607421875,0.674560546875,-0.11602783203125,0.7032470703125,-39.375,15.5,-12.25,9.74,0.94,0.61,stop,1
6.88,615515.274630739,22,1,0,0,0,9.27,0.89,0.65,-0.46,-0.05,0.02,0.0625,8.625,-2.5625,0.1925048828125,0.67401123046875,-0.11572265625,0.7037353515625,-39.375,15.5,-12.25,9.74,0.94,0.63,stop,1
6.89,615515.304392458,22,1,0,0,0,9.21,0.81,0.58,-0.52,-0.13,-0.05,0.5625,7.5,-2.625,0.19268798828125,0.673583984375,-0.11541748046875,0.70416259765625,-39.375,15.5,-12.25,9.73,0.95,0.64,stop,1
6.9,615515.304392458,22,1,0,0,0,9.16,0.81,0.69,-0.57,-0.13,0.03,1.5,7.6875,-3.0625,0.19287109375,0.6732177734375,-0.114990234375,0.70452880859375,-39.375,15.5,-12.25,9.73,0.95,0.65,stop,1
6.91,615515.318784629,22,1,0,0,0,9.42,0.84,0.79,-0.31,-0.11,0.12,1.25,4.8125,-2.5625,0.1929931640625,0.67291259765625,-0.11468505859375,0.70477294921875,-39.6875,15.75,-12.25,9.73,0.96,0.66,stop,1
6.92,615515.318784629,22,1,0,0,0,9.62,0.74,0.79,-0.11,-0.21,0.12,-3.625,-1.0,-0.125,0.1932373046875,0.67291259765625,-0.11492919921875,0.7047119140625,-39.6875,15.75,-12.25,9.73,0.96,0.66,stop,1
6.93,615515.333310834,22,1,0,0,0,9.86,0.69,0.82,0.13,-0.26,0.16,-5.1875,-5.1875,0.6875,0.19342041015625,0.67315673828125,-0.1153564453125,0.704345703125,-39.6875,15.75,-12.25,9.73,0.95,0.65,stop,1
6.94,615515.333310834,22,1,0,0,0,9.92,0.79,0.97,0.18,-0.16,0.32,-4.0625,-4.6875,0.4375,0.193603515625,0.67340087890625,-0.11572265625,0.70404052734375,-39.6875,15.75,-12.25,9.73,0.95,0.65,stop,1
6.95,615515.364648561,22,1,0,0,0,9.9,0.81,0.99,0.16,-0.14,0.34,-4.625,-2.375,0.0,0.19384765625,0.6734619140625,-0.11602783203125,0.703857421875,-39.6875,15.75,-12.25,9.73,0.95,0.64,stop,1
6.96,615515.364648561,22,1,0,0,0,9.84,0.76,0.97,0.1,-0.19,0.32,-4.6875,-0.0625,-0.1875,0.19415283203125,0.67333984375,-0.1163330078125,0.70379638671875,-39.0,15.0625,-12.6875,9.73,0.95,0.64,stop,1
6.97,615515.379414471,22,1,0,0,0,9.63,0.71,0.97,-0.09,-0.24,0.32,-4.0625,2.75,-0.8125,0.1944580078125,0.67315673828125,-0.116455078125,0.70391845703125,-39.0,15.0625,-12.6875,9.73,0.95,0.65,stop,1
6.98,615515.379414471,22,1,0,0,0,9.5,0.72,0.93,-0.23,-0.23,0.27,-2.0625,4.9375,-1.375,0.1947021484375,0.67279052734375,-0.116455078125,0.70416259765625,-39.0,15.0625,-12.6875,9.73,0.96,0.66,stop,1
6.99,615515.394350181,22,1,0,0,0,9.42,0.75,0.87,-0.3,-0.21,0.2,0.0,5.375,-2.0625,0.19488525390625,0.6724853515625,-0.1162109375,0.7044677734375,-39.0,15.0625,-12.6875,9.73,0.96,0.67,stop,1
7.0,615515.394350181,22,1,0,0,0,9.35,0.71,0.81,-0.37,-0.24,0.13,0.375,5.3125,-1.8125,0.195068359375,0.67218017578125,-0.11602783203125,0.70477294921875,-39.0,15.0625,-12.6875,9.73,0.96,0.68,stop,1
7.01,615515.424111534,22,1,0,0,0,9.39,0.66,0.68,-0.33,-0.3,0.0,-0.0625,5.0625,-1.375,0.1951904296875,0.671875,-0.1158447265625,0.70501708984375,-39.375,15.5,-12.25,9.73,0.97,0.68,stop,1
7.02,615515.424111534,22,1,0,0,0,9.51,0.7,0.72,-0.21,-0.26,0.02,-0.625,3.3125,-0.375,0.19525146484375,0.671630859375,-0.1158447265625,0.7052001953125,-39.375,15.5,-12.25,9.73,0.96,0.69,stop,1
7.03,615515.438871665,22,1,0,0,0,9.68,0.71,0.78,-0.04,-0.25,0.08,-0.875,0.25,0.625,0.19525146484375,0.671630859375,-0.115966796875,0.7052001953125,-39.375,15.5,-12.25,9.73,0.96,0.69,stop,1
7.04,615515.438871665,22,1,0,0,0,9.79,0.77,0.87,0.05,-0.18,0.17,-1.4375,-1.125,1.3125,0.1951904296875,0.671630859375,-0.1162109375,0.7052001953125,-39.375,15.5,-12.25,9.73,0.96,0.69,stop,1
7.05,615515.453360557,22,1,0,0,0,9.82,0.76,0.98,0.09,-0.19,0.28,-1.9375,-0.5,1.4375,0.19525146484375,0.67156982421875,-0.11639404296875,0.7052001953125,-39.375,15.5,-12.25,9.73,0.96,0.69,stop,1
7.06,615515.453360557,22,1,0,0,0,9.84,0.79,1.08,0.1,-0.15,0.39,-1.375,0.375,1.1875,0.19525146484375,0.6715087890625,-0.1165771484375,0.70526123046875,-40.0625,15.0625,-12.6875,9.73,0.95,0.69,stop,1
7.07,615515.483797202,22,1,0,0,0,9.84,0.83,1.14,0.1,-0.11,0.44,-0.625,1.4375,0.9375,0.19525146484375,0.67138671875,-0.11663818359375,0.705322265625,-40.0625,15.0625,-12.6875,9.73,0.95,0.69,stop,1
7.08,615515.483797202,22,1,0,0,0,9.63,0.8,1.05,-0.1,-0.15,0.35,-0.5625,2.875,0.5,0.1953125,0.67120361328125,-0.11663818359375,0.70550537109375,-40.0625,15.0625,-12.6875,9.73,0.95,0.7,stop,1
7.09,615515.499689496,22,1,0,0,0,9.46,0.8,0.99,-0.26,-0.14,0.27,0.25,4.6875,-0.125,0.19537353515625,0.6708984375,-0.1165771484375,0.705810546875,-40.0625,15.0625,-12.6875,9.73,0.95,0.71,stop,1
7.1,615515.499689496,22,1,0,0,0,9.33,0.84,0.91,-0.4,-0.11,0.19,2.125,5.125,-0.75,0.1953125,0.670654296875,-0.11627197265625,0.70611572265625,-40.0625,15.0625,-12.6875,9.73,0.95,0.72,stop,1
7.11,615515.514557782,22,1,0,0,0,9.27,0.82,0.79,-0.45,-0.13,0.07,3.1875,5.3125,-1.1875,0.19525146484375,0.67034912109375,-0.115966796875,0.7064208984375,-38.5625,15.0625,-13.1875,9.73,0.96,0.72,stop,1
7.12,615515.514557782,22,1,0,0,0,9.33,0.8,0.64,-0.39,-0.15,-0.09,2.0625,3.5625,-0.25,0.1951904296875,0.670166015625,-0.11572265625,0.7066650390625,-38.5625,15.0625,-13.1875,9.73,0.96,0.73,stop,1
7.13,615515.5446709,22,1,0,0,0,9.48,0.84,0.72,-0.25,-0.11,0.0,2.0625,0.625,0.1875,0.195068359375,0.670166015625,-0.1156005859375,0.70672607421875,-38.5625,15.0625,-13.1875,9.73,0.96,0.73,stop,1
7.14,615515.5446709,22,1,0,0,0,9.6,0.89,0.86,-0.12,-0.06,0.13,2.5625,-1.9375,0.8125,0.19482421875,0.67034912109375,-0.11553955078125,0.7066650390625,-38.5625,15.0625,-13.1875,9.73,0.96,0.73,stop,1
7.15,615515.55989437,22,1,0,0,0,9.67,0.9,0.9,-0.05,-0.04,0.17,0.9375,-2.375,1.1875,0.1947021484375,0.67047119140625,-0.1156005859375,0.70654296875,-38.5625,15.0625,-13.1875,9.73,0.95,0.72,stop,1
7.16,615515.55989437,22,1,0,0,0,9.72,0.89,0.93,0.0,-0.06,0.21,0.0,-2.8125,0.9375,0.194580078125,0.670654296875,-0.11572265625,0.7064208984375,-39.375,16.1875,-12.0,9.73,0.95,0.72,stop,1
7.17,615515.574827191,22,1,0,0,0,9.76,0.86,1.05,0.02,-0.09,0.33,-0.8125,-2.8125,0.8125,0.194580078125,0.6707763671875,-0.1158447265625,0.70623779296875,-39.375,16.1875,-12.0,9.73,0.95,0.71,stop,1
7.18,615515.574827191,22,1,0,0,0,9.75,0.81,1.09,0.01,-0.13,0.37,-1.8125,-2.0625,0.875,0.194580078125,0.6708984375,-0.11602783203125,0.70611572265625,-39.375,16.1875,-12.0,9.73,0.95,0.71,stop,1
7.19,615515.603605064,22,1,0,0,0,9.57,0.73,0.91,-0.16,-0.21,0.2,-1.0,-0.5625,0.375,0.19464111328125,0.6708984375,-0.11614990234375,0.7060546875,-39.375,16.1875,-12.0,9.73,0.95,0.71,stop,1
7.2,615515.603605064,22,1,0,0,0,9.5,0.73,0.89,-0.22,-0.21,0.17,1.1875,0.5,-0.3125,0.19451904296875,0.67083740234375,-0.1160888671875,0.7061767578125,-39.375,16.1875,-12.0,9.73,0.95,0.71,stop,1
7.21,615515.618470217,22,1,0,0,0,9.49,0.73,0.87,-0.24,-0.21,0.15,2.5,0.75,-0.625,0.19439697265625,0.67071533203125,-0.115966796875,0.706298828125,-39.6875,14.6875,-12.0,9.73,0.95,0.71,stop,1
7.22,615515.618470217,22,1,0,0,0,9.51,0.76,0.76,-0.21,-0.18,0.04,2.4375,0.0625,-0.0625,0.1942138671875,0.67071533203125,-0.1158447265625,0.7064208984375,-39.6875,14.6875,-12.0,9.73,0.95,0.72,stop,1
7.23,615515.63443799,22,1,0,0,0,9.6,0.77,0.74,-0.13,-0.17,0.02,2.3125,-0.75,0.25,0.19403076171875,0.6707763671875,-0.11572265625,0.7064208984375,-39.6875,14.6875,-12.0,9.73,0.94,0.71,stop,1
7.24,615515.63443799,22,1,0,0,0,9.66,0.81,0.76,-0.06,-0.13,0.04,1.9375,-2.125,0.75,0.19384765625,0.6708984375,-0.11572265625,0.70635986328125,-39.6875,14.6875,-12.0,9.73,0.94,0.71,stop,1
7.25,615515.663387413,22,1,0,0,0,9.73,0.83,0.76,0.0,-0.1,0.04,1.4375,-2.375,1.0,0.193603515625,0.6710205078125,-0.11578369140625,0.70623779296875,-39.6875,14.6875,-12.0,9.73,0.94,0.71,stop,1
7.26,615515.663387413,22,1,0,0,0,9.74,0.88,0.74,0.0,-0.06,0.03,0.9375,-2.4375,1.1875,0.1934814453125,0.67120361328125,-0.1158447265625,0.7061767578125,-39.6875,15.5,-12.0,9.73,0.94,0.7,stop,1
7.27,615515.67808362,22,1,0,0,0,9.72,0.86,0.76,-0.01,-0.07,0.05,0.4375,-1.75,1.125,0.193359375,0.6712646484375,-0.115966796875,0.70611572265625,-39.6875,15.5,-12.0,9.73,0.93,0.7,stop,1
7.28,615515.67808362,22,1,0,0,0,9.64,0.82,0.71,-0.08,-0.1,0.0,0.0625,-0.875,0.875,0.19329833984375,0.67132568359375,-0.11602783203125,0.7060546875,-39.6875,15.5,-12.0,9.73,0.93,0.7,stop,1
7.29,615515.693298342,22,1,0,0,0,9.62,0.78,0.75,-0.11,-0.15,0.05,0.375,-0.5,0.75,0.1932373046875,0.6712646484375,-0.1160888671875,0.70611572265625,-39.6875,15.5,-12.0,9.73,0.93,0.7,stop,1
7.3,615515.693298342,22,1,0,0,0,9.53,0.74,0.82,-0.2,-0.19,0.11,0.5625,-0.625,0.3125,0.19317626953125,0.67132568359375,-0.1160888671875,0.70611572265625,-39.6875,15.5,-12.0,9.73,0.93,0.7,stop,1
7.31,615515.724633873,22,1,0,0,0,9.47,0.72,0.84,-0.26,-0.21,0.13,0.5625,-0.4375,0.1875,0.19305419921875,0.6712646484375,-0.1160888671875,0.70611572265625,-39.375,15.5,-11.5625,9.73,0.93,0.7,stop,1
7.32,615515.724633873,22,1,0,0,0,9.42,0.75,0.85,-0.3,-0.17,0.14,0.375,0.0,0.0,0.19305419921875,0.67120361328125,-0.11614990234375,0.7061767578125,-39.375,15.5,-11.5625,9.73,0.93,0.7,stop,1
7.33,615515.738139081,22,1,0,0,0,9.53,0.83,0.86,-0.19,-0.09,0.15,-0.4375,-0.5625,0.3125,0.19305419921875,0.67120361328125,-0.1162109375,0.7061767578125,-39.375,15.5,-11.5625,9.73,0.93,0.7,stop,1
7.34,615515.738139081,22,1,0,0,0,9.58,0.77,0.77,-0.15,-0.15,0.06,-2.625,-1.625,1.25,0.19305419921875,0.67120361328125,-0.116455078125,0.70611572265625,-39.375,15.5,-11.5625,9.73,0.92,0.7,stop,1
7.35,615515.75327584,22,1,0,0,0,9.63,0.72,0.67,-0.1,-0.2,-0.02,-2.3125,-3.0,1.375,0.19305419921875,0.67132568359375,-0.11676025390625,0.70599365234375,-39.375,15.5,-11.5625,9.73,0.92,0.69,stop,1
7.36,615515.75327584,22,1,0,0,0,9.66,0.79,0.69,-0.07,-0.13,0.0,-0.8125,-2.75,0.875,0.1929931640625,0.67144775390625,-0.116943359375,0.70587158203125,-39.0,15.75,-12.0,9.73,0.92,0.69,stop,1
7.37,615515.784391522,22,1,0,0,0,9.64,0.78,0.71,-0.09,-0.13,0.02,-1.5625,-3.5625,1.4375,0.19293212890625,0.671630859375,-0.11724853515625,0.7056884765625,-39.0,15.75,-12.0,9.73,0.91,0.69,stop,1
7.38,615515.784391522,22,1,0,0,0,9.64,0.76,0.76,-0.09,-0.14,0.07,-1.5625,-3.3125,1.125,0.19287109375,0.6717529296875,-0.11749267578125,0.70550537109375,-39.0,15.75,-12.0,9.73,0.91,0.68,stop,1
7.39,615515.799762168,22,1,0,0,0,9.68,0.74,0.76,-0.05,-0.16,0.08,-1.8125,-3.0,1.125,0.19287109375,0.671875,-0.11773681640625,0.705322265625,-39.0,15.75,-12.0,9.74,0.91,0.68,stop,1
7.4,615515.799762168,22,1,0,0,0,9.68,0.75,0.9,-0.05,-0.15,0.22,-2.625,-2.375,1.3125,0.19293212890625,0.67193603515625,-0.1180419921875,0.70526123046875,-39.0,15.75,-12.0,9.74,0.9,0.67,stop,1
7.41,615515.814125531,22,1,0,0,0,9.7,0.8,0.9,-0.03,-0.1,0.23,-1.5625,-3.5,0.875,0.19287109375,0.67205810546875,-0.1182861328125,0.705078125,-38.1875,15.0625,-11.5625,9.74,0.9,0.67,stop,1
7.42,615515.814125531,22,1,0,0,0,9.69,0.83,0.82,-0.04,-0.06,0.16,-0.375,-3.75,0.125,0.19281005859375,0.6722412109375,-0.118408203125,0.70489501953125,-38.1875,15.0625,-11.5625,9.74,0.9,0.66,stop,1
7.43,615515.849234865,22,1,0,0,0,9.71,0.87,0.77,-0.03,-0.03,0.11,0.1875,-3.1875,-0.375,0.19281005859375,0.67242431640625,-0.11846923828125,0.70477294921875,-38.1875,15.0625,-11.5625,9.74,0.9,0.66,stop,1
7.44,615515.849234865,22,1,0,0,0,9.57,0.82,0.69,-0.16,-0.07,0.03,-0.25,-1.75,-0.5625,0.19281005859375,0.6724853515625,-0.11846923828125,0.70465087890625,-38.1875,15.0625,-11.5625,9.74,0.9,0.66,stop,1
7.45,615515.860499636,22,1,0,0,0,9.55,0.79,0.65,-0.18,-0.1,0.0,-0.875,-1.3125,-0.3125,0.19287109375,0.67254638671875,-0.1185302734375,0.70458984375,-38.1875,15.0625,-11.5625,9.74,0.9,0.65,stop,1
7.46,615515.860499636,22,1,0,0,0,9.57,0.76,0.61,-0.17,-0.13,-0.04,-0.9375,-2.4375,-0.0625,0.19287109375,0.67266845703125,-0.11865234375,0.70440673828125,-39.6875,14.6875,-12.25,9.74,0.9,0.65,stop,1
7.47,615515.873218671,22,1,0,0,0,9.59,0.77,0.61,-0.14,-0.12,-0.03,-0.9375,-2.9375,-0.1875,0.19287109375,0.6728515625,-0.1187744140625,0.70428466796875,-39.6875,14.6875,-12.25,9.74,0.9,0.65,stop,1
7.48,615515.873218671,22,1,0,0,0,9.58,0.82,0.67,-0.15,-0.08,0.02,-0.875,-2.8125,-0.0625,0.19287109375,0.6729736328125,-0.118896484375,0.7041015625,-39.6875,14.6875,-12.25,9.74,0.9,0.64,stop,1
7.49,615515.903317141,22,1,0,0,0,9.61,0.82,0.67,-0.12,-0.08,0.02,-0.625,-3.125,-0.1875,0.19287109375,0.67315673828125,-0.1190185546875,0.70391845703125,-39.6875,14.6875,-12.25,9.74,0.9,0.64,stop,1
7.5,615515.903317141,22,1,0,0,0,9.62,0.83,0.69,-0.11,-0.06,0.05,-0.5625,-3.4375,-0.0625,0.19287109375,0.67333984375,-0.11907958984375,0.70367431640625,-39.6875,14.6875,-12.25,9.74,0.9,0.63,stop,1
7.51,615515.918486005,22,1,0,0,0,9.6,0.75,0.71,-0.14,-0.15,0.08,-1.3125,-3.125,0.0,0.19293212890625,0.67352294921875,-0.1192626953125,0.7034912109375,-39.6875,15.75,-12.0,9.74,0.9,0.63,stop,1
7.52,615515.918486005,22,1,0,0,0,9.63,0.77,0.71,-0.11,-0.12,0.08,-1.9375,-2.8125,0.0,0.1929931640625,0.67364501953125,-0.11944580078125,0.703369140625,-39.6875,15.75,-12.0,9.74,0.9,0.62,stop,1
7.53,615515.933820722,22,1,0,0,0,9.65,0.77,0.63,-0.08,-0.13,0.01,-2.375,-3.0625,0.1875,0.19305419921875,0.67376708984375,-0.11968994140625,0.70318603515625,-39.6875,15.75,-12.0,9.74,0.9,0.62,stop,1
7.54,615515.933820722,22,1,0,0,0,9.7,0.79,0.59,-0.04,-0.1,-0.01,-2.625,-3.375,0.375,0.19317626953125,0.6739501953125,-0.11993408203125,0.70294189453125,-39.6875,15.75,-12.0,9.74,0.9,0.61,stop,1
7.55,615515.964310183,22,1,0,0,0,9.73,0.83,0.59,0.0,-0.06,-0.01,-2.1875,-2.75,0.4375,0.1932373046875,0.674072265625,-0.1201171875,0.7027587890625,-39.6875,15.75,-12.0,9.74,0.89,0.61,stop,1
7.56,615515.964310183,22,1,0,0,0,9.72,0.83,0.56,-0.02,-0.06,-0.03,-1.625,-2.125,0.375,0.19329833984375,0.67413330078125,-0.1202392578125,0.70263671875,-39.6875,15.5,-11.5625,9.74,0.89,0.6,stop,1
7.57,615515.98098275,22,1,0,0,0,9.64,0.83,0.56,-0.09,-0.06,-0.04,-0.9375,-1.8125,0.125,0.193359375,0.67425537109375,-0.120361328125,0.7025146484375,-39.6875,15.5,-11.5625,9.74,0.89,0.6,stop,1
7.58,615515.98098275,22,1,0,0,0,9.69,0.85,0.67,-0.05,-0.04,0.06,0.375,-0.5,-0.5,0.193359375,0.67425537109375,-0.120361328125,0.7025146484375,-39.6875,15.5,-11.5625,9.74,0.89,0.6,stop,1
7.59,615515.99429232,22,1,0,0,0,9.67,0.8,0.67,-0.06,-0.08,0.07,-1.125,-1.5,0.125,0.19342041015625,0.67431640625,-0.1204833984375,0.70245361328125,-39.6875,15.5,-11.5625,9.74,0.89,0.6,stop,1
7.6,615515.99429232,22,1,0,0,0,9.67,0.77,0.7,-0.06,-0.12,0.1,-2.375,-2.0,0.625,0.1934814453125,0.67437744140625,-0.12066650390625,0.70233154296875,-39.6875,15.5,-11.5625,9.74,0.89,0.6,stop,1
7.61,615516.024768882,22,1,0,0,0,9.6,0.8,0.71,-0.14,-0.09,0.11,-1.0625,-1.25,0.25,0.1934814453125,0.67437744140625,-0.12078857421875,0.7022705078125,-39.0,15.75,-11.1875,9.74,0.89,0.6,stop,1
7.62,615516.024768882,22,1,0,0,0,9.57,0.76,0.65,-0.17,-0.12,0.05,-1.125,-0.6875,0.25,0.19354248046875,0.67437744140625,-0.12091064453125,0.70220947265625,-39.0,15.75,-11.1875,9.74,0.89,0.59,stop,1
7.63,615516.039634809,22,1,0,0,0,9.59,0.74,0.6,-0.15,-0.15,0.0,-1.3125,-2.0625,0.375,0.193603515625,0.67449951171875,-0.12103271484375,0.70208740234375,-39.0,15.75,-11.1875,9.74,0.89,0.59,stop,1
7.64,615516.039634809,22,1,0,0,0,9.64,0.8,0.63,-0.09,-0.08,0.03,-0.6875,-2.125,0.5,0.193603515625,0.67462158203125,-0.12109375,0.70196533203125,-39.0,15.75,-11.1875,9.74,0.89,0.59,stop,1
7.65,615516.06844267,22,1,0,0,0,9.68,0.88,0.69,-0.06,0.0,0.1,-0.375,-1.75,0.5625,0.19354248046875,0.6746826171875,-0.1212158203125,0.701904296875,-39.0,15.75,-11.1875,9.74,0.89,0.59,stop,1
7.66,615516.06844267,22,1,0,0,0,9.66,0.9,0.67,-0.08,0.0,0.09,-0.5625,-1.625,0.6875,0.1934814453125,0.67474365234375,-0.121337890625,0.70184326171875,-39.375,14.6875,-10.75,9.74,0.89,0.58,stop,1
7.67,615516.083816897,22,1,0,0,0,9.59,0.86,0.67,-0.15,-0.02,0.08,-1.0625,-0.5625,0.4375,0.19354248046875,0.67474365234375,-0.12139892578125,0.7017822265625,-39.375,14.6875,-10.75,9.74,0.89,0.58,stop,1
7.68,615516.083816897,22,1,0,0,0,9.56,0.8,0.65,-0.18,-0.08,0.06,-2.0625,0.0,0.3125,0.19366455078125,0.67474365234375,-0.12152099609375,0.7017822265625,-39.375,14.6875,-10.75,9.74,0.89,0.58,stop,1
7.69,615516.099586469,22,1,0,0,0,9.52,0.76,0.7,-0.21,-0.12,0.11,-2.625,-0.3125,0.5,0.19384765625,0.67462158203125,-0.1217041015625,0.7017822265625,-39.375,14.6875,-10.75,9.74,0.88,0.58,stop,1
7.7,615516.099586469,22,1,0,0,0,9.53,0.76,0.67,-0.21,-0.12,0.08,-1.75,-0.5,0.25,0.19390869140625,0.67462158203125,-0.121826171875,0.7017822265625,-39.375,14.6875,-10.75,9.74,0.88,0.58,stop,1
7.71,615516.114424075,22,1,0,0,0,9.52,0.78,0.67,-0.21,-0.1,0.08,-1.125,-0.6875,0.125,0.1939697265625,0.67462158203125,-0.12188720703125,0.70172119140625,-40.375,15.75,-10.75,9.74,0.88,0.58,stop,1
7.72,615516.114424075,22,1,0,0,0,9.61,0.78,0.68,-0.13,-0.1,0.09,-1.0,-1.6875,0.5,0.19403076171875,0.6746826171875,-0.12200927734375,0.70166015625,-40.375,15.75,-10.75,9.74,0.88,0.58,stop,1
7.73,615516.143573814,22,1,0,0,0,9.71,0.76,0.61,-0.03,-0.12,0.03,-1.375,-2.5625,0.75,0.19403076171875,0.67474365234375,-0.1221923828125,0.7015380859375,-40.375,15.75,-10.75,9.74,0.88,0.58,stop,1
7.74,615516.143573814,22,1,0,0,0,9.73,0.75,0.67,0.0,-0.13,0.09,-1.5,-2.625,0.8125,0.1939697265625,0.67486572265625,-0.1224365234375,0.70135498046875,-40.375,15.75,-10.75,9.74,0.88,0.57,stop,1
7.75,615516.15996745,22,1,0,0,0,9.74,0.77,0.69,0.0,-0.1,0.12,-1.125,-2.0,0.6875,0.1939697265625,0.6749267578125,-0.12255859375,0.7012939453125,-40.375,15.75,-10.75,9.74,0.88,0.57,stop,1
7.76,615516.15996745,22,1,0,0,0,9.71,0.8,0.72,-0.03,-0.07,0.15,-0.8125,-1.5625,0.4375,0.19403076171875,0.67498779296875,-0.1226806640625,0.70123291015625,-39.375,15.0625,-12.0,9.75,0.88,0.57,stop,1
7.77,615516.17451518,22,1,0,0,0,9.67,0.81,0.77,-0.07,-0.06,0.2,-0.4375,-1.0625,0.25,0.1939697265625,0.675048828125,-0.1226806640625,0.701171875,-39.375,15.0625,-12.0,9.75,0.88,0.57,stop,1
7.78,615516.17451518,22,1,0,0,0,9.62,0.82,0.78,-0.12,-0.05,0.2,-0.1875,0.0,0.0,0.1939697265625,0.67498779296875,-0.12274169921875,0.70123291015625,-39.375,15.0625,-12.0,9.75,0.88,0.57,stop,1
7.79,615516.203846479,22,1,0,0,0,9.57,0.84,0.74,-0.17,-0.03,0.17,0.0,0.375,-0.1875,0.1939697265625,0.6749267578125,-0.12274169921875,0.70123291015625,-39.375,15.0625,-12.0,9.75,0.87,0.57,stop,1
7.8,615516.203846479,22,1,0,0,0,9.51,0.89,0.69,-0.23,0.01,0.12,0.875,0.75,-0.625,0.1939697265625,0.67486572265625,-0.12261962890625,0.70135498046875,-39.375,15.0625,-12.0,9.74,0.88,0.57,stop,1
7.81,615516.219194704,22,1,0,0,0,9.47,0.88,0.7,-0.27,0.0,0.12,1.125,1.375,-0.875,0.1939697265625,0.6748046875,-0.1224365234375,0.70147705078125,-37.5625,15.5,-12.25,9.74,0.88,0.58,stop,1
7.82,615516.219194704,22,1,0,0,0,9.47,0.81,0.65,-0.27,-0.06,0.06,0.0,0.4375,-0.5,0.1939697265625,0.67474365234375,-0.1224365234375,0.70147705078125,-37.5625,15.5,-12.25,9.74,0.88,0.58,stop,1
7.83,615516.233896202,22,1,0,0,0,9.46,0.72,0.61,-0.28,-0.15,0.03,-0.125,-0.375,-0.5,0.1939697265625,0.67474365234375,-0.1224365234375,0.70147705078125,-37.5625,15.5,-12.25,9.74,0.88,0.58,stop,1
7.84,615516.233896202,22,1,0,0,0,9.49,0.67,0.63,-0.25,-0.2,0.05,1.0,-0.375,-0.75,0.1939697265625,0.67474365234375,-0.12237548828125,0.7015380859375,-37.5625,15.5,-12.25,9.74,0.88,0.58,stop,1
7.85,615516.264643354,22,1,0,0,0,9.49,0.65,0.61,-0.25,-0.22,0.03,0.8125,-2.125,-0.25,0.19384765625,0.67486572265625,-0.12237548828125,0.701416015625,-37.5625,15.5,-12.25,9.74,0.88,0.58,stop,1
7.86,615516.264643354,22,1,0,0,0,9.49,0.66,0.65,-0.25,-0.22,0.07,2.0,-2.25,0.0,0.19366455078125,0.67498779296875,-0.12237548828125,0.70135498046875,-39.0,16.875,-11.5625,9.74,0.88,0.57,stop,1
7.87,615516.279034101,22,1,0,0,0,9.74,0.86,0.83,0.0,-0.01,0.25,2.8125,-1.0625,0.3125,0.1934814453125,0.675048828125,-0.1221923828125,0.70135498046875,-39.0,16.875,-11.5625,9.75,0.88,0.57,stop,1
7.88,615516.279034101,22,1,0,0,0,9.89,0.91,0.9,0.14,0.04,0.32,0.0625,-2.375,1.6875,0.193359375,0.67510986328125,-0.12237548828125,0.7012939453125,-39.0,16.875,-11.5625,9.75,0.87,0.57,stop,1
7.89,615516.293613731,22,1,0,0,0,9.94,0.99,0.91,0.19,0.11,0.35,-0.8125,-3.125,2.1875,0.1932373046875,0.67529296875,-0.12261962890625,0.701171875,-39.0,16.875,-11.5625,9.75,0.87,0.56,stop,1
7.9,615516.293613731,22,1,0,0,0,9.92,1.16,0.78,0.17,0.29,0.21,0.375,-0.4375,1.25,0.193115234375,0.67529296875,-0.1226806640625,0.701171875,-39.0,16.875,-11.5625,9.75,0.87,0.56,stop,1
7.91,615516.325691246,22,1,0,0,0,9.95,1.13,0.77,0.2,0.25,0.2,0.625,1.0625,0.5,0.193115234375,0.67523193359375,-0.12261962890625,0.70123291015625,-39.6875,15.5,-11.5625,9.75,0.87,0.56,stop,1
7.92,615516.325691246,22,1,0,0,0,9.96,1.13,0.86,0.21,0.26,0.28,-0.625,1.9375,0.5625,0.193115234375,0.675048828125,-0.1226806640625,0.70135498046875,-39.6875,15.5,-11.5625,9.75,0.86,0.57,stop,1
7.93,615516.340560102,22,1,0,0,0,9.96,1.12,0.92,0.21,0.25,0.35,-1.1875,2.75,0.375,0.1932373046875,0.67486572265625,-0.1226806640625,0.7015380859375,-39.6875,15.5,-11.5625,9.75,0.86,0.57,stop,1
7.94,615516.340560102,22,1,0,0,0,9.96,1.11,0.96,0.21,0.24,0.38,-0.6875,3.75,0.0,0.19329833984375,0.67462158203125,-0.1226806640625,0.7017822265625,-39.6875,15.5,-11.5625,9.75,0.86,0.58,stop,1
7.95,615516.354652102,22,1,0,0,0,9.98,1.07,0.99,0.23,0.2,0.39,-0.25,3.0,-0.1875,0.1934814453125,0.67425537109375,-0.12249755859375,0.70208740234375,-39.6875,15.5,-11.5625,9.74,0.87,0.59,stop,1
7.96,615516.354652102,22,1,0,0,0,10.03,1.08,1.01,0.28,0.2,0.4,-1.4375,2.375,-0.0625,0.1937255859375,0.6739501953125,-0.1224365234375,0.70233154296875,-39.6875,16.875,-12.0,9.74,0.87,0.6,stop,1
7.97,615516.38531706,22,1,0,0,0,10.24,1.02,0.97,0.49,0.15,0.36,-2.9375,1.875,0.0625,0.19403076171875,0.67364501953125,-0.1224365234375,0.70257568359375,-39.6875,16.875,-12.0,9.74,0.87,0.61,stop,1
7.98,615516.38531706,22,1,0,0,0,10.24,1.02,0.97,0.49,0.15,0.36,-2.9375,1.875,0.0625,0.19403076171875,0.67364501953125,-0.1224365234375,0.70257568359375,-39.6875,16.875,-12.0,9.74,0.87,0.61,stop,1
7.98,615516.39103463,22,1,0,0,0,10.84,0.99,1.08,1.09,0.11,0.47,-5.9375,-0.9375,1.4375,0.19427490234375,0.673583984375,-0.1229248046875,0.70245361328125,-39.6875,16.875,-12.0,9.74,0.87,0.61,stop,1
7.99,615516.39103463,22,1,0,0,0,11.08,1.0,1.24,1.33,0.13,0.64,-10.125,-2.8125,3.0625,0.19464111328125,0.67352294921875,-0.123779296875,0.7022705078125,-39.6875,16.875,-12.0,9.74,0.86,0.6,stop,1
8.0,615516.414878217,22,1,0,0,0,11.21,1.03,1.19,1.46,0.17,0.58,-12.0625,-1.4375,3.4375,0.19512939453125,0.67333984375,-0.124755859375,0.70208740234375,-39.6875,16.875,-12.0,9.74,0.85,0.6,stop,1
8.01,615516.414878217,22,1,0,0,0,11.39,0.87,0.51,1.64,0.01,-0.09,-11.375,0.5,3.375,0.19561767578125,0.67315673828125,-0.12567138671875,0.7020263671875,-38.1875,15.75,-12.0,9.75,0.85,0.61,stop,1
8.02,615516.428173057,22,1,0,0,0,11.58,0.81,0.32,1.83,-0.03,-0.29,-9.8125,1.9375,3.1875,0.19598388671875,0.67279052734375,-0.12640380859375,0.70208740234375,-38.1875,15.75,-12.0,9.75,0.84,0.61,stop,1
8.03,615516.428173057,22,1,0,0,0,11.86,0.75,0.21,2.1,-0.08,-0.4,-7.375,1.4375,3.4375,0.19622802734375,0.67254638671875,-0.1270751953125,0.7021484375,-38.1875,15.75,-12.0,9.75,0.83,0.61,stop,1
8.04,615516.443611371,22,1,0,0,0,12.1,0.78,0.23,2.35,-0.05,-0.38,-3.5625,-1.125,3.625,0.19622802734375,0.6724853515625,-0.12750244140625,0.7021484375,-38.1875,15.75,-12.0,9.75,0.83,0.61,stop,1
8.05,615516.443611371,22,1,0,0,0,12.47,0.87,0.36,2.72,0.04,-0.24,0.875,-3.375,3.0625,0.1959228515625,0.67266845703125,-0.127685546875,0.70196533203125,-38.1875,15.75,-12.0,9.75,0.82,0.61,stop,1
8.06,615516.473787966,22,1,0,0,0,12.34,0.89,0.39,2.59,0.06,-0.21,3.0625,-4.8125,2.9375,0.19549560546875,0.6729736328125,-0.12774658203125,0.7017822265625,-38.5625,15.5,-11.5625,9.75,0.82,0.6,stop,1
8.07,615516.473787966,22,1,0,0,0,11.97,0.91,0.39,2.21,0.09,-0.2,3.125,-3.0,2.4375,0.19512939453125,0.6732177734375,-0.12774658203125,0.70172119140625,-38.5625,15.5,-11.5625,9.75,0.81,0.59,stop,1
8.08,615516.490572838,22,1,0,0,0,10.57,1.09,0.45,0.81,0.27,-0.14,5.3125,4.1875,0.375,0.19488525390625,0.67303466796875,-0.12738037109375,0.7020263671875,-38.5625,15.5,-11.5625,9.75,0.81,0.6,stop,1
8.09,615516.490572838,22,1,0,0,0,9.82,1.13,0.5,0.07,0.31,-0.12,7.625,14.625,-1.5,0.1947021484375,0.67230224609375,-0.1265869140625,0.70294189453125,-38.5625,15.5,-11.5625,9.75,0.82,0.62,stop,1
8.1,615516.504100304,22,1,0,0,0,9.11,1.13,0.6,-0.63,0.31,-0.05,9.0625,21.375,-3.6875,0.19464111328125,0.671142578125,-0.12542724609375,0.7042236328125,-38.5625,15.5,-11.5625,9.74,0.82,0.66,stop,1
8.11,615516.504100304,22,1,0,0,0,8.42,1.12,0.7,-1.32,0.28,0.0,12.375,28.5,-6.0625,0.194580078125,0.669677734375,-0.12384033203125,0.7059326171875,-39.375,16.5625,-12.25,9.74,0.84,0.7,stop,1
8.12,615516.535571739,22,1,0,0,0,6.89,1.14,0.48,-2.84,0.29,-0.28,18.6875,37.9375,-9.0,0.1944580078125,0.667724609375,-0.12152099609375,0.70819091796875,-39.375,16.5625,-12.25,9.73,0.85,0.77,stop,1
8.13,615516.535571739,22,1,0,0,0,6.03,1.01,0.21,-3.69,0.12,-0.63,26.625,44.25,-11.4375,0.194091796875,0.66558837890625,-0.118408203125,0.71087646484375,-39.375,16.5625,-12.25,9.73,0.88,0.84,moving,1
8.14,615516.549338259,22,1,0,0,0,5.38,0.78,0.06,-4.33,-0.12,-0.85,31.375,45.4375,-11.9375,0.1934814453125,0.66339111328125,-0.114990234375,0.713623046875,-39.375,16.5625,-12.25,9.72,0.9,0.91,moving,1
8.15,615516.549338259,22,1,0,0,0,4.81,0.54,-0.15,-4.89,-0.38,-1.14,31.5625,42.9375,-10.4375,0.19268798828125,0.661376953125,-0.1116943359375,0.71624755859375,-39.375,16.5625,-12.25,9.71,0.93,0.98,moving,1
8.16,615516.564016523,22,1,0,0,0,4.19,0.39,-0.11,-5.5,-0.55,-1.15,31.0,40.625,-9.125,0.19189453125,0.659423828125,-0.10858154296875,0.71868896484375,-39.0,15.0625,-13.875,9.7,0.95,1.04,moving,1
8.17,615516.564016523,22,1,0,0,0,4.08,0.38,0.06,-5.61,-0.59,-1.04,32.1875,37.625,-9.5,0.19097900390625,0.65765380859375,-0.1053466796875,0.72100830078125,-39.0,15.0625,-13.875,9.69,0.97,1.1,moving,1
8.18,615516.593356489,22,1,0,0,0,4.07,0.43,0.32,-5.61,-0.56,-0.83,31.25,32.4375,-10.0625,0.19012451171875,0.65625,-0.102294921875,0.7230224609375,-39.0,15.0625,-13.875,9.68,0.99,1.15,moving,1
8.19,615516.593356489,22,1,0,0,0,3.95,0.51,0.91,-5.72,-0.49,-0.27,24.375,25.6875,-8.0,0.189453125,0.65509033203125,-0.099853515625,0.72454833984375,-39.0,15.0625,-13.875,9.68,1.01,1.19,moving,1
8.2,615516.608664757,22,1,0,0,0,3.76,0.49,1.13,-5.91,-0.53,-0.08,14.5625,18.25,-5.75,0.18914794921875,0.65423583984375,-0.0982666015625,0.72564697265625,-39.0,15.0625,-13.875,9.67,1.02,1.22,moving,1
8.21,615516.608664757,22,1,0,0,0,3.54,0.48,1.34,-6.12,-0.54,0.1,5.375,11.75,-4.0625,0.189208984375,0.65362548828125,-0.0975341796875,0.72625732421875,-39.0,14.0,-15.0,9.67,1.03,1.24,moving,1
8.22,615516.62309363,22,1,0,0,0,3.46,0.44,1.39,-6.2,-0.59,0.14,-4.25,4.3125,-2.8125,0.189697265625,0.65325927734375,-0.0975341796875,0.7264404296875,-39.0,14.0,-15.0,9.67,1.04,1.24,moving,1
8.23,615516.62309363,22,1,0,0,0,4.81,0.07,0.74,-4.85,-0.96,-0.49,-16.125,-8.125,-0.75,0.1905517578125,0.653564453125,-0.09869384765625,0.725830078125,-39.0,14.0,-15.0,9.67,1.03,1.23,moving,1
8.24,615516.65423454,22,1,0,0,0,6.68,-0.11,0.14,-2.99,-1.13,-1.05,-27.1875,-28.375,3.8125,0.191650390625,0.65484619140625,-0.10107421875,0.72406005859375,-39.0,14.0,-15.0,9.67,1.02,1.19,moving,1
8.25,615516.65423454,22,1,0,0,0,6.68,-0.11,0.14,-2.99,-1.13,-1.05,-27.1875,-28.375,3.8125,0.191650390625,0.65484619140625,-0.10107421875,0.72406005859375,-39.0,14.0,-15.0,9.67,1.02,1.19,moving,1
8.25,615516.66042912,22,1,0,0,0,9.5,0.01,-0.33,-0.18,-0.98,-1.44,-37.4375,-56.4375,9.75,0.19268798828125,0.65771484375,-0.10498046875,0.72064208984375,-39.0,14.0,-15.0,9.69,1.0,1.1,moving,1
8.26,615516.66042912,22,1,0,0,0,19.76,0.75,0.34,10.04,-0.2,-0.6,-55.6875,-98.0625,17.875,0.19384765625,0.6627197265625,-0.11114501953125,0.71478271484375,-38.5625,13.6875,-14.6875,9.71,0.96,0.95,moving,1
8.27,615516.683846479,22,1,0,0,0,22.65,0.72,3.11,12.91,-0.15,2.38,-98.5,-140.75,39.25,0.1956787109375,0.66937255859375,-0.12188720703125,0.70623779296875,-38.5625,13.6875,-14.6875,9.73,0.88,0.72,moving,1
8.28,615516.683846479,22,1,0,0,0,21.43,3.13,2.05,11.67,2.38,1.57,-114.375,-157.5,66.0625,0.19659423828125,0.67633056640625,-0.135498046875,0.69683837890625,-38.5625,13.6875,-14.6875,9.76,0.75,0.47,moving,1
8.29,615516.699961876,22,1,0,0,0,20.95,2.89,0.35,11.18,2.21,-0.01,-76.8125,-66.125,37.5,0.19805908203125,0.67852783203125,-0.14349365234375,0.69268798828125,-38.5625,13.6875,-14.6875,9.77,0.68,0.37,moving,1
8.3,615516.699961876,22,1,0,0,0,19.51,0.95,0.25,9.74,0.27,-0.11,-55.0,-7.75,0.8125,0.20111083984375,0.67803955078125,-0.14697265625,0.6915283203125,-38.5625,13.6875,-14.6875,9.77,0.68,0.36,moving,1
8.31,615516.713429242,22,1,0,0,0,18.16,1.39,-0.89,8.39,0.7,-1.25,2.625,1.5,-4.375,0.2012939453125,0.67803955078125,-0.14654541015625,0.69158935546875,-40.0625,15.75,-11.1875,9.77,0.68,0.36,moving,1
8.32,615516.713429242,22,1,0,0,0,16.3,1.23,-0.71,6.53,0.51,-1.14,15.9375,34.75,-12.6875,0.2015380859375,0.6763916015625,-0.14422607421875,0.693603515625,-40.0625,15.75,-11.1875,9.77,0.71,0.42,moving,1
8.33,615516.744074669,22,1,0,0,0,13.93,1.56,0.87,4.17,0.82,0.37,13.6875,46.3125,-14.875,0.20220947265625,0.67401123046875,-0.1417236328125,0.69622802734375,-40.0625,15.75,-11.1875,9.76,0.73,0.5,moving,1
8.34,615516.744074669,22,1,0,0,0,11.86,1.45,2.19,2.1,0.68,1.59,27.0,57.25,-12.0625,0.2020263671875,0.671142578125,-0.13836669921875,0.69970703125,-40.0625,15.75,-11.1875,9.75,0.76,0.59,moving,1
8.35,615516.758275515,22,1,0,0,0,9.37,1.71,1.37,-0.37,0.9,0.65,61.75,79.375,-22.5,0.20074462890625,0.6676025390625,-0.1318359375,0.7047119140625,-40.0625,15.75,-11.1875,9.74,0.8,0.72,moving,1
8.36,615516.758275515,22,1,0,0,0,8.24,0.81,0.46,-1.49,-0.03,-0.37,59.4375,74.0625,-19.9375,0.1993408203125,0.664306640625,-0.125732421875,0.70928955078125,-39.375,16.875,-11.5625,9.73,0.84,0.84,moving,1
8.37,615516.77330412,22,1,0,0,0,5.41,0.56,-0.23,-4.3,-0.3,-1.14,48.6875,47.5625,-6.625,0.19744873046875,0.66229248046875,-0.12152099609375,0.71246337890625,-39.375,16.875,-11.5625,9.72,0.86,0.91,moving,1
8.38,615516.77330412,22,1,0,0,0,4.67,0.41,0.0,-5.04,-0.47,-0.96,40.1875,29.125,-4.6875,0.19573974609375,0.66119384765625,-0.11822509765625,0.7144775390625,-39.375,16.875,-11.5625,9.71,0.88,0.95,moving,1
8.39,615516.803896202,22,1,0,0,0,3.82,0.45,-0.19,-5.89,-0.44,-1.18,36.75,20.4375,-9.9375,0.1944580078125,0.66064453125,-0.114990234375,0.71588134765625,-39.375,16.875,-11.5625,9.71,0.9,0.98,moving,1
8.4,615516.803896202,22,1,0,0,0,3.57,0.53,0.17,-6.13,-0.4,-0.83,28.1875,15.125,-13.4375,0.19384765625,0.66033935546875,-0.1121826171875,0.716796875,-39.375,16.875,-11.5625,9.71,0.93,1.0,moving,1
8.41,615516.817515017,22,1,0,0,0,3.26,0.34,0.59,-6.43,-0.61,-0.43,19.4375,16.0625,-14.875,0.19378662109375,0.6597900390625,-0.10986328125,0.7176513671875,-39.5625,15.5,-13.1875,9.7,0.96,1.03,moving,1
8.42,615516.817515017,22,1,0,0,0,3.13,0.24,0.49,-6.56,-0.74,-0.56,17.0625,19.4375,-15.3125,0.1939697265625,0.65899658203125,-0.1075439453125,0.71868896484375,-39.5625,15.5,-13.1875,9.69,0.99,1.06,moving,1
8.43,615516.840969363,22,1,0,0,0,3.03,0.23,0.48,-6.65,-0.77,-0.62,13.625,30.6875,-14.3125,0.1943359375,0.657470703125,-0.1053466796875,0.7203369140625,-39.5625,15.5,-13.1875,9.69,1.01,1.11,moving,1
8.44,615516.840969363,22,1,0,0,0,2.82,-0.01,0.04,-6.86,-1.05,-1.11,8.0625,33.4375,-12.5625,0.19500732421875,0.65557861328125,-0.10357666015625,0.72210693359375,-39.5625,15.5,-13.1875,9.68,1.04,1.16,moving,1
8.45,615516.864490196,22,1,0,0,0,2.85,-0.07,0.31,-6.81,-1.13,-0.9,3.375,28.9375,-10.6875,0.19573974609375,0.6539306640625,-0.10223388671875,0.7236328125,-39.5625,15.5,-13.1875,9.67,1.05,1.21,moving,1
8.46,615516.864490196,22,1,0,0,0,2.95,-0.22,0.51,-6.7,-1.29,-0.72,-0.4375,15.9375,-8.875,0.1964111328125,0.65301513671875,-0.1014404296875,0.724365234375,-39.5625,13.6875,-15.0,9.66,1.07,1.24,moving,1
8.47,615516.880308434,22,1,0,0,0,3.5,-0.24,1.06,-6.16,-1.33,-0.18,-8.9375,5.8125,-5.75,0.1973876953125,0.65252685546875,-0.10162353515625,0.7244873046875,-39.5625,13.6875,-15.0,9.66,1.08,1.25,moving,1
8.48,615516.880308434,22,1,0,0,0,5.41,-0.09,1.54,-4.24,-1.17,0.28,-21.5,1.6875,-0.125,0.1986083984375,0.65203857421875,-0.10296630859375,0.72442626953125,-39.5625,13.6875,-15.0,9.66,1.07,1.25,moving,1
8.49,615516.899730309,22,1,0,0,0,7.24,-0.01,1.29,-2.42,-1.07,0.04,-35.6875,-5.4375,5.5625,0.20025634765625,0.6517333984375,-0.1055908203125,0.723876953125,-39.5625,13.6875,-15.0,9.66,1.06,1.25,moving,1
8.5,615516.899730309,22,1,0,0,0,7.24,-0.01,1.29,-2.42,-1.07,0.04,-35.6875,-5.4375,5.5625,0.20025634765625,0.6517333984375,-0.1055908203125,0.723876953125,-39.5625,13.6875,-15.0,9.66,1.06,1.25,moving,1
8.5,615516.909039513,22,1,0,0,0,10.25,0.1,0.51,0.57,-0.92,-0.69,-53.1875,-31.0625,12.0625,0.20220947265625,0.65264892578125,-0.11016845703125,0.7218017578125,-39.5625,13.6875,-15.0,9.67,1.02,1.21,moving,1
8.51,615516.909039513,22,1,0,0,0,18.85,0.02,0.97,9.15,-0.94,-0.1,-79.1875,-88.5625,22.5625,0.20440673828125,0.65655517578125,-0.1180419921875,0.71636962890625,-40.0625,15.75,-15.5,9.69,0.97,1.07,moving,1
8.52,615516.924664757,22,1,0,0,0,21.72,0.03,2.42,11.99,-0.84,1.58,-117.1875,-152.875,40.125,0.20703125,0.66351318359375,-0.13037109375,0.70703125,-40.0625,15.75,-15.5,9.73,0.88,0.83,moving,1
8.53,615516.924664757,22,1,0,0,0,20.7,2.71,1.55,10.94,1.95,0.96,-138.5,-155.3125,64.5,0.209228515625,0.66973876953125,-0.14544677734375,0.697509765625,-40.0625,15.75,-15.5,9.75,0.75,0.59,moving,1
8.54,615516.954373579,22,1,0,0,0,20.19,2.07,-0.15,10.42,1.39,-0.66,-93.125,-52.75,42.4375,0.21142578125,0.67071533203125,-0.154541015625,0.6939697265625,-40.0625,15.75,-15.5,9.76,0.67,0.51,moving,1
8.55,615516.954373579,22,1,0,0,0,19.07,3.12,-0.33,9.31,2.44,-0.89,-16.4375,27.625,-1.1875,0.21282958984375,0.668701171875,-0.15496826171875,0.6953125,-40.0625,15.75,-15.5,9.76,0.67,0.56,moving,1
8.56,615516.96854232,22,1,0,0,0,17.5,1.59,-1.11,7.73,0.89,-1.72,38.75,30.5625,-15.9375,0.2119140625,0.66778564453125,-0.151123046875,0.69732666015625,-40.375,16.1875,-11.1875,9.76,0.7,0.61,moving,1
8.57,615516.96854232,22,1,0,0,0,16.97,0.79,0.01,7.22,0.05,-0.61,12.5625,13.375,-17.6875,0.21246337890625,0.66748046875,-0.1490478515625,0.69793701171875,-40.375,16.1875,-11.1875,9.75,0.74,0.63,moving,1
8.58,615516.983346886,22,1,0,0,0,13.58,1.53,1.76,3.83,0.77,1.07,-7.9375,28.3125,-8.625,0.21380615234375,0.66571044921875,-0.14849853515625,0.6993408203125,-40.375,16.1875,-11.1875,9.75,0.75,0.68,moving,1
8.59,615516.983346886,22,1,0,0,0,11.21,1.35,1.57,1.47,0.57,0.78,14.25,67.5625,-10.0,0.2144775390625,0.6619873046875,-0.14581298828125,0.7032470703125,-40.375,16.1875,-11.1875,9.74,0.77,0.79,moving,1
8.6,615517.013639366,22,1,0,0,0,8.92,0.97,1.06,-0.8,0.15,0.12,49.5,86.8125,-22.5625,0.21405029296875,0.6578369140625,-0.13983154296875,0.70843505859375,-40.375,16.1875,-11.1875,9.72,0.81,0.93,moving,1
8.61,615517.013639366,22,1,0,0,0,7.24,0.69,-0.02,-2.47,-0.16,-1.09,61.25,82.5,-18.6875,0.21270751953125,0.654052734375,-0.1334228515625,0.71356201171875,-39.6875,17.5625,-11.1875,9.71,0.86,1.06,moving,1
8.62,615517.028523725,22,1,0,0,0,4.61,0.39,1.16,-5.07,-0.49,0.0,57.8125,69.5,-11.625,0.2109375,0.65093994140625,-0.12786865234375,0.71795654296875,-39.6875,17.5625,-11.1875,9.69,0.89,1.17,moving,1
8.63,615517.028523725,22,1,0,0,0,3.91,1.14,1.44,-5.76,0.21,0.17,52.625,64.25,-13.5,0.20953369140625,0.64801025390625,-0.12261962890625,0.721923828125,-39.6875,17.5625,-11.1875,9.67,0.92,1.27,moving,1
8.64,615517.04347449,22,1,0,0,0,3.16,0.06,1.16,-6.5,-0.88,-0.16,15.75,33.75,-8.3125,0.20947265625,0.646240234375,-0.12054443359375,0.72381591796875,-39.6875,17.5625,-11.1875,9.67,0.94,1.32,moving,1
8.65,615517.04347449,22,1,0,0,0,3.02,0.32,1.83,-6.64,-0.62,0.5,-2.6875,0.5625,-2.875,0.2098388671875,0.646240234375,-0.12054443359375,0.7237548828125,-39.6875,17.5625,-11.1875,9.66,0.94,1.33,moving,1
8.66,615517.073379519,22,1,0,0,0,2.97,-0.64,0.5,-6.69,-1.59,-0.8,-9.625,-9.5,-6.5625,0.210693359375,0.646728515625,-0.1209716796875,0.7230224609375,-39.375,16.1875,-13.5,9.67,0.95,1.31,moving,1
8.67,615517.073379519,22,1,0,0,0,3.47,-0.82,1.18,-6.19,-1.79,-0.14,-6.6875,6.5625,-7.5,0.21160888671875,0.646240234375,-0.120849609375,0.72314453125,-39.375,16.1875,-13.5,9.66,0.96,1.32,moving,1
8.68,615517.089567792,22,1,0,0,0,3.06,-0.69,0.3,-6.59,-1.68,-1.06,1.4375,24.5625,-7.3125,0.2122802734375,0.644775390625,-0.119873046875,0.72442626953125,-39.375,16.1875,-13.5,9.66,0.98,1.37,moving,1
8.69,615517.089567792,22,1,0,0,0,3.23,-0.55,1.2,-6.41,-1.54,-0.23,1.0,38.5,-5.625,0.21295166015625,0.6424560546875,-0.1187744140625,0.72650146484375,-39.375,16.1875,-13.5,9.65,0.99,1.43,moving,1
8.7,615517.104967776,22,1,0,0,0,3.29,-0.1,2.24,-6.34,-1.09,0.74,-2.4375,38.0,-4.75,0.21380615234375,0.6400146484375,-0.11798095703125,0.728515625,-39.375,16.1875,-13.5,9.63,0.99,1.49,moving,1
8.71,615517.104967776,22,1,0,0,0,3.66,0.17,2.74,-5.96,-0.82,1.2,-13.6875,26.3125,-4.3125,0.215087890625,0.63812255859375,-0.11810302734375,0.729736328125,-40.0625,14.375,-13.1875,9.63,1.0,1.54,moving,1
8.72,615517.134914879,22,1,0,0,0,4.05,0.26,2.71,-5.57,-0.72,1.13,-30.75,18.875,-1.0,0.217041015625,0.6363525390625,-0.11968994140625,0.73046875,-40.0625,14.375,-13.1875,9.62,0.99,1.58,moving,1
8.73,615517.134914879,22,1,0,0,0,6.12,0.26,1.5,-3.49,-0.71,-0.09,-38.125,7.1875,4.375,0.218994140625,0.6351318359375,-0.1221923828125,0.7305908203125,-40.0625,14.375,-13.1875,9.62,0.97,1.6,moving,1
8.74,615517.148581831,22,1,0,0,0,8.51,0.03,0.73,-1.11,-0.91,-0.85,-37.3125,-11.4375,10.8125,0.22021484375,0.635009765625,-0.12542724609375,0.729736328125,-40.0625,14.375,-13.1875,9.63,0.94,1.58,moving,1
8.75,615517.148581831,22,1,0,0,0,11.7,0.09,-0.12,2.05,-0.81,-1.63,-40.875,-52.0,17.0,0.2208251953125,0.6373291015625,-0.12994384765625,0.72674560546875,-40.0625,14.375,-13.1875,9.64,0.9,1.5,moving,1
8.76,615517.163964195,22,1,0,0,0,11.7,0.09,-0.12,2.05,-0.81,-1.63,-40.875,-52.0,17.0,0.2208251953125,0.6373291015625,-0.12994384765625,0.72674560546875,-40.0625,14.375,-13.1875,9.64,0.9,1.5,moving,1
8.76,615517.163964195,22,1,0,0,0,21.06,-0.17,2.03,11.38,-1.02,0.7,-61.5625,-113.375,29.0625,0.22113037109375,0.6429443359375,-0.13763427734375,0.72021484375,-39.375,15.0625,-15.0,9.67,0.84,1.32,moving,1
8.77,615517.180666385,22,1,0,0,0,22.53,1.17,1.82,12.81,0.44,0.74,-111.625,-156.875,50.75,0.22222900390625,0.64996337890625,-0.1505126953125,0.71099853515625,-39.375,15.0625,-15.0,9.71,0.73,1.07,moving,1
8.78,615517.180666385,22,1,0,0,0,21.09,3.21,1.69,11.35,2.61,0.77,-89.9375,-99.8125,68.5625,0.22174072265625,0.6534423828125,-0.16192626953125,0.70538330078125,-39.375,15.0625,-15.0,9.74,0.6,0.91,moving,1
8.79,615517.193616702,22,1,0,0,0,20.47,1.59,0.56,10.72,1.04,-0.34,-32.0,-8.875,25.8125,0.22186279296875,0.65301513671875,-0.16552734375,0.7049560546875,-39.375,15.0625,-15.0,9.74,0.55,0.9,moving,1
8.8,615517.193616702,22,1,0,0,0,17.1,2.24,-0.2,7.36,1.66,-1.13,32.0625,18.5625,-10.8125,0.220947265625,0.65264892578125,-0.16259765625,0.70623779296875,-39.375,15.0625,-15.0,9.74,0.57,0.93,moving,1
8.81,615517.223588016,22,1,0,0,0,15.6,1.48,0.44,5.86,0.86,-0.55,53.3125,39.5,-21.5,0.21978759765625,0.65155029296875,-0.1573486328125,0.70880126953125,-38.5625,17.5625,-11.5625,9.73,0.62,0.99,moving,1
8.82,615517.223588016,22,1,0,0,0,14.06,1.94,0.23,4.34,1.28,-0.81,53.3125,39.5,-21.5,0.2186279296875,0.650390625,-0.15203857421875,0.71136474609375,-38.5625,17.5625,-11.5625,9.72,0.66,1.05,moving,1
8.83,615517.240267784,22,1,0,0,0,12.61,1.34,1.49,2.9,0.65,0.35,14.4375,51.4375,-10.6875,0.21917724609375,0.64764404296875,-0.1495361328125,0.71429443359375,-38.5625,17.5625,-11.5625,9.71,0.68,1.14,moving,1
8.84,615517.240267784,22,1,0,0,0,9.59,0.87,2.03,-0.11,0.16,0.8,14.6875,53.0,-12.375,0.21978759765625,0.644775390625,-0.14691162109375,0.71722412109375,-38.5625,17.5625,-11.5625,9.7,0.71,1.22,moving,1
8.85,615517.253365034,22,1,0,0,0,8.01,0.83,1.71,-1.67,0.08,0.39,32.375,58.4375,-16.4375,0.2197265625,0.64190673828125,-0.14288330078125,0.7205810546875,-38.5625,17.5625,-11.5625,9.68,0.74,1.32,moving,1
8.86,615517.253365034,22,1,0,0,0,6.56,0.8,1.38,-3.1,0.04,-0.01,23.75,51.0625,-9.0625,0.2196044921875,0.6392822265625,-0.139892578125,0.72357177734375,-40.0625,19.0625,-12.6875,9.67,0.76,1.4,moving,1
8.87,615517.283521894,22,1,0,0,0,4.84,-0.28,1.59,-4.81,-1.07,0.1,23.75,51.0625,-9.0625,0.219482421875,0.6365966796875,-0.13690185546875,0.72650146484375,-40.0625,19.0625,-12.6875,9.66,0.78,1.49,moving,1
8.88,615517.283521894,22,1,0,0,0,3.27,0.5,1.25,-6.38,-0.31,-0.27,25.625,25.875,-10.625,0.21905517578125,0.63555908203125,-0.1341552734375,0.72802734375,-40.0625,19.0625,-12.6875,9.65,0.81,1.53,moving,1
8.89,615517.299039594,22,1,0,0,0,4.08,0.98,2.42,-5.55,0.14,0.86,10.375,15.6875,-11.1875,0.2193603515625,0.6348876953125,-0.13262939453125,0.72882080078125,-40.0625,19.0625,-12.6875,9.64,0.83,1.55,moving,1
8.9,615517.299039594,22,1,0,0,0,3.14,0.42,1.49,-6.49,-0.43,-0.09,5.0625,18.1875,-13.3125,0.22015380859375,0.63397216796875,-0.13116455078125,0.7296142578125,-40.0625,19.0625,-12.6875,9.63,0.85,1.58,moving,1
8.91,615517.31468144,22,1,0,0,0,3.62,0.05,1.65,-6.01,-0.82,0.03,15.6875,25.8125,-13.5,0.22039794921875,0.6328125,-0.12896728515625,0.73095703125,-37.875,15.5,-14.6875,9.63,0.88,1.62,moving,1
8.92,615517.31468144,22,1,0,0,0,3.21,0.02,1.08,-6.4,-0.89,-0.59,21.75,31.5625,-13.0625,0.22039794921875,0.63134765625,-0.126220703125,0.73272705078125,-37.875,15.5,-14.6875,9.61,0.91,1.67,moving,1
8.93,615517.343715254,22,1,0,0,0,3.41,-0.1,1.5,-6.19,-1.04,-0.21,19.75,25.0625,-11.8125,0.2203369140625,0.6302490234375,-0.12384033203125,0.73406982421875,-37.875,15.5,-14.6875,9.6,0.94,1.71,moving,1
8.94,615517.343715254,22,1,0,0,0,3.59,0.07,2.49,-6.01,-0.88,0.76,6.0625,10.875,-8.3125,0.22064208984375,0.6297607421875,-0.122802734375,0.734619140625,-37.875,15.5,-14.6875,9.6,0.95,1.73,moving,1
8.95,615517.358988691,22,1,0,0,0,3.76,0.22,2.59,-5.84,-0.73,0.85,-13.5625,0.3125,-1.75,0.22149658203125,0.6295166015625,-0.12353515625,0.73443603515625,-37.875,15.5,-14.6875,9.6,0.95,1.73,moving,1
8.96,615517.358988691,22,1,0,0,0,4.36,0.23,2.76,-5.24,-0.7,1.04,-23.375,-11.8125,4.1875,0.222412109375,0.6297607421875,-0.12548828125,0.73358154296875,-39.375,16.875,-15.5,9.6,0.94,1.71,moving,1
8.97,615517.375732588,22,1,0,0,0,5.06,0.04,2.44,-4.55,-0.87,0.75,-22.0625,-22.6875,8.1875,0.22283935546875,0.63067626953125,-0.1278076171875,0.7322998046875,-39.375,16.875,-15.5,9.61,0.92,1.68,moving,1
8.98,615517.375732588,22,1,0,0,0,8.05,-0.25,1.21,-1.57,-1.15,-0.39,-21.125,-46.0,11.1875,0.2227783203125,0.633056640625,-0.13067626953125,0.729736328125,-39.375,16.875,-15.5,9.63,0.89,1.61,moving,1
8.99,615517.404959069,22,1,0,0,0,10.6,-0.1,0.49,0.94,-0.96,-0.97,-28.3125,-88.6875,17.875,0.22216796875,0.637939453125,-0.13519287109375,0.724853515625,-39.375,16.875,-15.5,9.65,0.85,1.46,moving,1
9.0,615517.404959069,22,1,0,0,0,14.72,0.15,0.67,5.03,-0.64,-0.56,-49.25,-142.6875,28.125,0.221435546875,0.6456298828125,-0.14263916015625,0.716796875,-39.375,16.875,-15.5,9.69,0.79,1.23,moving,1
9.01,615517.41050045,22,1,0,0,0,14.72,0.15,0.67,5.03,-0.64,-0.56,-49.25,-142.6875,28.125,0.221435546875,0.6456298828125,-0.14263916015625,0.716796875,-39.375,16.875,-15.5,9.69,0.79,1.23,moving,1
9.02,615517.41050045,22,1,0,0,0,23.68,0.45,3.32,13.94,-0.24,2.36,-84.4375,-170.9375,48.4375,0.22100830078125,0.65399169921875,-0.1539306640625,0.70697021484375,-40.0625,16.1875,-14.6875,9.73,0.7,0.95,moving,1
9.02,615517.433731692,22,1,0,0,0,22.67,2.86,0.58,12.92,2.26,-0.21,-18.75,-87.8125,54.625,0.217529296875,0.65826416015625,-0.159912109375,0.7027587890625,-40.0625,16.1875,-14.6875,9.75,0.6,0.8,moving,1
9.03,615517.433731692,22,1,0,0,0,21.75,3.67,0.82,11.99,3.09,0.03,4.75,-8.0,11.5,0.2164306640625,0.65869140625,-0.160400390625,0.70257568359375,-40.0625,16.1875,-14.6875,9.75,0.58,0.79,moving,1
9.04,615517.448145307,22,1,0,0,0,20.94,2.64,-0.05,11.19,2.03,-0.87,45.5625,21.5625,-9.9375,0.2147216796875,0.6583251953125,-0.15667724609375,0.7042236328125,-40.0625,16.1875,-14.6875,9.75,0.6,0.82,moving,1
9.05,615517.448145307,22,1,0,0,0,16.38,1.72,-1.09,6.64,1.07,-1.99,66.9375,46.375,-21.6875,0.21282958984375,0.656982421875,-0.150390625,0.7073974609375,-40.0625,16.1875,-14.6875,9.74,0.65,0.89,moving,1
9.06,615517.463677005,22,1,0,0,0,14.42,1.49,0.09,4.69,0.8,-0.89,37.375,55.75,-20.1875,0.212646484375,0.654541015625,-0.14593505859375,0.710693359375,-39.6875,17.25,-11.5625,9.73,0.69,0.98,moving,1
9.07,615517.463677005,22,1,0,0,0,13.22,1.89,0.7,3.5,1.17,-0.36,8.9375,52.875,-14.4375,0.21368408203125,0.65155029296875,-0.1435546875,0.71356201171875,-39.6875,17.25,-11.5625,9.72,0.72,1.07,moving,1
9.08,615517.493569949,22,1,0,0,0,11.62,1.17,1.57,1.91,0.41,0.4,16.1875,58.75,-18.0625,0.21466064453125,0.6484375,-0.14044189453125,0.71673583984375,-39.6875,17.25,-11.5625,9.7,0.75,1.17,moving,1
9.09,615517.493569949,22,1,0,0,0,8.59,-0.15,0.34,-1.09,-0.94,-0.95,34.375,76.6875,-18.8125,0.21478271484375,0.64453125,-0.1357421875,0.72113037109375,-39.6875,17.25,-11.5625,9.68,0.79,1.29,moving,1
9.1,615517.508457034,22,1,0,0,0,6.8,0.06,1.52,-2.86,-0.76,0.08,40.3125,83.9375,-14.375,0.21441650390625,0.64013671875,-0.130859375,0.72607421875,-39.6875,17.25,-11.5625,9.66,0.82,1.43,moving,1
9.11,615517.508457034,22,1,0,0,0,4.63,0.4,0.97,-5.0,-0.44,-0.57,15.0,65.8125,-9.5625,0.2149658203125,0.6363525390625,-0.12811279296875,0.72967529296875,-39.0,17.5625,-12.25,9.64,0.84,1.54,moving,1
9.12,615517.52437598,22,1,0,0,0,3.05,-0.43,1.1,-6.57,-1.3,-0.51,5.0625,46.6875,-10.25,0.2158203125,0.633544921875,-0.1263427734375,0.732177734375,-39.0,17.5625,-12.25,9.63,0.86,1.62,moving,1
9.13,615517.52437598,22,1,0,0,0,2.74,-0.04,1.29,-6.87,-0.93,-0.36,10.6875,25.4375,-10.25,0.2161865234375,0.63226318359375,-0.1246337890625,0.73345947265625,-39.0,17.5625,-12.25,9.62,0.88,1.66,moving,1
9.14,615517.555540408,22,1,0,0,0,2.67,0.21,1.57,-6.94,-0.7,-0.11,23.6875,13.5,-12.3125,0.2158203125,0.6319580078125,-0.1221923828125,0.7342529296875,-39.0,17.5625,-12.25,9.61,0.91,1.68,moving,1
9.15,615517.555540408,22,1,0,0,0,2.86,0.27,1.66,-6.74,-0.66,-0.02,30.0,10.3125,-12.375,0.21502685546875,0.63201904296875,-0.119384765625,0.73492431640625,-39.0,17.5625,-12.25,9.61,0.94,1.69,moving,1
9.16,615517.569757164,22,1,0,0,0,2.96,0.38,1.23,-6.64,-0.58,-0.47,32.625,12.375,-10.5,0.21405029296875,0.63189697265625,-0.116455078125,0.7357177734375,-38.5625,15.5,-15.5,9.6,0.97,1.7,moving,1
9.17,615517.569757164,22,1,0,0,0,3.29,0.41,1.22,-6.3,-0.58,-0.49,30.6875,9.875,-8.375,0.2130126953125,0.6319580078125,-0.11383056640625,0.7364501953125,-38.5625,15.5,-15.5,9.6,0.99,1.71,moving,1
9.18,615517.584047285,22,1,0,0,0,3.44,0.44,1.27,-6.15,-0.57,-0.43,17.9375,0.4375,-5.6875,0.21240234375,0.63232421875,-0.11236572265625,0.73651123046875,-38.5625,15.5,-15.5,9.6,1.01,1.71,moving,1
9.19,615517.584047285,22,1,0,0,0,4.68,0.7,2.0,-4.91,-0.3,0.3,-2.9375,-10.6875,0.1875,0.21240234375,0.6329345703125,-0.11279296875,0.73590087890625,-38.5625,15.5,-15.5,9.6,1.0,1.69,moving,1
9.2,615517.613734541,22,1,0,0,0,5.61,0.85,2.14,-3.99,-0.13,0.47,-24.6875,-21.8125,7.8125,0.21307373046875,0.6337890625,-0.11517333984375,0.73455810546875,-38.5625,15.5,-15.5,9.61,0.98,1.66,moving,1
9.21,615517.613734541,22,1,0,0,0,6.76,0.85,1.95,-2.86,-0.09,0.33,-43.25,-35.75,13.375,0.2142333984375,0.6351318359375,-0.119384765625,0.732421875,-39.0,14.6875,-16.5625,9.62,0.95,1.61,moving,1
9.22,615517.628685469,22,1,0,0,0,8.13,0.74,1.43,-1.51,-0.16,-0.09,-57.5,-59.875,19.0625,0.215576171875,0.6376953125,-0.125244140625,0.72882080078125,-39.0,14.6875,-16.5625,9.64,0.9,1.52,moving,1
9.23,615517.628685469,22,1,0,0,0,12.27,0.17,1.01,2.6,-0.67,-0.36,-69.3125,-86.4375,24.9375,0.2169189453125,0.6416015625,-0.13262939453125,0.72369384765625,-39.0,14.6875,-16.5625,9.67,0.84,1.38,moving,1
9.24,615517.64380526,22,1,0,0,0,15.32,-0.02,1.3,5.62,-0.79,0.07,-89.625,-99.3125,33.375,0.2186279296875,0.64569091796875,-0.14202880859375,0.71771240234375,-39.0,14.6875,-16.5625,9.69,0.76,1.23,moving,1
9.25,615517.64380526,22,1,0,0,0,18.34,0.01,1.15,8.62,-0.65,0.07,-98.6875,-96.625,45.6875,0.2200927734375,0.64923095703125,-0.15264892578125,0.71185302734375,-39.0,14.6875,-16.5625,9.72,0.67,1.08,moving,1
9.26,615517.674219852,22,1,0,0,0,19.64,1.73,1.5,9.91,1.12,0.5,-20.25,-48.0625,30.375,0.21875,0.65142822265625,-0.15655517578125,0.70941162109375,-39.375,15.0625,-14.6875,9.73,0.61,1.0,moving,1
9.27,615517.674219852,22,1,0,0,0,19.64,1.73,1.5,9.91,1.12,0.5,-20.25,-48.0625,30.375,0.21875,0.65142822265625,-0.15655517578125,0.70941162109375,-39.375,15.0625,-14.6875,9.73,0.61,1.0,moving,1
9.28,615517.679688846,22,1,0,0,0,19.01,1.91,0.86,9.28,1.28,-0.12,10.9375,-6.1875,-1.25,0.21807861328125,0.65203857421875,-0.1558837890625,0.709228515625,-39.375,15.0625,-14.6875,9.73,0.62,0.99,moving,1
9.28,615517.679688846,22,1,0,0,0,18.72,2.88,0.32,8.98,2.23,-0.68,50.5,11.1875,-11.5,0.216064453125,0.6524658203125,-0.15191650390625,0.7103271484375,-39.375,15.0625,-14.6875,9.73,0.64,1.0,moving,1
9.29,615517.713945356,22,1,0,0,0,16.4,1.9,-0.87,6.67,1.23,-1.89,44.125,13.1875,-10.375,0.21441650390625,0.652587890625,-0.1483154296875,0.71142578125,-39.375,15.0625,-14.6875,9.72,0.67,1.02,moving,1
9.3,615517.713945356,22,1,0,0,0,13.86,1.11,0.85,4.14,0.43,-0.2,4.6875,19.4375,-3.5,0.214599609375,0.65155029296875,-0.1474609375,0.7125244140625,-39.375,15.0625,-14.6875,9.72,0.68,1.05,moving,1
9.31,615517.719817711,22,1,0,0,0,12.38,0.55,1.88,2.66,-0.14,0.76,-3.75,37.0,-6.0,0.21563720703125,0.64923095703125,-0.14666748046875,0.7144775390625,-39.6875,16.5625,-11.5625,9.71,0.69,1.11,moving,1
9.32,615517.719817711,22,1,0,0,0,10.75,0.74,1.73,1.04,0.02,0.53,18.4375,50.75,-14.0625,0.21612548828125,0.6466064453125,-0.143798828125,0.71728515625,-39.6875,16.5625,-11.5625,9.7,0.71,1.2,moving,1
9.33,615517.734624433,22,1,0,0,0,8.88,0.82,1.54,-0.8,0.07,0.26,28.875,47.6875,-16.5625,0.21612548828125,0.64434814453125,-0.14013671875,0.72003173828125,-39.6875,16.5625,-11.5625,9.69,0.75,1.27,moving,1
9.34,615517.734624433,22,1,0,0,0,6.22,0.77,0.86,-3.45,0.0,-0.47,20.6875,33.75,-13.1875,0.21624755859375,0.64276123046875,-0.137451171875,0.721923828125,-39.6875,16.5625,-11.5625,9.68,0.77,1.33,moving,1
9.35,615517.764538455,22,1,0,0,0,5.81,-0.16,1.09,-3.86,-0.96,-0.28,14.3125,25.0625,-12.75,0.21649169921875,0.6416015625,-0.1353759765625,0.7232666015625,-39.6875,16.5625,-11.5625,9.67,0.8,1.37,moving,1
9.36,615517.764538455,22,1,0,0,0,5.59,0.89,1.39,-4.07,0.07,-0.02,5.75,29.875,-11.0625,0.21722412109375,0.63995361328125,-0.1337890625,0.72479248046875,-39.375,16.875,-12.6875,9.66,0.82,1.42,moving,1
9.37,615517.778616621,22,1,0,0,0,4.24,0.24,1.73,-5.41,-0.6,0.24,8.125,41.875,-10.625,0.21795654296875,0.6375732421875,-0.13189697265625,0.72705078125,-39.375,16.875,-12.6875,9.65,0.84,1.49,moving,1
9.38,615517.778616621,22,1,0,0,0,3.74,0.46,1.04,-5.89,-0.4,-0.52,8.875,49.3125,-12.1875,0.21881103515625,0.634765625,-0.12969970703125,0.7296142578125,-39.375,16.875,-12.6875,9.64,0.86,1.57,moving,1
9.39,615517.79369381,22,1,0,0,0,3.17,0.25,1.38,-6.44,-0.63,-0.26,13.5625,43.8125,-11.9375,0.21929931640625,0.63238525390625,-0.12738037109375,0.73199462890625,-39.375,16.875,-12.6875,9.62,0.89,1.64,moving,1
9.4,615517.79369381,22,1,0,0,0,3.54,0.21,1.11,-6.07,-0.7,-0.58,17.125,30.625,-10.1875,0.2193603515625,0.630859375,-0.1251220703125,0.733642578125,-39.375,16.875,-12.6875,9.61,0.91,1.69,moving,1
9.41,615517.824496707,22,1,0,0,0,4.18,0.37,1.61,-5.43,-0.55,-0.08,14.75,5.1875,-7.6875,0.21905517578125,0.630859375,-0.1236572265625,0.73394775390625,-39.375,15.75,-13.875,9.61,0.93,1.7,moving,1
9.42,615517.824496707,22,1,0,0,0,4.39,0.56,1.85,-5.22,-0.36,0.18,1.5625,-13.5,-2.625,0.218994140625,0.6318359375,-0.1236572265625,0.73321533203125,-39.375,15.75,-13.875,9.61,0.93,1.67,moving,1
9.43,615517.838912479,22,1,0,0,0,4.9,0.48,2.32,-4.71,-0.44,0.66,-12.5,-16.125,1.1875,0.21942138671875,0.632568359375,-0.12481689453125,0.732177734375,-39.375,15.75,-13.875,9.62,0.93,1.65,moving,1
9.44,615517.838912479,22,1,0,0,0,5.23,0.54,2.46,-4.38,-0.37,0.81,-21.3125,-5.8125,2.8125,0.22039794921875,0.63250732421875,-0.12646484375,0.731689453125,-39.375,15.75,-13.875,9.62,0.91,1.64,moving,1
9.45,615517.855018599,22,1,0,0,0,5.99,0.52,2.33,-3.62,-0.38,0.7,-26.5,-8.25,3.9375,0.22149658203125,0.63250732421875,-0.1285400390625,0.73101806640625,-39.375,15.75,-13.875,9.62,0.9,1.63,moving,1
9.46,615517.855018599,22,1,0,0,0,6.56,0.33,1.77,-3.07,-0.54,0.18,-32.0625,-33.5625,6.5,0.22247314453125,0.6339111328125,-0.131591796875,0.72894287109375,-39.0,16.875,-15.75,9.63,0.88,1.58,moving,1
9.47,615517.884246911,22,1,0,0,0,8.59,-0.16,1.77,-1.06,-1.02,0.29,-43.0,-63.125,9.3125,0.2235107421875,0.636962890625,-0.13604736328125,0.72509765625,-39.0,16.875,-15.75,9.65,0.85,1.48,moving,1
9.48,615517.884246911,22,1,0,0,0,13.2,-1.22,0.02,3.52,-2.03,-1.33,-52.5,-79.375,18.875,0.22430419921875,0.64068603515625,-0.1419677734375,0.720458984375,-39.0,16.875,-15.75,9.67,0.81,1.35,moving,1
9.49,615517.899464237,22,1,0,0,0,16.89,-0.78,-0.32,7.19,-1.53,-1.53,-49.9375,-88.5625,27.4375,0.2242431640625,0.64495849609375,-0.14837646484375,0.71539306640625,-39.0,16.875,-15.75,9.7,0.75,1.21,moving,1
9.5,615517.899464237,22,1,0,0,0,19.07,0.12,0.83,9.34,-0.56,-0.24,-27.5625,-83.25,34.6875,0.2225341796875,0.64910888671875,-0.1536865234375,0.71099853515625,-39.0,16.875,-15.75,9.72,0.69,1.07,moving,1
9.51,615517.913071577,22,1,0,0,0,20.1,2.49,1.27,10.36,1.83,0.28,21.6875,-49.0,18.4375,0.219482421875,0.65234375,-0.15435791015625,0.7088623046875,-39.0,17.5625,-12.25,9.73,0.66,0.99,moving,1
9.52,615517.913071577,22,1,0,0,0,20.1,2.49,1.27,10.36,1.83,0.28,21.6875,-49.0,18.4375,0.219482421875,0.65234375,-0.15435791015625,0.7088623046875,-39.0,17.5625,-12.25,9.73,0.66,0.99,moving,1
9.52,615517.928399051,22,1,0,0,0,20.33,2.59,0.48,10.59,1.93,-0.46,14.5,-22.875,1.75,0.21826171875,0.65399169921875,-0.15399169921875,0.707763671875,-39.0,17.5625,-12.25,9.73,0.66,0.95,moving,1
9.53,615517.928399051,22,1,0,0,0,19.67,2.01,-0.77,9.93,1.34,-1.71,33.375,-8.3125,-1.625,0.21636962890625,0.6551513671875,-0.1519775390625,0.70770263671875,-39.0,17.5625,-12.25,9.73,0.67,0.93,moving,1
9.54,615517.949977664,22,1,0,0,0,17.04,1.33,-0.61,7.31,0.64,-1.57,55.625,19.125,-7.6875,0.2138671875,0.65509033203125,-0.14776611328125,0.70941162109375,-39.0,17.5625,-12.25,9.73,0.69,0.96,moving,1
9.55,615517.949977664,22,1,0,0,0,13.47,2.82,1.94,3.74,2.09,0.91,50.9375,42.75,-12.9375,0.21234130859375,0.653564453125,-0.14306640625,0.71221923828125,-39.0,17.5625,-12.25,9.72,0.72,1.02,moving,1
9.56,615517.975483727,22,1,0,0,0,12.17,2.27,2.37,2.46,1.5,1.26,31.625,51.5625,-23.1875,0.21258544921875,0.6512451171875,-0.1387939453125,0.71514892578125,-40.0625,16.875,-11.5625,9.71,0.76,1.11,moving,1
9.57,615517.975483727,22,1,0,0,0,9.73,1.76,1.62,0.04,0.95,0.42,18.875,54.75,-23.4375,0.213623046875,0.6484375,-0.13525390625,0.718017578125,-40.0625,16.875,-11.5625,9.69,0.81,1.2,moving,1
9.58,615517.989426598,22,1,0,0,0,8.33,1.1,1.54,-1.35,0.25,0.24,13.75,58.875,-18.875,0.2147216796875,0.64520263671875,-0.13226318359375,0.72119140625,-40.0625,16.875,-11.5625,9.68,0.84,1.29,moving,1
9.59,615517.989426598,22,1,0,0,0,5.46,0.48,0.79,-4.2,-0.38,-0.59,9.25,58.1875,-13.3125,0.2156982421875,0.64190673828125,-0.12982177734375,0.72430419921875,-40.0625,16.875,-11.5625,9.66,0.87,1.39,moving,1
9.6,615518.003662601,22,1,0,0,0,4.46,-0.18,0.81,-5.18,-1.07,-0.67,11.0,60.0625,-12.4375,0.216552734375,0.638427734375,-0.1273193359375,0.7275390625,-40.0625,16.875,-11.5625,9.65,0.89,1.49,moving,1
9.61,615518.003662601,22,1,0,0,0,3.39,-0.34,0.8,-6.23,-1.26,-0.77,12.5625,52.1875,-7.1875,0.2169189453125,0.63543701171875,-0.1251220703125,0.73040771484375,-39.6875,18.0,-13.1875,9.63,0.91,1.58,moving,1
9.62,615518.034146203,22,1,0,0,0,2.45,-0.58,1.14,-7.16,-1.51,-0.52,20.0625,55.0625,-6.6875,0.216796875,0.63238525390625,-0.1224365234375,0.73358154296875,-39.6875,18.0,-13.1875,9.61,0.92,1.66,moving,1
9.63,615518.034146203,22,1,0,0,0,2.36,-0.65,1.18,-7.23,-1.61,-0.57,26.75,56.875,-12.625,0.21673583984375,0.62933349609375,-0.118896484375,0.73675537109375,-39.6875,18.0,-13.1875,9.59,0.95,1.76,moving,1
9.64,615518.048343713,22,1,0,0,0,2.37,-0.65,1.11,-7.2,-1.64,-0.73,33.4375,52.8125,-13.3125,0.21630859375,0.626708984375,-0.11505126953125,0.73974609375,-39.6875,18.0,-13.1875,9.58,0.98,1.84,moving,1
9.65,615518.048343713,22,1,0,0,0,2.63,-0.4,1.1,-6.92,-1.42,-0.79,37.75,36.8125,-9.5625,0.2152099609375,0.6251220703125,-0.11138916015625,0.741943359375,-39.6875,18.0,-13.1875,9.56,1.01,1.89,moving,1
9.66,615518.064016808,22,1,0,0,0,3.47,0.09,1.4,-6.09,-0.94,-0.5,37.0,12.6875,-6.0625,0.2137451171875,0.62506103515625,-0.1083984375,0.74285888671875,-39.375,15.0625,-15.375,9.56,1.04,1.91,moving,1
9.67,615518.064016808,22,1,0,0,0,4.03,0.29,1.86,-5.53,-0.76,-0.02,28.5625,-9.4375,-1.5,0.212158203125,0.626220703125,-0.106689453125,0.74261474609375,-39.375,15.0625,-15.375,9.56,1.05,1.89,moving,1
9.68,615518.093150231,22,1,0,0,0,4.58,0.46,2.03,-4.99,-0.57,0.17,9.5,-21.0,5.75,0.2110595703125,0.627685546875,-0.10675048828125,0.74163818359375,-39.375,15.0625,-15.375,9.57,1.04,1.85,moving,1
9.69,615518.093150231,22,1,0,0,0,6.26,0.82,1.89,-3.31,-0.18,0.09,-13.75,-30.875,14.1875,0.21063232421875,0.62933349609375,-0.1090087890625,0.74005126953125,-39.375,15.0625,-15.375,9.58,1.01,1.8,moving,1
9.7,615518.109161624,22,1,0,0,0,7.64,0.81,1.73,-1.95,-0.15,0.01,-35.5,-54.875,21.25,0.210693359375,0.63201904296875,-0.11346435546875,0.73712158203125,-39.375,15.0625,-15.375,9.6,0.97,1.72,moving,1
9.71,615518.109161624,22,1,0,0,0,9.22,0.82,1.57,-0.4,-0.08,-0.01,-52.875,-87.875,28.0625,0.21087646484375,0.6363525390625,-0.12005615234375,0.73223876953125,-39.6875,14.6875,-17.0,9.63,0.9,1.58,moving,1
9.72,615518.124085819,22,1,0,0,0,10.63,0.57,1.72,0.96,-0.25,0.3,-63.5,-103.875,34.0625,0.21112060546875,0.64141845703125,-0.12786865234375,0.72637939453125,-39.6875,14.6875,-17.0,9.66,0.83,1.41,moving,1
9.73,615518.124085819,22,1,0,0,0,13.5,0.32,0.72,3.8,-0.43,-0.54,-69.6875,-90.25,36.4375,0.21173095703125,0.6453857421875,-0.135986328125,0.72119140625,-39.6875,14.6875,-17.0,9.69,0.75,1.27,moving,1
9.74,615518.158052697,22,1,0,0,0,14.73,0.6,0.21,5.02,-0.08,-0.93,-53.1875,-77.0,34.5,0.21160888671875,0.64886474609375,-0.1427001953125,0.71685791015625,-39.6875,14.6875,-17.0,9.71,0.68,1.15,moving,1
9.75,615518.158052697,22,1,0,0,0,17.76,0.71,0.97,8.03,0.06,-0.11,-6.5625,-40.3125,20.75,0.210205078125,0.6510009765625,-0.14501953125,0.71484375,-39.6875,14.6875,-17.0,9.72,0.65,1.08,moving,1
9.76,615518.171576379,22,1,0,0,0,17.47,0.96,0.23,7.75,0.31,-0.86,39.6875,13.125,2.1875,0.20794677734375,0.65087890625,-0.1424560546875,0.71612548828125,-39.0,16.1875,-13.875,9.72,0.65,1.1,moving,1
9.77,615518.171576379,22,1,0,0,0,17.7,2.59,0.51,7.98,1.92,-0.61,53.25,22.375,-3.0,0.20538330078125,0.65045166015625,-0.1385498046875,0.718017578125,-39.0,16.1875,-13.875,9.71,0.66,1.13,moving,1
9.78,615518.183554406,22,1,0,0,0,18.34,2.63,0.38,8.62,1.97,-0.71,25.6875,-16.25,6.25,0.203369140625,0.65185546875,-0.1375732421875,0.717529296875,-39.0,16.1875,-13.875,9.72,0.66,1.1,moving,1
9.79,615518.183554406,22,1,0,0,0,18.41,1.82,0.56,8.68,1.18,-0.47,0.875,-31.8125,9.5625,0.20233154296875,0.65374755859375,-0.138671875,0.71588134765625,-39.0,16.1875,-13.875,9.72,0.64,1.04,moving,1
9.8,615518.19897209,22,1,0,0,0,18.41,1.82,0.56,8.68,1.18,-0.47,0.875,-31.8125,9.5625,0.20233154296875,0.65374755859375,-0.138671875,0.71588134765625,-39.0,16.1875,-13.875,9.72,0.64,1.04,moving,1
9.8,615518.19897209,22,1,0,0,0,15.1,1.01,1.78,5.38,0.37,0.72,8.8125,10.875,-0.5,0.201904296875,0.6531982421875,-0.13787841796875,0.71661376953125,-39.0,16.1875,-13.875,9.72,0.64,1.06,moving,1
9.81,615518.214349124,22,1,0,0,0,12.77,1.52,1.73,3.05,0.85,0.59,32.375,43.0,-12.5,0.20135498046875,0.6512451171875,-0.1343994140625,0.71923828125,-40.0625,16.5625,-13.5,9.71,0.67,1.13,moving,1
9.82,615518.214349124,22,1,0,0,0,11.07,1.27,1.81,1.36,0.56,0.63,34.0,30.25,-13.5625,0.20068359375,0.65008544921875,-0.1309814453125,0.7210693359375,-40.0625,16.5625,-13.5,9.7,0.7,1.18,moving,1
9.83,615518.247640628,22,1,0,0,0,9.46,0.98,1.12,-0.23,0.25,-0.07,21.25,11.5625,-7.125,0.20001220703125,0.64984130859375,-0.1290283203125,0.72186279296875,-40.0625,16.5625,-13.5,9.7,0.72,1.19,moving,1
9.84,615518.247640628,22,1,0,0,0,8.15,1.25,1.79,-1.54,0.52,0.56,9.25,20.1875,-5.3125,0.2000732421875,0.64874267578125,-0.1278076171875,0.7230224609375,-40.0625,16.5625,-13.5,9.7,0.73,1.23,moving,1
9.85,615518.259382328,22,1,0,0,0,5.88,0.92,0.83,-3.8,0.18,-0.48,-1.5625,56.0625,-4.3125,0.2010498046875,0.645263671875,-0.12664794921875,0.72607421875,-40.0625,16.5625,-13.5,9.68,0.74,1.32,moving,1
9.86,615518.259382328,22,1,0,0,0,5.31,0.76,1.54,-4.35,0.01,0.1,3.875,67.625,-5.3125,0.201904296875,0.64111328125,-0.12493896484375,0.72979736328125,-39.0,16.5625,-14.6875,9.67,0.75,1.43,moving,1
9.87,615518.274024417,22,1,0,0,0,3.59,0.2,1.26,-6.06,-0.56,-0.29,7.75,70.0,-5.125,0.20257568359375,0.63677978515625,-0.1229248046875,0.73370361328125,-39.0,16.5625,-14.6875,9.65,0.76,1.55,moving,1
9.88,615518.274024417,22,1,0,0,0,3.16,-0.22,1.15,-6.46,-0.99,-0.5,15.75,63.5625,-7.0625,0.20281982421875,0.633056640625,-0.120361328125,0.7373046875,-39.0,16.5625,-14.6875,9.63,0.77,1.66,moving,1
9.89,615518.304585859,22,1,0,0,0,2.82,-0.31,1.28,-6.78,-1.11,-0.46,28.5625,59.125,-9.75,0.2025146484375,0.6298828125,-0.116943359375,0.74066162109375,-39.0,16.5625,-14.6875,9.61,0.8,1.75,moving,1
9.9,615518.304585859,22,1,0,0,0,2.71,-0.26,1.45,-6.88,-1.09,-0.38,36.1875,50.75,-10.0625,0.20166015625,0.6273193359375,-0.1131591796875,0.74365234375,-39.0,16.5625,-14.6875,9.59,0.83,1.83,moving,1
9.91,615518.320175174,22,1,0,0,0,2.77,-0.3,1.69,-6.81,-1.16,-0.18,29.5625,33.125,-8.0625,0.200927734375,0.62579345703125,-0.1102294921875,0.74560546875,-39.6875,15.0625,-17.0,9.58,0.85,1.88,moving,1
9.92,615518.320175174,22,1,0,0,0,2.82,-0.32,1.59,-6.75,-1.18,-0.3,11.5,13.1875,-2.625,0.2005615234375,0.6251220703125,-0.10906982421875,0.74639892578125,-39.6875,15.0625,-17.0,9.58,0.86,1.9,moving,1
9.93,615518.334316247,22,1,0,0,0,3.18,-0.38,1.78,-6.39,-1.24,-0.11,-4.5,-6.0,2.25,0.20062255859375,0.62542724609375,-0.109619140625,0.74603271484375,-39.6875,15.0625,-17.0,9.58,0.85,1.89,moving,1
9.94,615518.334316247,22,1,0,0,0,4.03,-0.27,1.98,-5.55,-1.12,0.11,-11.0,-16.0625,6.25,0.20062255859375,0.626220703125,-0.1109619140625,0.74517822265625,-39.6875,15.0625,-17.0,9.58,0.84,1.87,moving,1
9.95,615518.365369714,22,1,0,0,0,4.92,-0.24,1.83,-4.67,-1.06,0.0,-12.3125,-24.0,10.1875,0.200439453125,0.62744140625,-0.11273193359375,0.743896484375,-39.6875,15.0625,-17.0,9.59,0.82,1.83,moving,1
9.96,615518.365369714,22,1,0,0,0,6.38,-0.3,1.46,-3.22,-1.09,-0.31,-19.0,-38.875,15.0,0.20013427734375,0.6295166015625,-0.115478515625,0.74188232421875,-38.5625,15.5,-16.5625,9.61,0.79,1.77,moving,1
9.97,615518.379012251,22,1,0,0,0,8.73,-0.33,1.12,-0.9,-1.08,-0.52,-29.9375,-72.5625,22.0,0.1995849609375,0.6334228515625,-0.119873046875,0.7379150390625,-38.5625,15.5,-16.5625,9.63,0.74,1.65,moving,1
9.98,615518.379012251,22,1,0,0,0,16.76,-0.54,1.0,7.08,-1.21,-0.45,-45.75,-124.125,33.625,0.1986083984375,0.64019775390625,-0.1268310546875,0.73114013671875,-38.5625,15.5,-16.5625,9.67,0.67,1.45,moving,1
9.99,615518.393531538,22,1,0,0,0,20.13,-0.22,2.06,10.41,-0.79,0.9,-81.6875,-177.125,54.625,0.19769287109375,0.6494140625,-0.13818359375,0.72119140625,-38.5625,15.5,-16.5625,9.72,0.56,1.16,moving,1
10.0,615518.393531538,22,1,0,0,0,21.36,1.14,0.39,11.61,0.69,-0.56,-40.125,-117.625,64.0625,0.19451904296875,0.6552734375,-0.1463623046875,0.715087890625,-38.5625,15.5,-16.5625,9.74,0.44,0.96,moving,1
10.01,615518.423998579,22,1,0,0,0,20.76,2.41,0.73,11.0,1.99,-0.18,13.0625,-25.4375,16.75,0.1923828125,0.6568603515625,-0.14691162109375,0.714111328125,-38.875,16.1875,-14.25,9.75,0.42,0.92,moving,1
10.02,615518.423998579,22,1,0,0,0,19.57,2.61,0.39,9.83,2.17,-0.56,50.6875,26.75,-8.625,0.19036865234375,0.6561279296875,-0.142822265625,0.71612548828125,-38.875,16.1875,-14.25,9.74,0.44,0.96,moving,1
