timestamp,android_nano_timestamp,temperature,calib_mag,calib_accel,calib_gyro,calib_sys,acc_x,acc_y,acc_z,lacc_x,lacc_y,lacc_z,gyro_x,gyro_y,gyro_z,quat_w,quat_x,quat_y,quat_z,mag_x,mag_y,mag_z,gravity_x,gravity_y,gravity_z,label,person
5.74,27233.561982291,27,3,3,3,0,9.63,-1.47,-0.36,-0.1,-0.53,0.27,9.5,-7.3125,-2.625,0.6243896484375,0.231689453125,-0.692138671875,0.27813720703125,-18.6875,31.375,-2.375,9.74,-0.93,-0.64,moving,10
5.75,27233.561982291,27,3,3,3,0,9.66,-1.5,-0.43,-0.07,-0.55,0.21,8.75,-9.125,-2.1875,0.62371826171875,0.23211669921875,-0.6923828125,0.27880859375,-18.6875,31.375,-2.375,9.73,-0.94,-0.65,moving,10
5.76,27233.579551423,27,3,3,3,0,9.67,-1.54,-0.54,-0.06,-0.58,0.12,8.5625,-10.9375,-2.625,0.6229248046875,0.23260498046875,-0.69268798828125,0.27935791015625,-18.6875,31.375,-2.375,9.73,-0.95,-0.66,moving,10
5.77,27233.579551423,27,3,3,3,0,9.69,-1.47,-0.58,-0.04,-0.51,0.1,9.0625,-13.3125,-2.5625,0.6219482421875,0.233154296875,-0.693115234375,0.2799072265625,-18.6875,31.375,-2.375,9.73,-0.96,-0.68,moving,10
5.78,27233.590022655,27,3,3,3,0,9.68,-1.38,-0.62,-0.04,-0.41,0.07,9.6875,-13.1875,-2.6875,0.6209716796875,0.23388671875,-0.693603515625,0.2803955078125,-18.0,31.0,-0.75,9.73,-0.96,-0.7,moving,10
5.78,27233.590022655,27,3,3,3,0,9.69,-1.33,-0.61,-0.03,-0.36,0.1,9.0,-13.6875,-2.625,0.6199951171875,0.234619140625,-0.69403076171875,0.28082275390625,-18.0,31.0,-0.75,9.73,-0.96,-0.72,moving,10
5.79,27233.621442781,27,3,3,3,0,9.68,-1.15,-0.55,-0.04,-0.18,0.19,7.75,-15.125,-2.375,0.61895751953125,0.23541259765625,-0.69464111328125,0.281005859375,-18.0,31.0,-0.75,9.73,-0.96,-0.74,moving,10
5.81,27233.621442781,27,3,3,3,0,9.62,-1.12,-0.62,-0.1,-0.15,0.15,6.5625,-16.875,-1.9375,0.61785888671875,0.236328125,-0.6953125,0.28094482421875,-18.0,31.0,-0.75,9.72,-0.96,-0.77,moving,10
5.82,27233.635173819,27,3,3,3,0,9.54,-1.02,-0.73,-0.18,-0.05,0.07,6.5625,-18.9375,-1.6875,0.6165771484375,0.23724365234375,-0.6961669921875,0.2808837890625,-18.0,31.0,-0.75,9.72,-0.96,-0.8,moving,10
5.83,27233.635173819,27,3,3,3,0,9.49,-0.81,-0.85,-0.22,0.14,-0.02,7.4375,-21.875,-1.5,0.61517333984375,0.23828125,-0.6971435546875,0.28076171875,-19.75,31.0,-2.375,9.72,-0.96,-0.83,moving,10
5.84,27233.649583162,27,3,3,3,0,9.46,-0.71,-0.95,-0.25,0.25,-0.07,8.0625,-24.0625,-1.25,0.613525390625,0.2393798828125,-0.69818115234375,0.28070068359375,-19.75,31.0,-2.375,9.71,-0.96,-0.87,moving,10
5.85,27233.649583162,27,3,3,3,0,9.43,-0.65,-1.02,-0.28,0.3,-0.1,6.9375,-24.125,-1.125,0.6119384765625,0.2403564453125,-0.69927978515625,0.28057861328125,-19.75,31.0,-2.375,9.71,-0.96,-0.91,moving,10
5.86,27233.681276277,27,3,3,3,0,9.34,-0.44,-1.07,-0.36,0.52,-0.11,5.3125,-23.375,-0.4375,0.61041259765625,0.2412109375,-0.70037841796875,0.2803955078125,-19.75,31.0,-2.375,9.71,-0.96,-0.95,moving,10
5.86,27233.681276277,27,3,3,3,0,9.15,-0.14,-0.96,-0.55,0.82,0.02,3.75,-23.0,-1.125,0.60894775390625,0.2420654296875,-0.7015380859375,0.28009033203125,-19.75,31.0,-2.375,9.7,-0.96,-0.99,moving,10
5.87,27233.695956778,27,3,3,3,0,8.99,0.02,-0.85,-0.7,0.98,0.17,2.5625,-24.125,-1.125,0.607421875,0.24285888671875,-0.70269775390625,0.2796630859375,-19.0625,31.0,-2.0,9.7,-0.96,-1.03,moving,10
5.88,27233.695956778,27,3,3,3,0,8.99,0.02,-0.85,-0.7,0.98,0.17,2.5625,-24.125,-1.125,0.607421875,0.24285888671875,-0.70269775390625,0.2796630859375,-19.0625,31.0,-2.0,9.7,-0.96,-1.03,moving,10
5.89,27233.709021923,27,3,3,3,0,8.78,0.26,-0.71,-0.91,1.22,0.36,2.1875,-23.9375,-1.5625,0.60595703125,0.24365234375,-0.70391845703125,0.27923583984375,-19.0625,31.0,-2.0,9.7,-0.95,-1.07,moving,10
5.9,27233.709021923,27,3,3,3,0,8.41,0.5,-0.6,-1.28,1.45,0.5,2.5,-19.9375,-1.75,0.604736328125,0.244384765625,-0.704833984375,0.27886962890625,-19.0625,31.0,-2.0,9.69,-0.95,-1.1,moving,10
5.91,27233.727849072,27,3,3,3,0,7.92,0.78,-0.55,-1.77,1.74,0.58,1.3125,-18.8125,-1.5,0.60357666015625,0.2449951171875,-0.705810546875,0.27850341796875,-19.0625,31.0,-2.0,9.69,-0.95,-1.14,moving,10
5.92,27233.727849072,27,3,3,3,0,7.81,0.94,-0.57,-1.87,1.89,0.6,0.75,-18.8125,-0.75,0.6024169921875,0.24554443359375,-0.70672607421875,0.278076171875,-19.0625,31.0,-2.0,9.68,-0.95,-1.17,moving,10
5.93,27233.740308829,27,3,3,3,0,7.55,1.14,-0.66,-2.13,2.09,0.52,-1.375,-14.4375,-1.1875,0.6015625,0.24591064453125,-0.70751953125,0.277587890625,-19.375,31.6875,-1.1875,9.68,-0.95,-1.19,moving,10
5.94,27233.740308829,27,3,3,3,0,7.3,1.28,-1.13,-2.38,2.22,0.07,-6.5,-7.0,-1.375,0.601318359375,0.24578857421875,-0.7080078125,0.2769775390625,-19.375,31.6875,-1.1875,9.68,-0.94,-1.2,moving,10
5.95,27233.77167801,27,3,3,3,0,7.27,1.43,-1.31,-2.4,2.37,-0.09,-13.8125,-4.0,-0.625,0.60137939453125,0.2452392578125,-0.70855712890625,0.2760009765625,-19.375,31.6875,-1.1875,9.68,-0.94,-1.21,moving,10
5.95,27233.77167801,27,3,3,3,0,7.5,1.02,-2.12,-2.17,1.96,-0.89,-23.3125,-4.0,0.4375,0.60162353515625,0.24407958984375,-0.70928955078125,0.27447509765625,-19.375,31.6875,-1.1875,9.68,-0.93,-1.22,moving,10
5.97,27233.790356518,27,3,3,3,0,8.58,0.45,-2.77,-1.09,1.38,-1.51,-33.5,-17.1875,-0.375,0.60125732421875,0.24273681640625,-0.71099853515625,0.27203369140625,-19.375,31.6875,-1.1875,9.68,-0.93,-1.26,moving,10
5.98,27233.790356518,27,3,3,3,0,10.77,-0.42,-3.77,1.1,0.5,-2.45,-37.125,-28.6875,6.125,0.60015869140625,0.2410888671875,-0.7135009765625,0.2694091796875,-19.75,31.375,-1.1875,9.67,-0.93,-1.31,moving,10
5.99,27233.800188264,27,3,3,3,0,11.58,-0.18,-3.51,1.92,0.75,-2.15,-36.5,-22.5625,10.0625,0.5992431640625,0.2391357421875,-0.71575927734375,0.2672119140625,-19.75,31.375,-1.1875,9.66,-0.94,-1.36,moving,10
6.0,27233.800188264,27,3,3,3,0,12.96,-0.76,-3.43,3.29,0.17,-2.04,-38.0,-8.3125,6.625,0.599365234375,0.2369384765625,-0.71722412109375,0.2650146484375,-19.75,31.375,-1.1875,9.66,-0.94,-1.38,moving,10
6.01,27233.836197623,27,3,3,3,0,13.9,-1.22,-3.06,4.24,-0.27,-1.67,-42.75,-0.5,7.0,0.60009765625,0.2342529296875,-0.71832275390625,0.2626953125,-19.75,31.375,-1.1875,9.66,-0.94,-1.39,moving,10
6.02,27233.836197623,27,3,3,3,0,15.2,-1.15,-2.22,5.54,-0.2,-0.84,-35.875,4.8125,11.875,0.600830078125,0.23150634765625,-0.71917724609375,0.2611083984375,-19.75,31.375,-1.1875,9.66,-0.95,-1.38,moving,10
6.03,27233.845571524,27,3,3,3,0,14.47,-0.85,-1.75,4.81,0.1,-0.38,-21.8125,12.5625,6.4375,0.6019287109375,0.22967529296875,-0.7191162109375,0.26031494140625,-19.375,30.6875,-0.375,9.66,-0.96,-1.37,moving,10
6.04,27233.845571524,27,3,3,3,0,13.13,-0.67,-1.48,3.47,0.27,-0.13,-15.75,14.6875,-7.3125,0.60333251953125,0.22900390625,-0.71856689453125,0.25927734375,-19.375,30.6875,-0.375,9.66,-0.94,-1.34,moving,10
6.05,27233.865262198,27,3,3,3,0,10.95,-0.59,-1.85,1.28,0.33,-0.54,-11.1875,24.25,-11.3125,0.6053466796875,0.22857666015625,-0.71734619140625,0.2584228515625,-19.375,30.6875,-0.375,9.67,-0.92,-1.3,moving,10
6.06,27233.865262198,27,3,3,3,0,10.73,-0.77,-1.81,1.05,0.12,-0.54,-6.6875,23.0,-15.6875,0.60723876953125,0.22869873046875,-0.7159423828125,0.25762939453125,-19.375,30.6875,-0.375,9.68,-0.89,-1.27,moving,10
6.07,27233.890621004,27,3,3,3,0,10.61,-0.74,-1.71,0.93,0.11,-0.45,0.0,8.875,-22.1875,0.60833740234375,0.2298583984375,-0.71502685546875,0.256591796875,-19.375,30.6875,-0.375,9.68,-0.85,-1.25,moving,10
6.08,27233.890621004,27,3,3,3,0,10.63,-0.34,-1.1,0.94,0.47,0.15,4.8125,-1.3125,-24.6875,0.60870361328125,0.231689453125,-0.7144775390625,0.25555419921875,-19.75,31.6875,-0.375,9.69,-0.81,-1.25,moving,10
6.09,27233.905867382,27,3,3,3,0,11.03,-0.44,-1.03,1.34,0.32,0.23,-4.625,-4.5,-24.0,0.6090087890625,0.23309326171875,-0.71435546875,0.25390625,-19.75,31.6875,-0.375,9.69,-0.77,-1.26,moving,10
6.1,27233.905867382,27,3,3,3,0,10.54,-0.49,-1.03,0.84,0.23,0.2,-16.25,16.0,-22.625,0.61083984375,0.2332763671875,-0.71337890625,0.251953125,-19.75,31.6875,-0.375,9.7,-0.73,-1.24,moving,10
6.11,27233.923739371,27,3,3,3,0,9.97,-0.52,-0.91,0.26,0.15,0.27,-25.0625,35.0,-25.6875,0.61407470703125,0.2327880859375,-0.7115478515625,0.249755859375,-19.75,31.6875,-0.375,9.71,-0.68,-1.18,moving,10
6.11,27233.923739371,27,3,3,3,0,9.51,-0.49,-0.99,-0.2,0.13,0.13,-29.9375,31.9375,-25.0,0.61724853515625,0.2320556640625,-0.7099609375,0.2471923828125,-19.75,31.6875,-0.375,9.72,-0.63,-1.13,moving,10
6.13,27233.951351798,27,3,3,3,0,8.85,-0.43,-1.16,-0.86,0.14,-0.05,-27.125,17.5625,-24.375,0.619384765625,0.231689453125,-0.7091064453125,0.2445068359375,-19.0625,31.0,-0.875,9.72,-0.58,-1.1,moving,10
6.14,27233.951351798,27,3,3,3,0,8.79,-0.46,-1.05,-0.93,0.07,0.05,-20.125,1.75,-27.5625,0.6204833984375,0.2322998046875,-0.70892333984375,0.2418212890625,-19.0625,31.0,-0.875,9.72,-0.53,-1.1,moving,10
6.15,27233.965181225,27,3,3,3,0,8.62,-0.4,-1.16,-1.1,0.07,-0.04,-14.4375,-6.1875,-29.9375,0.62103271484375,0.2335205078125,-0.70892333984375,0.2391357421875,-19.0625,31.0,-0.875,9.73,-0.48,-1.12,moving,10
6.15,27233.965181225,27,3,3,3,0,8.62,-0.4,-1.16,-1.1,0.07,-0.04,-14.4375,-6.1875,-29.9375,0.62103271484375,0.2335205078125,-0.70892333984375,0.2391357421875,-19.0625,31.0,-0.875,9.73,-0.48,-1.12,moving,10
6.16,27233.976608512,27,3,3,3,0,8.14,-0.14,-1.5,-1.59,0.27,-0.39,-6.8125,5.625,-30.8125,0.6221923828125,0.23492431640625,-0.7081298828125,0.2371826171875,-19.0625,31.0,-0.875,9.73,-0.42,-1.11,moving,10
6.17,27233.976608512,27,3,3,3,0,7.94,-0.17,-1.45,-1.79,0.19,-0.37,-5.5,19.5,-33.25,0.6241455078125,0.236328125,-0.70648193359375,0.23541259765625,-19.0625,31.0,-0.875,9.74,-0.36,-1.07,moving,10
6.18,27233.995174186,27,3,3,3,0,8.07,-0.43,-1.46,-1.66,-0.12,-0.41,-13.0,20.9375,-34.3125,0.62640380859375,0.2373046875,-0.70489501953125,0.233154296875,-20.875,29.875,1.0625,9.74,-0.3,-1.04,moving,10
6.19,27233.995174186,27,3,3,3,0,7.77,-0.43,-1.71,-1.97,-0.18,-0.7,-15.0625,21.125,-33.5,0.62872314453125,0.23809814453125,-0.703369140625,0.2308349609375,-20.875,29.875,1.0625,9.75,-0.24,-1.0,moving,10
6.2,27234.010488476,27,3,3,3,0,7.52,-0.32,-1.8,-2.23,-0.13,-0.83,-8.125,21.5625,-36.9375,0.63092041015625,0.239501953125,-0.70159912109375,0.228759765625,-20.875,29.875,1.0625,9.75,-0.18,-0.97,moving,10
6.2,27234.010488476,27,3,3,3,0,7.58,-0.2,-1.89,-2.17,-0.08,-0.94,-1.0,9.1875,-38.5625,0.63232421875,0.24163818359375,-0.7003173828125,0.22674560546875,-20.875,29.875,1.0625,9.75,-0.11,-0.95,moving,10
6.22,27234.041960278,27,3,3,3,0,7.29,-0.05,-1.81,-2.46,0.0,-0.84,2.8125,-6.625,-38.1875,0.632568359375,0.2442626953125,-0.6998291015625,0.22467041015625,-20.875,29.875,1.0625,9.75,-0.05,-0.96,moving,10
6.23,27234.041960278,27,3,3,3,0,7.32,0.09,-1.81,-2.42,0.08,-0.81,6.125,-21.8125,-38.625,0.6318359375,0.24737548828125,-0.7000732421875,0.222412109375,-22.0,29.875,0.6875,9.75,0.01,-1.0,moving,10
6.24,27234.055886791,27,3,3,3,0,7.37,0.47,-1.84,-2.37,0.39,-0.77,6.6875,-35.6875,-40.8125,0.63031005859375,0.2509765625,-0.70098876953125,0.21978759765625,-22.0,29.875,0.6875,9.74,0.08,-1.06,moving,10
6.25,27234.055886791,27,3,3,3,0,7.29,0.54,-1.87,-2.44,0.4,-0.72,5.1875,-49.9375,-38.6875,0.62786865234375,0.25457763671875,-0.70281982421875,0.21685791015625,-22.0,29.875,0.6875,9.73,0.14,-1.15,moving,10
6.26,27234.071609936,27,3,3,3,0,7.5,0.53,-1.82,-2.21,0.32,-0.56,4.3125,-60.875,-35.375,0.62469482421875,0.25811767578125,-0.70526123046875,0.21380615234375,-22.0,29.875,0.6875,9.72,0.2,-1.25,moving,10
6.27,27234.071609936,27,3,3,3,0,8.24,0.08,-2.01,-1.46,-0.16,-0.64,2.6875,-68.375,-31.4375,0.6209716796875,0.261474609375,-0.708251953125,0.21075439453125,-22.0,29.875,0.6875,9.7,0.25,-1.37,moving,10
6.28,27234.100985384,27,3,3,3,0,8.49,-0.16,-2.06,-1.19,-0.47,-0.58,0.8125,-65.4375,-27.4375,0.617431640625,0.26446533203125,-0.71112060546875,0.207763671875,-23.5,29.1875,0.25,9.68,0.3,-1.48,moving,10
6.28,27234.100985384,27,3,3,3,0,8.54,-0.31,-2.46,-1.13,-0.65,-0.9,4.0,-47.5625,-23.125,0.61474609375,0.2669677734375,-0.71307373046875,0.2056884765625,-23.5,29.1875,0.25,9.67,0.34,-1.56,moving,10
6.29,27234.121639029,27,3,3,3,0,8.44,-0.49,-2.86,-1.22,-0.87,-1.25,8.1875,-26.4375,-21.75,0.61334228515625,0.26922607421875,-0.7138671875,0.20440673828125,-23.5,29.1875,0.25,9.66,0.37,-1.6,moving,10
6.31,27234.121639029,27,3,3,3,0,9.01,-0.85,-2.7,-0.63,-1.27,-1.04,11.5,-27.9375,-22.5,0.6116943359375,0.27178955078125,-0.714599609375,0.2032470703125,-23.5,29.1875,0.25,9.65,0.41,-1.65,moving,10
6.32,27234.133617057,27,3,3,3,0,9.52,-0.72,-2.19,-0.11,-1.16,-0.45,18.25,-42.75,-20.875,0.60894775390625,0.2747802734375,-0.716064453125,0.2022705078125,-23.5,29.1875,0.25,9.64,0.44,-1.73,moving,10
6.33,27234.133617057,27,3,3,3,0,9.88,-0.53,-1.46,0.25,-1.0,0.35,27.0625,-47.375,-20.875,0.605712890625,0.27838134765625,-0.71759033203125,0.20166015625,-24.1875,28.5,1.5,9.62,0.46,-1.81,moving,10
6.34,27234.160920605,27,3,3,3,0,10.45,-0.18,-0.54,0.84,-0.67,1.33,32.1875,-37.75,-19.375,0.60284423828125,0.281982421875,-0.71856689453125,0.20172119140625,-24.1875,28.5,1.5,9.61,0.49,-1.87,moving,10
6.35,27234.160920605,27,3,3,3,0,10.7,0.12,-0.7,1.09,-0.38,1.22,29.5,-26.4375,-15.9375,0.60076904296875,0.28497314453125,-0.71905517578125,0.20208740234375,-24.1875,28.5,1.5,9.6,0.5,-1.92,moving,10
6.36,27234.176500276,27,3,3,3,0,11.04,0.04,-1.26,1.45,-0.47,0.7,20.625,-23.125,-9.75,0.59893798828125,0.287109375,-0.71966552734375,0.20233154296875,-24.1875,28.5,1.5,9.59,0.51,-1.96,moving,10
6.36,27234.176500276,27,3,3,3,0,11.37,0.19,-1.74,1.79,-0.32,0.28,13.375,-30.8125,-4.5625,0.59674072265625,0.28863525390625,-0.720947265625,0.2021484375,-24.1875,28.5,1.5,9.58,0.52,-2.02,moving,10
6.37,27234.191758862,27,3,3,3,0,11.64,0.23,-2.46,2.07,-0.28,-0.37,9.6875,-37.1875,0.5,0.5941162109375,0.289794921875,-0.72271728515625,0.2017822265625,-23.875,28.0625,2.5625,9.56,0.51,-2.08,moving,10
6.39,27234.191758862,27,3,3,3,0,11.68,0.05,-2.67,2.12,-0.45,-0.53,5.625,-33.875,2.875,0.591796875,0.29052734375,-0.72442626953125,0.20147705078125,-23.875,28.0625,2.5625,9.55,0.5,-2.14,moving,10
6.4,27234.220631339,27,3,3,3,0,11.23,0.02,-2.72,1.68,-0.47,-0.55,6.5625,-18.875,4.8125,0.59033203125,0.2908935546875,-0.72540283203125,0.20166015625,-23.875,28.0625,2.5625,9.54,0.49,-2.17,moving,10
6.41,27234.220631339,27,3,3,3,0,11.11,-0.13,-3.01,1.56,-0.62,-0.83,9.75,-4.5,5.1875,0.5897216796875,0.2911376953125,-0.7255859375,0.202392578125,-23.875,28.0625,2.5625,9.54,0.48,-2.18,moving,10
6.42,27234.235241609,27,3,3,3,0,11.32,-0.2,-2.85,1.78,-0.68,-0.64,16.375,-14.9375,3.25,0.5882568359375,0.29205322265625,-0.7261962890625,0.2032470703125,-23.875,28.0625,2.5625,9.54,0.47,-2.2,moving,10
6.43,27234.235241609,27,3,3,3,0,11.64,-0.27,-2.73,2.11,-0.73,-0.47,24.0,-31.5625,5.5625,0.5855712890625,0.29345703125,-0.7275390625,0.2042236328125,-23.875,28.5,2.25,9.53,0.45,-2.26,moving,10
6.44,27234.254994783,27,3,3,3,0,11.77,-0.19,-2.78,2.26,-0.62,-0.45,24.9375,-40.25,7.0625,0.58221435546875,0.2950439453125,-0.72930908203125,0.20513916015625,-23.875,28.5,2.25,9.51,0.43,-2.33,moving,10
6.45,27234.254994783,27,3,3,3,0,11.73,-0.3,-2.43,2.23,-0.71,-0.03,20.875,-38.125,9.1875,0.5791015625,0.29620361328125,-0.73114013671875,0.2059326171875,-23.875,28.5,2.25,9.5,0.41,-2.39,moving,10
6.45,27234.264661083,27,3,3,3,0,11.47,-0.25,-2.09,1.98,-0.64,0.35,16.3125,-28.8125,10.875,0.57659912109375,0.29681396484375,-0.7325439453125,0.206787109375,-23.875,28.5,2.25,9.48,0.38,-2.44,moving,10
6.46,27234.264661083,27,3,3,3,0,11.47,-0.25,-2.09,1.98,-0.64,0.35,16.3125,-28.8125,10.875,0.57659912109375,0.29681396484375,-0.7325439453125,0.206787109375,-23.875,28.5,2.25,9.48,0.38,-2.44,moving,10
6.47,27234.283654288,27,3,3,3,0,11.15,-0.25,-1.78,1.66,-0.61,0.68,14.0625,-11.875,12.3125,0.57525634765625,0.29693603515625,-0.73321533203125,0.2080078125,-23.875,28.5,2.25,9.48,0.35,-2.46,moving,10
6.48,27234.283654288,27,3,3,3,0,10.75,-0.27,-1.51,1.27,-0.6,0.94,13.3125,4.75,13.125,0.574951171875,0.29669189453125,-0.73309326171875,0.20965576171875,-24.1875,28.5,1.875,9.48,0.33,-2.46,moving,10
6.49,27234.310188834,27,3,3,3,0,10.09,-0.43,-1.76,0.59,-0.73,0.67,11.625,15.25,15.4375,0.5753173828125,0.2960205078125,-0.7325439453125,0.21160888671875,-24.1875,28.5,1.875,9.49,0.3,-2.43,moving,10
6.5,27234.310188834,27,3,3,3,0,9.74,-0.5,-2.06,0.24,-0.76,0.33,9.875,21.5,18.5,0.57611083984375,0.294921875,-0.73175048828125,0.21368408203125,-24.1875,28.5,1.875,9.5,0.26,-2.4,moving,10
6.51,27234.328127189,27,3,3,3,0,9.41,-0.59,-2.32,-0.1,-0.82,0.03,8.375,25.9375,21.1875,0.5771484375,0.29351806640625,-0.7308349609375,0.21600341796875,-24.1875,28.5,1.875,9.51,0.22,-2.35,moving,10
6.52,27234.328127189,27,3,3,3,0,9.12,-0.68,-2.63,-0.39,-0.86,-0.32,6.5625,30.125,24.25,0.57843017578125,0.29168701171875,-0.72979736328125,0.2183837890625,-24.1875,28.5,1.875,9.52,0.18,-2.3,moving,10
6.53,27234.340127718,27,3,3,3,0,8.68,-0.82,-3.14,-0.85,-0.96,-0.88,6.4375,32.3125,27.25,0.579833984375,0.2896728515625,-0.728759765625,0.22100830078125,-23.875,28.5,2.25,9.54,0.13,-2.25,moving,10
6.53,27234.340127718,27,3,3,3,0,8.64,-0.87,-3.15,-0.9,-0.95,-0.94,9.0625,26.375,29.1875,0.5806884765625,0.28778076171875,-0.72796630859375,0.2237548828125,-23.875,28.5,2.25,9.55,0.08,-2.21,moving,10
6.55,27234.370659497,27,3,3,3,0,8.64,-0.94,-3.1,-0.91,-0.96,-0.92,16.5625,20.375,31.375,0.5809326171875,0.28619384765625,-0.7274169921875,0.22686767578125,-23.875,28.5,2.25,9.56,0.02,-2.17,moving,10
6.56,27234.370659497,27,3,3,3,0,8.62,-0.84,-2.64,-0.94,-0.8,-0.49,26.125,15.6875,31.8125,0.58062744140625,0.28521728515625,-0.72686767578125,0.2305908203125,-23.875,28.5,2.25,9.56,-0.03,-2.15,moving,10
6.57,27234.38818741,27,3,3,3,0,8.68,-0.83,-2.36,-0.88,-0.73,-0.23,33.25,9.5625,32.75,0.57977294921875,0.28460693359375,-0.7265625,0.23455810546875,-23.875,28.5,2.25,9.57,-0.1,-2.13,moving,10
6.58,27234.38818741,27,3,3,3,0,8.83,-0.82,-2.14,-0.73,-0.65,-0.01,35.375,2.25,34.6875,0.57830810546875,0.2841796875,-0.7265625,0.2386474609375,-22.0,29.5,1.875,9.57,-0.17,-2.13,moving,10
6.59,27234.400959301,27,3,3,3,0,8.93,-0.85,-1.91,-0.63,-0.6,0.21,34.125,-2.625,37.5,0.57647705078125,0.28350830078125,-0.7269287109375,0.24261474609375,-22.0,29.5,1.875,9.56,-0.25,-2.13,moving,10
6.6,27234.400959301,27,3,3,3,0,8.92,-0.97,-1.89,-0.64,-0.64,0.24,31.375,-5.1875,40.5,0.57452392578125,0.28265380859375,-0.7275390625,0.24652099609375,-22.0,29.5,1.875,9.56,-0.33,-2.14,moving,10
6.61,27234.431047965,27,3,3,3,0,8.81,-1.04,-1.97,-0.74,-0.62,0.18,29.375,-6.75,43.0625,0.5723876953125,0.281494140625,-0.728271484375,0.25042724609375,-22.0,29.5,1.875,9.55,-0.41,-2.15,moving,10
6.61,27234.431047965,27,3,3,3,0,8.67,-1.05,-1.96,-0.87,-0.54,0.19,28.0,-8.0,45.0,0.5701904296875,0.28021240234375,-0.72918701171875,0.25421142578125,-22.0,29.5,1.875,9.55,-0.5,-2.16,moving,10
6.63,27234.446095247,27,3,3,3,0,8.58,-1.02,-1.98,-0.95,-0.43,0.19,25.0625,-8.875,46.75,0.5679931640625,0.2786865234375,-0.730224609375,0.2579345703125,-21.6875,29.875,1.0625,9.54,-0.58,-2.17,moving,10
6.64,27234.446095247,27,3,3,3,0,8.38,-1.06,-1.94,-1.15,-0.39,0.24,19.125,-7.875,48.625,0.56591796875,0.27667236328125,-0.73138427734375,0.26141357421875,-21.6875,29.875,1.0625,9.53,-0.67,-2.18,moving,10
6.65,27234.462917146,27,3,3,3,0,8.2,-1.03,-1.91,-1.32,-0.26,0.27,13.125,-3.4375,49.875,0.564208984375,0.27423095703125,-0.732421875,0.26458740234375,-21.6875,29.875,1.0625,9.52,-0.76,-2.19,moving,10
6.66,27234.462917146,27,3,3,3,0,8.0,-1.01,-1.91,-1.51,-0.15,0.26,8.5625,3.4375,50.9375,0.56304931640625,0.27130126953125,-0.7332763671875,0.26776123046875,-21.6875,29.875,1.0625,9.52,-0.85,-2.18,moving,10
6.67,27234.492416455,27,3,3,3,0,7.77,-1.08,-1.96,-1.73,-0.14,0.19,5.25,10.1875,51.6875,0.56231689453125,0.26800537109375,-0.73388671875,0.2708740234375,-21.6875,29.875,1.0625,9.51,-0.94,-2.16,moving,10
6.68,27234.492416455,27,3,3,3,0,7.66,-1.12,-1.96,-1.84,-0.09,0.17,3.5,16.0625,52.5625,0.56201171875,0.264404296875,-0.7342529296875,0.2740478515625,-20.1875,29.5,0.0,9.51,-1.03,-2.13,moving,10
6.69,27234.507365836,27,3,3,3,0,7.6,-1.18,-2.03,-1.91,-0.06,0.06,3.25,22.0625,52.625,0.56207275390625,0.26068115234375,-0.7342529296875,0.27740478515625,-20.1875,29.5,0.0,9.51,-1.12,-2.1,moving,10
6.7,27234.507365836,27,3,3,3,0,7.45,-1.19,-1.98,-2.05,0.01,0.07,5.0,24.5625,52.4375,0.562255859375,0.2569580078125,-0.734130859375,0.28082275390625,-20.1875,29.5,0.0,9.51,-1.21,-2.05,moving,10
6.7,27234.523931103,27,3,3,3,0,7.25,-1.19,-1.96,-2.25,0.1,0.06,8.0,21.25,51.5625,0.5621337890625,0.2535400390625,-0.73406982421875,0.28436279296875,-20.1875,29.5,0.0,9.5,-1.29,-2.02,moving,10
6.72,27234.523931103,27,3,3,3,0,7.23,-1.2,-1.91,-2.26,0.18,0.07,13.625,15.125,50.75,0.5615234375,0.25054931640625,-0.73406982421875,0.2880859375,-20.1875,29.5,0.0,9.5,-1.38,-1.99,moving,10
6.73,27234.551661206,27,3,3,3,0,7.21,-1.16,-1.93,-2.27,0.31,0.04,19.875,6.8125,48.75,0.560302734375,0.24822998046875,-0.73431396484375,0.2918701171875,-18.0,31.375,-0.875,9.49,-1.47,-1.97,moving,10
6.74,27234.551661206,27,3,3,3,0,7.32,-1.04,-2.01,-2.15,0.51,-0.04,26.75,-1.25,47.4375,0.55841064453125,0.24652099609375,-0.7347412109375,0.2958984375,-18.0,31.375,-0.875,9.47,-1.56,-1.97,moving,10
6.75,27234.575384472,27,3,3,3,0,7.73,-0.92,-2.3,-1.72,0.73,-0.32,32.25,-8.3125,45.8125,0.55596923828125,0.245361328125,-0.73529052734375,0.300048828125,-18.0,31.375,-0.875,9.46,-1.65,-1.97,moving,10
6.75,27234.575384472,27,3,3,3,0,7.73,-0.92,-2.3,-1.72,0.73,-0.32,32.25,-8.3125,45.8125,0.55596923828125,0.245361328125,-0.73529052734375,0.300048828125,-18.0,31.375,-0.875,9.46,-1.65,-1.97,moving,10
6.76,27234.578560905,27,3,3,3,0,7.95,-0.89,-2.49,-1.49,0.84,-0.5,36.0625,-12.5625,44.625,0.55322265625,0.24456787109375,-0.73590087890625,0.30426025390625,-18.0,31.375,-0.875,9.44,-1.73,-1.98,moving,10
6.77,27234.578560905,27,3,3,3,0,8.16,-0.86,-2.71,-1.25,0.95,-0.71,37.75,-13.125,43.9375,0.5504150390625,0.243896484375,-0.73651123046875,0.30853271484375,-18.0,31.375,-0.875,9.42,-1.82,-1.99,moving,10
6.78,27234.59623046,27,3,3,3,0,8.81,-1.07,-2.91,-0.58,0.82,-0.91,37.1875,-12.375,42.8125,0.547607421875,0.2432861328125,-0.73699951171875,0.31268310546875,-16.875,32.5,-0.875,9.4,-1.9,-2.0,moving,10
6.78,27234.59623046,27,3,3,3,0,9.12,-1.17,-2.88,-0.26,0.8,-0.86,35.6875,-13.0625,41.875,0.54486083984375,0.24261474609375,-0.737548828125,0.31671142578125,-16.875,32.5,-0.875,9.38,-1.98,-2.01,moving,10
6.8,27234.610486116,27,3,3,3,0,9.42,-1.23,-2.84,0.05,0.82,-0.82,34.25,-12.375,40.125,0.542236328125,0.24200439453125,-0.738037109375,0.320556640625,-16.875,32.5,-0.875,9.37,-2.06,-2.02,moving,10
6.81,27234.610486116,27,3,3,3,0,9.71,-1.31,-2.64,0.36,0.82,-0.61,32.125,-10.5625,39.0,0.53973388671875,0.2413330078125,-0.73846435546875,0.32427978515625,-16.875,32.5,-0.875,9.35,-2.14,-2.03,moving,10
6.82,27234.640803499,27,3,3,3,0,10.42,-1.53,-2.15,1.09,0.67,-0.11,28.3125,-9.125,38.5,0.5374755859375,0.24041748046875,-0.7388916015625,0.32769775390625,-16.875,32.5,-0.875,9.33,-2.21,-2.03,moving,10
6.83,27234.640803499,27,3,3,3,0,10.76,-1.67,-1.91,1.44,0.6,0.12,23.75,-9.0,38.0625,0.5352783203125,0.23931884765625,-0.73944091796875,0.330810546875,-15.75,32.875,-1.5625,9.31,-2.28,-2.04,moving,10
6.84,27234.656322745,27,3,3,3,0,10.98,-1.79,-1.78,1.69,0.55,0.25,20.8125,-8.875,37.3125,0.533203125,0.2381591796875,-0.74005126953125,0.333740234375,-15.75,32.875,-1.5625,9.29,-2.35,-2.04,moving,10
6.85,27234.656322745,27,3,3,3,0,11.15,-1.84,-1.64,1.87,0.56,0.4,18.25,-9.8125,34.375,0.5311279296875,0.237060546875,-0.74066162109375,0.3363037109375,-15.75,32.875,-1.5625,9.27,-2.41,-2.05,moving,10
6.86,27234.677420849,27,3,3,3,0,11.51,-1.91,-1.61,2.25,0.55,0.44,14.8125,-8.9375,32.25,0.529296875,0.23590087890625,-0.7413330078125,0.33856201171875,-15.75,32.875,-1.5625,9.26,-2.47,-2.06,moving,10
6.86,27234.677420849,27,3,3,3,0,11.26,-2.12,-2.02,2.01,0.4,0.03,10.625,-2.625,31.9375,0.5279541015625,0.23443603515625,-0.7418212890625,0.34063720703125,-15.75,32.875,-1.5625,9.24,-2.52,-2.06,moving,10
6.88,27234.700492586,27,3,3,3,0,11.16,-2.22,-2.38,1.92,0.35,-0.33,11.5,4.9375,28.25,0.5272216796875,0.23297119140625,-0.7418212890625,0.34283447265625,-15.0625,33.1875,-2.375,9.23,-2.57,-2.05,moving,10
6.89,27234.700492586,27,3,3,3,0,11.31,-2.31,-2.57,2.08,0.3,-0.53,15.0625,5.3125,23.75,0.5264892578125,0.23199462890625,-0.7415771484375,0.344970703125,-15.0625,33.1875,-2.375,9.22,-2.62,-2.03,moving,10
6.9,27234.715721427,27,3,3,3,0,11.38,-2.38,-2.53,2.16,0.27,-0.51,18.25,5.6875,19.5625,0.52593994140625,0.23138427734375,-0.74114990234375,0.34716796875,-15.0625,33.1875,-2.375,9.22,-2.66,-2.01,moving,10
6.91,27234.715721427,27,3,3,3,0,11.38,-2.45,-2.43,2.17,0.23,-0.44,17.8125,10.875,16.1875,0.5257568359375,0.2308349609375,-0.740478515625,0.34930419921875,-15.0625,33.1875,-2.375,9.21,-2.69,-1.99,moving,10
6.92,27234.730711417,27,3,3,3,0,11.33,-2.52,-2.38,2.12,0.19,-0.42,12.9375,17.8125,13.6875,0.5262451171875,0.22998046875,-0.739501953125,0.35107421875,-15.0625,33.1875,-2.375,9.21,-2.71,-1.95,moving,10
6.93,27234.730711417,27,3,3,3,0,11.18,-2.73,-2.18,1.96,0.0,-0.26,6.375,21.3125,11.625,0.527099609375,0.2288818359375,-0.73858642578125,0.35247802734375,-13.875,33.1875,-3.1875,9.21,-2.73,-1.92,moving,10
6.94,27234.760513135,27,3,3,3,0,11.1,-2.82,-2.03,1.88,-0.07,-0.14,1.0,19.6875,9.3125,0.528076171875,0.22772216796875,-0.73785400390625,0.35333251953125,-13.875,33.1875,-3.1875,9.22,-2.75,-1.88,moving,10
6.95,27234.760513135,27,3,3,3,0,10.98,-2.81,-1.91,1.76,-0.05,-0.04,-3.125,16.375,6.5625,0.52899169921875,0.22662353515625,-0.7373046875,0.353759765625,-13.875,33.1875,-3.1875,9.22,-2.76,-1.86,moving,10
6.95,27234.775464632,27,3,3,3,0,10.47,-2.73,-1.96,1.24,0.03,-0.11,-6.375,15.75,3.75,0.530029296875,0.2255859375,-0.73687744140625,0.35382080078125,-13.875,33.1875,-3.1875,9.22,-2.76,-1.84,moving,10
6.97,27234.775464632,27,3,3,3,0,10.2,-2.66,-2.05,0.97,0.1,-0.23,-9.3125,15.625,0.0,0.53118896484375,0.2247314453125,-0.7364501953125,0.35357666015625,-13.875,33.1875,-3.1875,9.23,-2.76,-1.82,moving,10
6.98,27234.795135571,27,3,3,3,0,10.09,-2.69,-2.14,0.85,0.05,-0.34,-12.3125,13.0,-4.25,0.53240966796875,0.2239990234375,-0.73614501953125,0.352783203125,-13.5625,32.875,-3.1875,9.23,-2.75,-1.8,moving,10
6.99,27234.795135571,27,3,3,3,0,10.06,-2.66,-2.21,0.82,0.06,-0.42,-13.25,8.6875,-9.125,0.53350830078125,0.22369384765625,-0.7359619140625,0.3516845703125,-13.5625,32.875,-3.1875,9.24,-2.73,-1.79,moving,10
7.0,27234.821792025,27,3,3,3,0,9.87,-2.52,-2.4,0.62,0.18,-0.61,-11.1875,7.8125,-13.9375,0.53466796875,0.223876953125,-0.73565673828125,0.3504638671875,-13.5625,32.875,-3.1875,9.25,-2.7,-1.79,moving,10
7.01,27234.821792025,27,3,3,3,0,9.73,-2.32,-2.36,0.47,0.35,-0.58,-8.375,10.5625,-19.8125,0.53607177734375,0.22442626953125,-0.73504638671875,0.34918212890625,-13.5625,32.875,-3.1875,9.26,-2.67,-1.77,moving,10
7.02,27234.844948356,27,3,3,3,0,9.69,-2.18,-2.23,0.41,0.44,-0.47,-7.1875,12.9375,-25.5625,0.537841796875,0.225341796875,-0.734130859375,0.3477783203125,-13.5625,32.875,-3.1875,9.28,-2.63,-1.76,moving,10
7.03,27234.844948356,27,3,3,3,0,9.65,-1.99,-2.06,0.35,0.58,-0.31,-8.3125,13.5,-29.9375,0.539794921875,0.2264404296875,-0.73321533203125,0.34613037109375,-13.1875,34.0,-3.5,9.29,-2.57,-1.74,moving,10
7.04,27234.850446199,27,3,3,3,0,9.54,-1.71,-1.87,0.22,0.8,-0.15,-11.0,16.0,-34.125,0.54205322265625,0.2276611328125,-0.73211669921875,0.3441162109375,-13.1875,34.0,-3.5,9.31,-2.52,-1.72,moving,10
7.05,27234.850446199,27,3,3,3,0,9.45,-1.66,-1.88,0.1,0.78,-0.18,-14.3125,18.1875,-38.25,0.54461669921875,0.2288818359375,-0.73089599609375,0.34173583984375,-13.1875,34.0,-3.5,9.34,-2.45,-1.69,moving,10
7.06,27234.880702181,27,3,3,3,0,9.43,-1.68,-1.83,0.07,0.69,-0.15,-16.375,17.4375,-42.4375,0.54736328125,0.23028564453125,-0.729736328125,0.3389892578125,-13.1875,34.0,-3.5,9.36,-2.37,-1.67,moving,10
7.07,27234.880702181,27,3,3,3,0,9.29,-1.64,-1.89,-0.09,0.65,-0.23,-17.25,15.3125,-45.875,0.54998779296875,0.23193359375,-0.72857666015625,0.33599853515625,-13.1875,34.0,-3.5,9.38,-2.29,-1.65,moving,10
7.08,27234.895961214,27,3,3,3,0,9.2,-1.63,-1.89,-0.2,0.57,-0.25,-17.375,15.0,-50.0,0.55279541015625,0.23382568359375,-0.72735595703125,0.332763671875,-14.6875,33.5625,-3.1875,9.41,-2.21,-1.64,moving,10
7.09,27234.895961214,27,3,3,3,0,9.08,-1.65,-1.91,-0.34,0.46,-0.29,-18.1875,14.5625,-54.0625,0.5556640625,0.2359619140625,-0.72607421875,0.32928466796875,-14.6875,33.5625,-3.1875,9.43,-2.11,-1.62,moving,10
7.1,27234.910425447,27,3,3,3,0,8.98,-1.68,-1.91,-0.47,0.33,-0.3,-18.8125,13.8125,-56.25,0.55853271484375,0.23822021484375,-0.7247314453125,0.32562255859375,-14.6875,33.5625,-3.1875,9.46,-2.01,-1.6,moving,10
7.11,27234.910425447,27,3,3,3,0,8.76,-1.84,-1.84,-0.72,0.07,-0.24,-18.4375,13.375,-58.5,0.5614013671875,0.24066162109375,-0.723388671875,0.3218994140625,-14.6875,33.5625,-3.1875,9.48,-1.91,-1.59,moving,10
7.12,27234.940944531,27,3,3,3,0,8.68,-1.86,-1.76,-0.82,-0.05,-0.19,-15.8125,12.125,-60.625,0.564208984375,0.24334716796875,-0.72198486328125,0.31817626953125,-14.6875,33.5625,-3.1875,9.5,-1.81,-1.57,moving,10
7.13,27234.940944531,27,3,3,3,0,8.64,-1.78,-1.64,-0.88,-0.08,-0.07,-11.375,8.375,-62.75,0.56671142578125,0.24652099609375,-0.72052001953125,0.31451416015625,-16.5,32.875,-3.875,9.52,-1.7,-1.56,moving,10
7.14,27234.955732251,27,3,3,3,0,8.59,-1.67,-1.51,-0.95,-0.08,0.05,-7.3125,2.4375,-64.25,0.56878662109375,0.2501220703125,-0.71923828125,0.3109130859375,-16.5,32.875,-3.875,9.54,-1.59,-1.56,moving,10
7.15,27234.955732251,27,3,3,3,0,8.53,-1.34,-1.32,-1.02,0.13,0.24,-5.375,-4.25,-64.5625,0.57037353515625,0.2540283203125,-0.7181396484375,0.3072509765625,-16.5,32.875,-3.875,9.56,-1.48,-1.57,moving,10
7.16,27234.971632479,27,3,3,3,0,8.54,-1.23,-1.29,-1.03,0.14,0.3,-6.0625,-10.6875,-64.125,0.571533203125,0.258056640625,-0.7174072265625,0.303466796875,-16.5,32.875,-3.875,9.57,-1.37,-1.59,moving,10
7.17,27234.971632479,27,3,3,3,0,8.49,-1.14,-1.29,-1.09,0.12,0.33,-8.9375,-17.875,-63.1875,0.572265625,0.26202392578125,-0.71710205078125,0.29931640625,-16.5,32.875,-3.875,9.58,-1.26,-1.62,moving,10
7.18,27235.001548738,27,3,3,3,0,8.33,-0.97,-1.36,-1.25,0.18,0.3,-12.3125,-22.75,-61.125,0.57269287109375,0.26580810546875,-0.7171630859375,0.29498291015625,-18.0,31.0,-3.5,9.59,-1.16,-1.66,moving,10
7.19,27235.001548738,27,3,3,3,0,8.24,-0.93,-1.43,-1.35,0.11,0.27,-16.125,-25.75,-59.3125,0.572998046875,0.2694091796875,-0.71746826171875,0.2904052734375,-18.0,31.0,-3.5,9.59,-1.05,-1.71,moving,10
7.2,27235.015836011,27,3,3,3,0,8.09,-0.85,-1.52,-1.5,0.09,0.24,-18.8125,-28.0,-56.9375,0.5731201171875,0.272705078125,-0.718017578125,0.28570556640625,-18.0,31.0,-3.5,9.59,-0.95,-1.76,moving,10
7.2,27235.015836011,27,3,3,3,0,8.09,-0.85,-1.52,-1.5,0.09,0.24,-18.8125,-28.0,-56.9375,0.5731201171875,0.272705078125,-0.718017578125,0.28570556640625,-18.0,31.0,-3.5,9.59,-0.95,-1.76,moving,10
7.21,27235.030073804,27,3,3,3,0,7.93,-0.75,-1.46,-1.66,0.1,0.34,-19.75,-29.375,-54.875,0.57305908203125,0.27593994140625,-0.71868896484375,0.281005859375,-18.0,31.0,-3.5,9.59,-0.85,-1.81,moving,10
7.22,27235.030073804,27,3,3,3,0,7.6,-0.32,-1.38,-1.99,0.43,0.48,-20.1875,-28.4375,-54.125,0.5731201171875,0.27899169921875,-0.71929931640625,0.27630615234375,-18.0,31.0,-3.5,9.59,-0.76,-1.86,moving,10
7.23,27235.047712598,27,3,3,3,0,7.44,-0.05,-1.23,-2.14,0.6,0.67,-21.3125,-26.9375,-53.5625,0.5732421875,0.28192138671875,-0.7198486328125,0.2716064453125,-19.375,30.25,-2.375,9.59,-0.66,-1.91,moving,10
7.24,27235.047712598,27,3,3,3,0,7.52,0.12,-1.19,-2.06,0.69,0.76,-23.75,-25.5625,-53.6875,0.57342529296875,0.28472900390625,-0.7203369140625,0.26678466796875,-19.375,30.25,-2.375,9.59,-0.56,-1.96,moving,10
7.25,27235.059694002,27,3,3,3,0,7.55,0.28,-0.99,-2.03,0.75,1.0,-26.3125,-26.6875,-53.9375,0.57366943359375,0.28741455078125,-0.720947265625,0.26177978515625,-19.375,30.25,-2.375,9.58,-0.46,-2.0,moving,10
7.26,27235.059694002,27,3,3,3,0,7.73,0.28,-0.84,-1.85,0.65,1.19,-25.0625,-21.8125,-52.625,0.5740966796875,0.28997802734375,-0.72125244140625,0.25701904296875,-19.375,30.25,-2.375,9.58,-0.37,-2.04,moving,10
7.27,27235.091717521,27,3,3,3,0,7.62,0.41,-0.88,-1.96,0.68,1.18,-18.875,-11.6875,-52.0625,0.57501220703125,0.2926025390625,-0.720947265625,0.2529296875,-19.375,30.25,-2.375,9.58,-0.27,-2.06,moving,10
7.28,27235.091717521,27,3,3,3,0,7.57,0.53,-0.96,-2.0,0.71,1.11,-12.0625,-5.25,-51.75,0.57611083984375,0.29534912109375,-0.72015380859375,0.2493896484375,-20.875,30.25,-1.1875,9.58,-0.18,-2.07,moving,10
7.29,27235.109337598,27,3,3,3,0,8.02,0.23,-1.58,-1.55,0.33,0.5,-11.0625,-8.0625,-50.25,0.5770263671875,0.29815673828125,-0.719482421875,0.2459716796875,-20.875,30.25,-1.1875,9.58,-0.09,-2.09,moving,10
7.3,27235.109337598,27,3,3,3,0,8.26,0.01,-2.13,-1.3,0.02,-0.03,-13.3125,-10.0625,-45.0,0.57769775390625,0.300537109375,-0.7191162109375,0.24261474609375,-20.875,30.25,-1.1875,9.57,-0.01,-2.1,moving,10
7.31,27235.122886833,27,3,3,3,0,8.48,-0.1,-2.69,-1.09,-0.16,-0.58,-18.3125,-6.5,-39.8125,0.57861328125,0.30224609375,-0.71881103515625,0.2392578125,-20.875,30.25,-1.1875,9.57,0.05,-2.11,moving,10
7.32,27235.122886833,27,3,3,3,0,8.63,-0.27,-3.15,-0.94,-0.39,-1.04,-21.75,2.0625,-35.4375,0.58001708984375,0.30328369140625,-0.71820068359375,0.23614501953125,-20.875,30.25,-1.1875,9.57,0.12,-2.11,moving,10
7.33,27235.155314567,27,3,3,3,0,8.94,-0.34,-3.41,-0.62,-0.53,-1.31,-19.625,8.0,-32.3125,0.58172607421875,0.30419921875,-0.71734619140625,0.23345947265625,-23.0625,29.1875,-0.375,9.57,0.18,-2.1,moving,10
7.34,27235.155314567,27,3,3,3,0,9.44,-0.44,-3.22,-0.13,-0.68,-1.13,-8.3125,4.375,-30.1875,0.58282470703125,0.3055419921875,-0.71649169921875,0.23150634765625,-23.0625,29.1875,-0.375,9.57,0.23,-2.09,moving,10
7.35,27235.165745068,27,3,3,3,0,10.14,-0.36,-2.95,0.57,-0.64,-0.84,6.4375,-6.875,-28.3125,0.582763671875,0.30780029296875,-0.7159423828125,0.23028564453125,-23.0625,29.1875,-0.375,9.57,0.28,-2.1,moving,10
7.36,27235.165745068,27,3,3,3,0,12.02,0.0,-2.1,2.46,-0.31,0.03,16.5625,-20.75,-24.5,0.58154296875,0.31060791015625,-0.71600341796875,0.2294921875,-23.0625,29.1875,-0.375,9.56,0.31,-2.14,moving,10
7.37,27235.184540723,27,3,3,3,0,12.84,0.35,-1.27,3.28,0.0,0.9,19.125,-25.8125,-20.6875,0.579833984375,0.31341552734375,-0.71636962890625,0.22894287109375,-23.0625,29.1875,-0.375,9.55,0.34,-2.18,moving,10
7.38,27235.184540723,27,3,3,3,0,13.14,0.5,-1.68,3.59,0.14,0.51,11.3125,-6.625,-13.375,0.579345703125,0.31494140625,-0.71612548828125,0.22882080078125,-24.5625,28.0625,0.0,9.55,0.36,-2.19,moving,10
7.39,27235.210721916,27,3,3,3,0,12.89,0.11,-2.2,3.34,-0.26,-0.03,-5.875,15.875,-5.9375,0.58062744140625,0.314697265625,-0.71527099609375,0.22857666015625,-24.5625,28.0625,0.0,9.55,0.37,-2.16,moving,10
7.4,27235.210721916,27,3,3,3,0,12.86,-0.13,-2.58,3.3,-0.52,-0.42,-13.3125,4.5,-3.4375,0.58135986328125,0.31414794921875,-0.7152099609375,0.2276611328125,-24.5625,28.0625,0.0,9.55,0.38,-2.16,moving,10
7.41,27235.225299552,27,3,3,3,0,12.74,0.04,-2.76,3.19,-0.34,-0.57,-9.6875,-16.0,-2.0,0.58062744140625,0.31414794921875,-0.71612548828125,0.22650146484375,-24.5625,28.0625,0.0,9.55,0.39,-2.18,moving,10
7.42,27235.225299552,27,3,3,3,0,12.56,0.1,-2.89,3.02,-0.29,-0.66,-1.4375,-25.4375,-1.75,0.5791015625,0.31463623046875,-0.7174072265625,0.22564697265625,-24.5625,28.0625,0.0,9.54,0.39,-2.23,moving,10
7.43,27235.243059115,27,3,3,3,0,12.25,0.12,-2.89,2.72,-0.27,-0.62,7.4375,-23.375,-2.1875,0.5775146484375,0.31561279296875,-0.7183837890625,0.225341796875,-23.875,28.0625,1.5,9.53,0.39,-2.26,moving,10
7.44,27235.243059115,27,3,3,3,0,11.7,0.32,-2.54,2.18,-0.06,-0.24,14.5,-15.3125,-1.25,0.576171875,0.3167724609375,-0.7188720703125,0.22576904296875,-23.875,28.0625,1.5,9.52,0.39,-2.29,moving,10
7.45,27235.255685254,27,3,3,3,0,11.33,0.33,-2.38,1.81,-0.04,-0.06,14.8125,-13.0,2.625,0.57489013671875,0.31756591796875,-0.71929931640625,0.22650146484375,-23.875,28.0625,1.5,9.52,0.38,-2.31,moving,10
7.45,27235.255685254,27,3,3,3,0,11.33,0.33,-2.38,1.81,-0.04,-0.06,14.8125,-13.0,2.625,0.57489013671875,0.31756591796875,-0.71929931640625,0.22650146484375,-23.875,28.0625,1.5,9.52,0.38,-2.31,moving,10
7.46,27235.269741406,27,3,3,3,0,11.03,0.14,-2.28,1.51,-0.22,0.05,5.9375,-11.6875,8.0625,0.57379150390625,0.317626953125,-0.719970703125,0.2269287109375,-23.875,28.0625,1.5,9.51,0.37,-2.33,moving,10
7.47,27235.269741406,27,3,3,3,0,10.76,-0.33,-1.76,1.25,-0.67,0.59,-3.5625,-10.6875,14.25,0.57293701171875,0.3167724609375,-0.720947265625,0.22711181640625,-23.875,28.0625,1.5,9.51,0.34,-2.35,moving,10
7.48,27235.301833,27,3,3,3,0,10.29,-0.45,-1.63,0.78,-0.77,0.72,-7.0625,-3.4375,19.25,0.57257080078125,0.31524658203125,-0.7218017578125,0.2275390625,-23.5,28.875,0.25,9.51,0.31,-2.36,moving,10
7.49,27235.301833,27,3,3,3,0,10.11,-0.38,-1.54,0.59,-0.67,0.8,-3.875,5.375,22.8125,0.57257080078125,0.3134765625,-0.72222900390625,0.22857666015625,-23.5,28.875,0.25,9.51,0.28,-2.35,moving,10
7.5,27235.315799512,27,3,3,3,0,9.99,-0.29,-1.37,0.47,-0.53,0.96,1.1875,8.0625,25.0,0.572509765625,0.31182861328125,-0.72247314453125,0.23016357421875,-23.5,28.875,0.25,9.52,0.24,-2.33,moving,10
7.51,27235.315799512,27,3,3,3,0,9.49,-0.16,-1.52,-0.03,-0.36,0.79,1.625,16.75,28.4375,0.572998046875,0.30975341796875,-0.722412109375,0.23211669921875,-23.5,28.875,0.25,9.52,0.19,-2.31,moving,10
7.52,27235.330119499,27,3,3,3,0,9.11,-0.2,-1.76,-0.43,-0.34,0.49,-3.1875,31.5,32.8125,0.57440185546875,0.306884765625,-0.7218017578125,0.23443603515625,-23.5,28.875,0.25,9.54,0.13,-2.25,moving,10
7.53,27235.330119499,27,3,3,3,0,8.71,-0.31,-1.93,-0.84,-0.39,0.24,-7.5,42.75,36.875,0.5765380859375,0.3033447265625,-0.72076416015625,0.2369384765625,-23.5,28.0625,0.25,9.55,0.08,-2.18,moving,10
7.54,27235.364650708,27,3,3,3,0,8.33,-0.37,-2.12,-1.24,-0.39,-0.01,-7.125,47.5,40.25,0.578857421875,0.2994384765625,-0.71954345703125,0.23974609375,-23.5,28.0625,0.25,9.57,0.01,-2.1,moving,10
7.55,27235.364650708,27,3,3,3,0,7.82,-0.43,-2.36,-1.77,-0.38,-0.33,-2.8125,46.75,41.9375,0.58099365234375,0.295654296875,-0.7183837890625,0.242919921875,-23.5,28.0625,0.25,9.59,-0.05,-2.02,moving,10
7.56,27235.379063631,27,3,3,3,0,7.82,-0.57,-2.37,-1.78,-0.45,-0.41,1.4375,40.6875,42.8125,0.58258056640625,0.29217529296875,-0.71734619140625,0.2462158203125,-23.5,28.0625,0.25,9.6,-0.12,-1.96,moving,10
7.57,27235.379063631,27,3,3,3,0,7.62,-0.51,-2.33,-1.99,-0.31,-0.43,6.125,38.0625,46.0,0.58380126953125,0.288818359375,-0.7164306640625,0.24993896484375,-23.5,28.0625,0.25,9.61,-0.2,-1.89,moving,10
7.58,27235.390740389,27,3,3,3,0,7.0,-0.66,-2.33,-2.62,-0.37,-0.51,9.75,42.875,48.8125,0.58514404296875,0.2852783203125,-0.71527099609375,0.25408935546875,-22.375,28.5,-1.1875,9.63,-0.29,-1.82,moving,10
7.59,27235.390740389,27,3,3,3,0,6.74,-0.73,-2.22,-2.9,-0.35,-0.47,11.125,43.125,50.1875,0.58648681640625,0.28179931640625,-0.71405029296875,0.2584228515625,-22.375,28.5,-1.1875,9.64,-0.37,-1.75,moving,10
7.6,27235.421752433,27,3,3,3,0,6.57,-0.82,-2.07,-3.07,-0.34,-0.38,11.5,38.5,52.875,0.58740234375,0.2781982421875,-0.713134765625,0.2628173828125,-22.375,28.5,-1.1875,9.64,-0.47,-1.68,moving,10
7.61,27235.421752433,27,3,3,3,0,6.39,-0.85,-1.87,-3.25,-0.29,-0.25,13.75,34.6875,55.125,0.587890625,0.274658203125,-0.71234130859375,0.267333984375,-22.375,28.5,-1.1875,9.65,-0.56,-1.62,moving,10
7.62,27235.440489982,27,3,3,3,0,6.22,-1.04,-1.58,-3.42,-0.37,-0.01,16.875,32.875,56.4375,0.5882568359375,0.271240234375,-0.71160888671875,0.2720947265625,-22.375,28.5,-1.1875,9.65,-0.66,-1.56,moving,10
7.63,27235.440489982,27,3,3,3,0,6.21,-1.13,-1.5,-3.43,-0.36,0.0,20.0625,30.4375,58.0,0.5882568359375,0.2679443359375,-0.7109375,0.2769775390625,-20.5625,29.875,-2.0,9.65,-0.77,-1.51,moving,10
7.64,27235.451272453,27,3,3,3,0,6.22,-1.26,-1.42,-3.42,-0.38,0.03,23.0625,27.8125,59.25,0.5880126953125,0.2647705078125,-0.7103271484375,0.2821044921875,-20.5625,29.875,-2.0,9.65,-0.87,-1.46,moving,10
7.65,27235.451272453,27,3,3,3,0,6.27,-1.31,-1.4,-3.38,-0.33,0.01,25.5625,24.6875,60.4375,0.58740234375,0.26171875,-0.70977783203125,0.28741455078125,-20.5625,29.875,-2.0,9.65,-0.98,-1.41,moving,10
7.66,27235.483179802,27,3,3,3,0,6.47,-1.5,-1.3,-3.17,-0.41,0.07,27.25,20.625,60.75,0.5865478515625,0.25885009765625,-0.70947265625,0.29266357421875,-20.5625,29.875,-2.0,9.64,-1.09,-1.37,moving,10
7.67,27235.483179802,27,3,3,3,0,6.55,-1.61,-1.15,-3.08,-0.41,0.19,32.0625,14.5625,60.875,0.58514404296875,0.25634765625,-0.709228515625,0.298095703125,-20.5625,29.875,-2.0,9.63,-1.2,-1.34,moving,10
7.68,27235.497313591,27,3,3,3,0,6.51,-1.7,-0.84,-3.11,-0.38,0.48,41.25,5.0,60.1875,0.58294677734375,0.25457763671875,-0.709228515625,0.3038330078125,-20.1875,31.0,-3.1875,9.62,-1.31,-1.33,moving,10
7.69,27235.497313591,27,3,3,3,0,6.51,-1.49,-0.67,-3.09,-0.06,0.64,49.75,-3.0625,60.0,0.580078125,0.25347900390625,-0.70941162109375,0.30987548828125,-20.1875,31.0,-3.1875,9.61,-1.42,-1.32,moving,10
7.7,27235.510334831,27,3,3,3,0,6.76,-1.28,-0.71,-2.82,0.25,0.61,49.0,-9.875,61.75,0.57666015625,0.25238037109375,-0.7099609375,0.3157958984375,-20.1875,31.0,-3.1875,9.59,-1.54,-1.32,moving,10
7.71,27235.510334831,27,3,3,3,0,7.18,-1.24,-0.74,-2.38,0.41,0.6,40.1875,-17.8125,63.875,0.5728759765625,0.25091552734375,-0.71112060546875,0.32110595703125,-20.1875,31.0,-3.1875,9.57,-1.65,-1.34,moving,10
7.71,27235.52572985,27,3,3,3,0,7.18,-1.24,-0.74,-2.38,0.41,0.6,40.1875,-17.8125,63.875,0.5728759765625,0.25091552734375,-0.71112060546875,0.32110595703125,-20.1875,31.0,-3.1875,9.57,-1.65,-1.34,moving,10
7.72,27235.52572985,27,3,3,3,0,7.59,-1.25,-0.8,-1.94,0.52,0.57,29.9375,-21.0,65.875,0.569091796875,0.2489013671875,-0.7127685546875,0.3258056640625,-20.1875,31.0,-3.1875,9.54,-1.77,-1.37,moving,10
7.73,27235.545680941,27,3,3,3,0,8.59,-1.5,-1.59,-0.92,0.39,-0.2,21.75,-17.25,66.625,0.56561279296875,0.246337890625,-0.71441650390625,0.330078125,-18.6875,31.375,-3.5,9.52,-1.89,-1.39,moving,10
7.74,27235.545680941,27,3,3,3,0,9.34,-1.84,-2.24,-0.15,0.16,-0.83,18.5,-16.25,66.8125,0.562255859375,0.2435302734375,-0.71612548828125,0.334228515625,-18.6875,31.375,-3.5,9.49,-2.0,-1.41,moving,10
7.75,27235.570996371,27,3,3,3,0,10.3,-2.15,-2.9,0.83,-0.02,-1.45,23.125,-27.1875,65.3125,0.55816650390625,0.24139404296875,-0.71820068359375,0.3382568359375,-18.6875,31.375,-3.5,9.46,-2.12,-1.45,moving,10
7.76,27235.570996371,27,3,3,3,0,11.38,-2.23,-3.4,1.95,0.0,-1.88,34.75,-47.125,63.4375,0.55255126953125,0.240478515625,-0.72076416015625,0.342529296875,-18.6875,31.375,-3.5,9.42,-2.23,-1.51,moving,10
7.77,27235.587408805,27,3,3,3,0,13.83,-2.0,-3.1,4.45,0.33,-1.5,46.6875,-64.5,58.9375,0.54571533203125,0.240966796875,-0.72369384765625,0.34698486328125,-18.6875,31.375,-3.5,9.38,-2.34,-1.6,moving,10
7.78,27235.587408805,27,3,3,3,0,14.79,-1.93,-2.7,5.44,0.5,-1.02,49.8125,-63.875,51.0,0.5390625,0.24200439453125,-0.72625732421875,0.3511962890625,-15.75,32.5,-2.6875,9.34,-2.44,-1.68,moving,10
7.79,27235.600175407,27,3,3,3,0,15.23,-2.43,-2.43,5.91,0.08,-0.69,40.6875,-44.0625,41.625,0.53411865234375,0.24267578125,-0.72796630859375,0.35479736328125,-15.75,32.5,-2.6875,9.31,-2.52,-1.74,moving,10
7.8,27235.600175407,27,3,3,3,0,14.55,-2.52,-1.77,5.26,0.06,-0.01,31.125,-21.375,36.0,0.531005859375,0.24249267578125,-0.728759765625,0.35797119140625,-15.75,32.5,-2.6875,9.29,-2.59,-1.76,moving,10
7.81,27235.635766024,27,3,3,3,0,13.98,-2.61,-1.37,4.71,0.04,0.39,29.0625,-11.5625,34.625,0.528564453125,0.24200439453125,-0.7291259765625,0.3612060546875,-15.75,32.5,-2.6875,9.27,-2.65,-1.76,moving,10
7.82,27235.635766024,27,3,3,3,0,13.53,-2.74,-1.41,4.27,-0.03,0.35,19.5625,-11.25,32.6875,0.5263671875,0.24114990234375,-0.729736328125,0.36370849609375,-15.75,32.5,-2.6875,9.25,-2.71,-1.77,moving,10
7.83,27235.64619091,27,3,3,3,0,12.94,-3.02,-1.66,3.71,-0.25,0.13,7.125,-13.9375,29.8125,0.5244140625,0.24005126953125,-0.73077392578125,0.365234375,-14.25,33.1875,-3.1875,9.23,-2.76,-1.79,moving,10
7.84,27235.64619091,27,3,3,3,0,12.11,-3.31,-3.18,2.9,-0.5,-1.36,-3.0625,-16.4375,27.3125,0.52252197265625,0.2386474609375,-0.732177734375,0.36590576171875,-14.25,33.1875,-3.1875,9.21,-2.8,-1.82,moving,10
7.85,27235.660154492,27,3,3,3,0,12.03,-3.61,-3.81,2.83,-0.76,-1.95,-10.375,-18.625,24.0625,0.52081298828125,0.23724365234375,-0.73388671875,0.365966796875,-14.25,33.1875,-3.1875,9.19,-2.84,-1.86,moving,10
7.86,27235.660154492,27,3,3,3,0,12.2,-3.87,-3.97,3.02,-1.0,-2.06,-12.0625,-23.1875,18.0625,0.51898193359375,0.23626708984375,-0.73565673828125,0.36553955078125,-14.25,33.1875,-3.1875,9.18,-2.86,-1.9,moving,10
7.87,27235.692119377,27,3,3,3,0,12.3,-3.54,-3.9,3.13,-0.65,-1.97,-4.5625,-16.4375,7.875,0.51776123046875,0.236083984375,-0.73675537109375,0.365234375,-14.25,33.1875,-3.1875,9.17,-2.88,-1.93,moving,10
7.88,27235.692119377,27,3,3,3,0,11.74,-2.39,-2.7,2.57,0.48,-0.78,9.6875,-0.25,-2.5625,0.51763916015625,0.2366943359375,-0.73638916015625,0.36572265625,-14.6875,34.6875,-4.25,9.17,-2.87,-1.92,moving,10
7.89,27235.705187696,27,3,3,3,0,11.55,-2.04,-1.76,2.36,0.82,0.13,14.5,9.6875,-11.5625,0.518310546875,0.23779296875,-0.7352294921875,0.3663330078125,-14.6875,34.6875,-4.25,9.18,-2.86,-1.9,moving,10
7.9,27235.705187696,27,3,3,3,0,11.36,-1.73,-1.02,2.16,1.09,0.85,5.3125,15.6875,-18.25,0.519775390625,0.23870849609375,-0.7340087890625,0.3662109375,-14.6875,34.6875,-4.25,9.19,-2.83,-1.87,moving,10
7.91,27235.719599398,27,3,3,3,0,10.53,-1.67,-0.64,1.31,1.12,1.19,-14.125,25.875,-22.0,0.5224609375,0.2386474609375,-0.7327880859375,0.36480712890625,-14.6875,34.6875,-4.25,9.21,-2.79,-1.84,moving,10
7.92,27235.719599398,27,3,3,3,0,9.94,-1.78,-1.07,0.7,0.95,0.72,-35.0625,39.375,-25.0,0.5264892578125,0.2374267578125,-0.7315673828125,0.36224365234375,-14.6875,34.6875,-4.25,9.24,-2.74,-1.79,moving,10
7.93,27235.750372958,27,3,3,3,0,9.46,-1.8,-1.65,0.19,0.87,0.08,-50.25,47.6875,-29.0,0.531494140625,0.2354736328125,-0.7303466796875,0.358642578125,-13.875,34.25,-4.6875,9.26,-2.68,-1.74,moving,10
7.94,27235.750372958,27,3,3,3,0,9.2,-1.86,-2.16,-0.09,0.74,-0.47,-57.8125,46.75,-33.875,0.53668212890625,0.23345947265625,-0.72930908203125,0.3543701171875,-13.875,34.25,-4.6875,9.29,-2.61,-1.69,moving,10
7.95,27235.769828239,27,3,3,3,0,9.0,-1.95,-2.79,-0.32,0.57,-1.14,-60.4375,43.875,-38.75,0.54193115234375,0.23175048828125,-0.728271484375,0.34954833984375,-13.875,34.25,-4.6875,9.32,-2.53,-1.64,moving,10
7.96,27235.769828239,27,3,3,3,0,8.75,-1.88,-2.9,-0.61,0.55,-1.3,-57.8125,47.0,-44.0,0.54742431640625,0.2303466796875,-0.7269287109375,0.3447265625,-13.875,34.25,-4.6875,9.36,-2.44,-1.59,moving,10
7.97,27235.781264356,27,3,3,3,0,8.42,-1.83,-2.89,-0.97,0.5,-1.36,-49.0625,54.25,-50.6875,0.5533447265625,0.2296142578125,-0.72479248046875,0.34027099609375,-13.875,34.25,-4.6875,9.39,-2.34,-1.53,moving,10
7.97,27235.781264356,27,3,3,3,0,8.42,-1.83,-2.89,-0.97,0.5,-1.36,-49.0625,54.25,-50.6875,0.5533447265625,0.2296142578125,-0.72479248046875,0.34027099609375,-13.875,34.25,-4.6875,9.39,-2.34,-1.53,moving,10
7.98,27235.796400342,27,3,3,3,0,7.89,-1.69,-2.66,-1.54,0.54,-1.21,-37.4375,57.875,-57.5625,0.5594482421875,0.229736328125,-0.721923828125,0.3363037109375,-14.25,33.5625,-4.25,9.43,-2.24,-1.45,moving,10
7.99,27235.796400342,27,3,3,3,0,7.88,-1.61,-2.46,-1.58,0.51,-1.08,-26.625,51.3125,-62.9375,0.5650634765625,0.23089599609375,-0.71893310546875,0.33251953125,-14.25,33.5625,-4.25,9.47,-2.13,-1.37,moving,10
8.0,27235.809848096,27,3,3,3,0,7.76,-1.38,-2.05,-1.73,0.63,-0.74,-17.0625,42.625,-67.1875,0.57000732421875,0.2330322265625,-0.7159423828125,0.3289794921875,-14.25,33.5625,-4.25,9.5,-2.01,-1.31,moving,10
8.01,27235.809848096,27,3,3,3,0,7.69,-1.06,-1.73,-1.84,0.83,-0.48,-9.3125,41.4375,-70.875,0.57476806640625,0.23577880859375,-0.71270751953125,0.32568359375,-14.25,33.5625,-4.25,9.54,-1.89,-1.24,moving,10
8.02,27235.841653394,27,3,3,3,0,7.9,-0.96,-0.95,-1.66,0.8,0.23,-10.125,33.9375,-73.125,0.57916259765625,0.2388916015625,-0.70977783203125,0.32208251953125,-14.25,33.5625,-4.25,9.57,-1.77,-1.19,moving,10
8.03,27235.841653394,27,3,3,3,0,8.1,-0.86,-0.6,-1.49,0.78,0.54,-16.0,25.6875,-71.4375,0.58306884765625,0.24176025390625,-0.7073974609375,0.3179931640625,-16.5,33.1875,-3.1875,9.59,-1.64,-1.15,moving,10
8.04,27235.855235059,27,3,3,3,0,8.36,-0.94,-0.66,-1.25,0.58,0.46,-24.5625,18.875,-67.875,0.586669921875,0.24420166015625,-0.7056884765625,0.31341552734375,-16.5,33.1875,-3.1875,9.62,-1.52,-1.13,moving,10
8.05,27235.855235059,27,3,3,3,0,8.44,-0.91,-0.88,-1.19,0.5,0.22,-32.4375,12.75,-64.1875,0.58984375,0.24615478515625,-0.70452880859375,0.30841064453125,-16.5,33.1875,-3.1875,9.63,-1.41,-1.11,moving,10
8.06,27235.869830965,27,3,3,3,0,8.54,-0.9,-1.71,-1.11,0.4,-0.59,-38.0,1.0625,-60.4375,0.59234619140625,0.24786376953125,-0.70416259765625,0.30291748046875,-16.5,33.1875,-3.1875,9.65,-1.3,-1.12,moving,10
8.07,27235.869830965,27,3,3,3,0,8.32,-0.73,-1.97,-1.33,0.45,-0.81,-39.625,-14.4375,-58.5,0.5938720703125,0.24981689453125,-0.7047119140625,0.29718017578125,-16.5,33.1875,-3.1875,9.66,-1.19,-1.15,moving,10
8.08,27235.901204623,27,3,3,3,0,8.17,-0.5,-2.08,-1.49,0.59,-0.86,-38.375,-30.25,-56.125,0.59429931640625,0.2520751953125,-0.7060546875,0.29119873046875,-18.375,32.0625,-3.1875,9.66,-1.09,-1.21,moving,10
8.09,27235.901204623,27,3,3,3,0,7.81,-0.07,-2.01,-1.85,0.91,-0.71,-38.5625,-45.75,-55.1875,0.59368896484375,0.254638671875,-0.70819091796875,0.284912109375,-18.375,32.0625,-3.1875,9.66,-0.99,-1.3,moving,10
8.1,27235.915377678,27,3,3,3,0,7.65,0.01,-1.96,-2.01,0.9,-0.56,-37.5,-55.5,-54.0625,0.5924072265625,0.25738525390625,-0.71075439453125,0.278564453125,-18.375,32.0625,-3.1875,9.66,-0.89,-1.4,moving,10
8.11,27235.915377678,27,3,3,3,0,7.54,0.12,-1.86,-2.1,0.91,-0.35,-33.125,-61.125,-54.375,0.5906982421875,0.26055908203125,-0.7135009765625,0.27227783203125,-18.375,32.0625,-3.1875,9.65,-0.79,-1.5,moving,10
8.12,27235.931011833,27,3,3,3,0,7.6,0.19,-1.78,-2.03,0.88,-0.16,-26.3125,-65.625,-53.625,0.58843994140625,0.26409912109375,-0.71624755859375,0.266357421875,-18.375,32.0625,-3.1875,9.64,-0.69,-1.62,moving,10
8.13,27235.931011833,27,3,3,3,0,8.34,0.01,-2.04,-1.28,0.61,-0.29,-22.6875,-72.625,-50.875,0.5855712890625,0.267822265625,-0.71929931640625,0.26068115234375,-19.375,31.0,-1.5625,9.63,-0.6,-1.74,moving,10
8.14,27235.961772575,27,3,3,3,0,8.76,0.03,-2.01,-0.85,0.54,-0.13,-25.3125,-76.5,-47.5625,0.58245849609375,0.271240234375,-0.72265625,0.25482177734375,-19.375,31.0,-1.5625,9.61,-0.51,-1.87,stop,10
8.15,27235.961772575,27,3,3,3,0,9.15,0.12,-2.09,-0.43,0.55,-0.1,-30.9375,-63.875,-44.5,0.58013916015625,0.27392578125,-0.72552490234375,0.24908447265625,-19.375,31.0,-1.5625,9.59,-0.42,-1.98,stop,10
8.16,27235.975890373,27,3,3,3,0,9.23,0.08,-1.93,-0.34,0.43,0.12,-38.25,-40.5625,-41.375,0.579345703125,0.27545166015625,-0.7274169921875,0.24359130859375,-19.375,31.0,-1.5625,9.58,-0.34,-2.05,stop,10
8.17,27235.975890373,27,3,3,3,0,9.5,-0.37,-1.64,-0.07,-0.1,0.45,-40.0,-19.0625,-41.1875,0.5799560546875,0.2764892578125,-0.72821044921875,0.23846435546875,-19.375,31.0,-1.5625,9.57,-0.26,-2.09,stop,10
8.18,27235.991438265,27,3,3,3,0,9.89,-0.44,-1.3,0.31,-0.26,0.79,-33.25,-8.0625,-41.25,0.58111572265625,0.277587890625,-0.72833251953125,0.23406982421875,-20.875,29.5,0.0,9.57,-0.17,-2.1,stop,10
8.19,27235.991438265,27,3,3,3,0,10.36,-0.4,-0.91,0.79,-0.3,1.19,-25.375,-0.375,-40.125,0.58251953125,0.27886962890625,-0.7279052734375,0.23040771484375,-20.875,29.5,0.0,9.57,-0.1,-2.11,stop,10
8.2,27236.021719027,27,3,3,3,0,11.36,-0.38,-0.08,1.77,-0.35,2.0,-24.75,12.5,-39.0,0.584716796875,0.27984619140625,-0.726806640625,0.22711181640625,-20.875,29.5,0.0,9.58,-0.02,-2.08,stop,10
8.21,27236.021719027,27,3,3,3,0,11.72,-0.49,-0.04,2.13,-0.53,2.0,-30.0625,29.0625,-34.9375,0.58795166015625,0.27996826171875,-0.72503662109375,0.22412109375,-20.875,29.5,0.0,9.59,0.04,-2.04,stop,10
8.22,27236.035818881,27,3,3,3,0,11.75,-0.44,-0.18,2.14,-0.54,1.76,-32.3125,50.8125,-29.9375,0.592529296875,0.27923583984375,-0.72235107421875,0.22174072265625,-20.875,29.5,0.0,9.6,0.1,-1.95,stop,10
8.23,27236.035818881,27,3,3,3,0,11.51,-0.26,-0.35,1.88,-0.42,1.48,-28.4375,68.3125,-27.75,0.59808349609375,0.27813720703125,-0.7186279296875,0.22021484375,-22.375,29.5,1.875,9.63,0.15,-1.84,stop,10
8.24,27236.050051547,27,3,3,3,0,11.34,-0.02,-0.45,1.69,-0.23,1.26,-29.3125,71.625,-25.3125,0.603759765625,0.27685546875,-0.71484375,0.21875,-22.375,29.5,1.875,9.65,0.21,-1.71,stop,10
8.25,27236.050051547,27,3,3,3,0,11.26,-0.04,-0.52,1.59,-0.3,1.06,-35.3125,72.625,-20.875,0.6094970703125,0.27490234375,-0.711181640625,0.2171630859375,-22.375,29.5,1.875,9.67,0.25,-1.59,stop,10
8.26,27236.065121696,27,3,3,3,0,11.03,-0.14,-0.75,1.33,-0.44,0.69,-40.0625,84.0,-17.25,0.61602783203125,0.27227783203125,-0.70703125,0.21575927734375,-22.375,29.5,1.875,9.69,0.29,-1.45,stop,10
8.27,27236.065121696,27,3,3,3,0,11.03,-0.14,-0.75,1.33,-0.44,0.69,-40.0625,84.0,-17.25,0.61602783203125,0.27227783203125,-0.70703125,0.21575927734375,-22.375,29.5,1.875,9.69,0.29,-1.45,stop,10
8.27,27236.079955966,27,3,3,3,0,10.64,-0.14,-1.14,0.92,-0.47,0.13,-39.0,103.3125,-13.875,0.62353515625,0.26904296875,-0.70184326171875,0.215087890625,-22.375,29.5,1.875,9.71,0.33,-1.27,stop,10
8.28,27236.079955966,27,3,3,3,0,9.74,-0.16,-2.03,0.0,-0.51,-0.96,-33.5625,117.125,-10.6875,0.63165283203125,0.26568603515625,-0.69580078125,0.21514892578125,-23.0625,29.1875,1.5,9.74,0.35,-1.07,stop,10
8.29,27236.118371127,27,3,3,3,0,9.34,-0.25,-2.27,-0.41,-0.62,-1.39,-24.8125,113.1875,-9.125,0.6392822265625,0.26275634765625,-0.68975830078125,0.21575927734375,-23.0625,29.1875,1.5,9.76,0.37,-0.87,stop,10
8.3,27236.118371127,27,3,3,3,0,9.04,-0.18,-2.48,-0.72,-0.57,-1.76,-14.375,92.5625,-6.0,0.645263671875,0.26055908203125,-0.6846923828125,0.2166748046875,-23.0625,29.1875,1.5,9.77,0.38,-0.71,stop,10
8.31,27236.125986117,27,3,3,3,0,9.0,-0.31,-2.41,-0.76,-0.7,-1.79,-7.0625,62.875,-3.1875,0.64923095703125,0.2591552734375,-0.68121337890625,0.21746826171875,-23.0625,29.1875,1.5,9.77,0.39,-0.61,stop,10
8.32,27236.125986117,27,3,3,3,0,9.07,-0.39,-2.05,-0.71,-0.79,-1.5,-0.9375,33.9375,-1.375,0.65130615234375,0.258544921875,-0.67926025390625,0.21807861328125,-23.0625,29.1875,1.5,9.78,0.39,-0.55,stop,10
8.33,27236.141360791,27,3,3,3,0,9.13,-0.34,-1.63,-0.65,-0.73,-1.11,3.8125,20.5,2.0625,0.65240478515625,0.25823974609375,-0.6781005859375,0.21893310546875,-22.6875,28.5,-0.375,9.78,0.39,-0.51,stop,10
8.34,27236.141360791,27,3,3,3,0,9.15,-0.41,-1.19,-0.63,-0.79,-0.7,5.75,17.125,4.5,0.6531982421875,0.25799560546875,-0.67706298828125,0.21990966796875,-22.6875,28.5,-0.375,9.78,0.38,-0.49,stop,10
8.35,27236.171510002,27,3,3,3,0,9.1,-0.54,-0.62,-0.68,-0.92,-0.16,6.625,22.1875,6.4375,0.65423583984375,0.257568359375,-0.67584228515625,0.22113037109375,-22.6875,28.5,-0.375,9.78,0.37,-0.45,stop,10
8.36,27236.171510002,27,3,3,3,0,9.18,-0.64,-0.34,-0.6,-1.0,0.07,9.1875,20.6875,8.25,0.655029296875,0.2572021484375,-0.6746826171875,0.22265625,-22.6875,28.5,-0.375,9.79,0.35,-0.41,stop,10
8.37,27236.185956495,27,3,3,3,0,9.24,-0.71,-0.05,-0.54,-1.05,0.34,14.375,12.875,9.6875,0.6552734375,0.2572021484375,-0.67388916015625,0.22430419921875,-22.6875,28.5,-0.375,9.79,0.34,-0.39,stop,10
8.38,27236.185956495,27,3,3,3,0,9.37,-0.76,0.15,-0.41,-1.08,0.54,21.375,4.5,10.9375,0.65484619140625,0.2576904296875,-0.6734619140625,0.226318359375,-23.0625,28.875,-0.875,9.79,0.32,-0.39,stop,10
8.39,27236.200269686,27,3,3,3,0,9.61,-0.69,0.45,-0.18,-0.98,0.84,25.8125,2.25,12.625,0.6541748046875,0.25836181640625,-0.673095703125,0.22857666015625,-23.0625,28.875,-0.875,9.79,0.29,-0.38,stop,10
8.4,27236.200269686,27,3,3,3,0,9.5,-0.64,0.43,-0.28,-0.91,0.8,25.0625,12.9375,14.9375,0.654052734375,0.2586669921875,-0.67218017578125,0.231201171875,-23.0625,28.875,-0.875,9.79,0.27,-0.36,stop,10
8.41,27236.230977043,27,3,3,3,0,9.18,-0.66,0.21,-0.61,-0.9,0.53,19.3125,32.125,17.5625,0.6551513671875,0.25811767578125,-0.67034912109375,0.23406982421875,-23.0625,28.875,-0.875,9.79,0.23,-0.31,stop,10
8.42,27236.230977043,27,3,3,3,0,9.12,-0.92,-0.73,-0.67,-1.12,-0.48,11.375,40.125,20.3125,0.65679931640625,0.2567138671875,-0.66827392578125,0.23681640625,-23.0625,28.875,-0.875,9.8,0.2,-0.24,stop,10
8.43,27236.245473259,27,3,3,3,0,9.19,-0.98,-1.26,-0.61,-1.14,-1.07,7.0,31.25,23.375,0.65802001953125,0.255126953125,-0.6668701171875,0.2392578125,-22.6875,28.875,-2.0,9.8,0.16,-0.19,stop,10
8.44,27236.245473259,27,3,3,3,0,9.25,-0.93,-1.67,-0.55,-1.05,-1.51,7.9375,19.5,25.25,0.658447265625,0.25372314453125,-0.6661376953125,0.24163818359375,-22.6875,28.875,-2.0,9.8,0.11,-0.15,stop,10
8.45,27236.260296623,27,3,3,3,0,9.38,-1.03,-1.89,-0.42,-1.1,-1.74,9.8125,7.0625,26.6875,0.65802001953125,0.2525634765625,-0.6661376953125,0.243896484375,-22.6875,28.875,-2.0,9.8,0.07,-0.14,stop,10
8.46,27236.260296623,27,3,3,3,0,9.59,-0.8,-1.75,-0.2,-0.82,-1.59,11.25,-3.5625,26.875,0.656982421875,0.251708984375,-0.66668701171875,0.2459716796875,-22.6875,28.875,-2.0,9.8,0.02,-0.15,stop,10
8.47,27236.291866041,27,3,3,3,0,9.57,-0.59,-1.46,-0.23,-0.58,-1.29,14.5625,-10.0625,26.875,0.655517578125,0.251220703125,-0.66754150390625,0.2481689453125,-22.6875,28.875,-2.0,9.8,-0.01,-0.17,stop,10
8.48,27236.291866041,27,3,3,3,0,9.44,-0.53,-1.13,-0.36,-0.47,-0.93,16.0625,-18.75,26.375,0.65350341796875,0.2509765625,-0.66888427734375,0.25018310546875,-22.75,28.875,-1.1875,9.8,-0.06,-0.2,stop,10
8.49,27236.308993523,27,3,3,3,0,9.78,-0.74,-0.35,-0.01,-0.63,-0.09,14.3125,-33.6875,26.1875,0.650634765625,0.2509765625,-0.6710205078125,0.2518310546875,-22.75,28.875,-1.1875,9.8,-0.11,-0.26,stop,10
8.5,27236.308993523,27,3,3,3,0,9.66,-0.64,-0.27,-0.13,-0.48,0.05,16.375,-40.125,26.6875,0.64727783203125,0.251220703125,-0.67352294921875,0.25341796875,-22.75,28.875,-1.1875,9.79,-0.15,-0.32,stop,10
8.51,27236.321145907,27,3,3,3,0,9.54,-0.55,-0.23,-0.25,-0.34,0.16,22.0,-37.4375,24.9375,0.64404296875,0.2518310546875,-0.67572021484375,0.25531005859375,-22.75,28.875,-1.1875,9.79,-0.2,-0.39,stop,10
8.52,27236.321145907,27,3,3,3,0,9.48,-0.58,-0.2,-0.3,-0.33,0.24,24.3125,-34.75,24.25,0.64093017578125,0.2525634765625,-0.67767333984375,0.25732421875,-22.75,28.875,-1.1875,9.79,-0.24,-0.45,stop,10
8.53,27236.351049634,27,3,3,3,0,9.47,-0.71,-0.47,-0.31,-0.42,0.02,24.5,-30.875,23.375,0.63800048828125,0.25323486328125,-0.67938232421875,0.2593994140625,-21.375,29.5,-3.1875,9.78,-0.28,-0.5,stop,10
8.54,27236.351049634,27,3,3,3,0,9.46,-0.63,-0.62,-0.32,-0.3,-0.08,26.5625,-25.625,22.625,0.6353759765625,0.25390625,-0.68072509765625,0.26165771484375,-21.375,29.5,-3.1875,9.78,-0.32,-0.54,stop,10
8.55,27236.365682203,27,3,3,3,0,9.48,-0.58,-0.7,-0.29,-0.21,-0.11,29.375,-23.5625,21.375,0.6328125,0.25482177734375,-0.68182373046875,0.26409912109375,-21.375,29.5,-3.1875,9.78,-0.36,-0.58,stop,10
8.56,27236.365682203,27,3,3,3,0,9.52,-0.49,-0.68,-0.25,-0.08,-0.06,28.5,-24.125,21.125,0.6302490234375,0.25567626953125,-0.6829833984375,0.26641845703125,-21.375,29.5,-3.1875,9.77,-0.4,-0.62,stop,10
8.57,27236.380111239,27,3,3,3,0,9.64,-0.4,-0.81,-0.12,0.04,-0.14,24.625,-26.125,21.3125,0.62762451171875,0.25640869140625,-0.684326171875,0.26849365234375,-21.375,29.5,-3.1875,9.77,-0.44,-0.66,stop,10
8.58,27236.380111239,27,3,3,3,0,9.81,-0.42,-0.87,0.05,0.06,-0.15,20.1875,-29.8125,22.3125,0.6248779296875,0.2568359375,-0.68597412109375,0.270263671875,-21.0,30.25,-1.5625,9.76,-0.48,-0.71,stop,10
8.59,27236.410684725,27,3,3,3,0,9.91,-0.42,-0.96,0.15,0.1,-0.18,17.0625,-32.5625,22.9375,0.6219482421875,0.25714111328125,-0.6878662109375,0.27178955078125,-21.0,30.25,-1.5625,9.76,-0.52,-0.77,stop,10
8.6,27236.410684725,27,3,3,3,0,9.88,-0.3,-1.2,0.13,0.26,-0.38,15.8125,-29.9375,22.25,0.6192626953125,0.25738525390625,-0.68963623046875,0.27325439453125,-21.0,30.25,-1.5625,9.75,-0.56,-0.82,stop,10
8.61,27236.4270535,27,3,3,3,0,9.86,-0.27,-1.25,0.11,0.33,-0.38,15.5,-26.5,20.625,0.6168212890625,0.25762939453125,-0.691162109375,0.27471923828125,-21.0,30.25,-1.5625,9.74,-0.6,-0.86,stop,10
8.62,27236.4270535,27,3,3,3,0,9.83,-0.27,-1.14,0.09,0.36,-0.23,15.3125,-27.1875,19.5625,0.6143798828125,0.2579345703125,-0.69268798828125,0.276123046875,-21.0,30.25,-1.5625,9.74,-0.64,-0.9,stop,10
8.63,27236.440981112,27,3,3,3,0,9.81,-0.32,-1.03,0.07,0.34,-0.07,15.1875,-29.75,17.875,0.61175537109375,0.25836181640625,-0.6943359375,0.27734375,-19.875,30.25,-2.75,9.73,-0.67,-0.95,stop,10
8.64,27236.440981112,27,3,3,3,0,9.78,-0.38,-0.74,0.05,0.31,0.26,16.3125,-31.25,16.625,0.609130859375,0.25897216796875,-0.69598388671875,0.27850341796875,-19.875,30.25,-2.75,9.72,-0.7,-1.0,stop,10
8.65,27236.478734327,27,3,3,3,0,9.68,-0.4,-0.69,-0.03,0.32,0.36,17.6875,-29.0,14.9375,0.6065673828125,0.25970458984375,-0.69744873046875,0.27972412109375,-19.875,30.25,-2.75,9.72,-0.73,-1.05,stop,10
8.66,27236.478734327,27,3,3,3,0,9.62,-0.45,-0.64,-0.09,0.31,0.44,17.875,-23.6875,13.3125,0.6043701171875,0.26043701171875,-0.69854736328125,0.28094482421875,-19.875,30.25,-2.75,9.71,-0.76,-1.09,stop,10
8.67,27236.492110751,27,3,3,3,0,9.69,-0.52,-0.58,-0.01,0.26,0.53,17.0,-17.5625,11.625,0.6026611328125,0.26104736328125,-0.6993408203125,0.2822265625,-19.875,30.25,-2.75,9.71,-0.78,-1.12,stop,10
8.68,27236.492110751,27,3,3,3,0,9.59,-0.68,-0.76,-0.11,0.12,0.37,15.875,-9.0625,9.875,0.6014404296875,0.261474609375,-0.69964599609375,0.28350830078125,-20.25,30.25,-3.5,9.7,-0.8,-1.13,stop,10
8.69,27236.500504468,27,3,3,3,0,9.43,-0.73,-1.01,-0.27,0.08,0.11,15.0625,0.625,8.375,0.6009521484375,0.26171875,-0.69940185546875,0.284912109375,-20.25,30.25,-3.5,9.7,-0.82,-1.13,stop,10
8.7,27236.500504468,27,3,3,3,0,9.38,-0.75,-1.22,-0.31,0.08,-0.1,13.4375,2.0625,7.5625,0.6005859375,0.26190185546875,-0.69915771484375,0.2861328125,-20.25,30.25,-3.5,9.7,-0.83,-1.12,stop,10
8.71,27236.530419345,27,3,3,3,0,9.79,-0.76,-1.3,0.09,0.09,-0.16,12.1875,-5.8125,7.0625,0.5997314453125,0.26226806640625,-0.6993408203125,0.287109375,-20.25,30.25,-3.5,9.7,-0.85,-1.13,stop,10
8.72,27236.530419345,27,3,3,3,0,9.84,-0.76,-1.35,0.14,0.1,-0.19,12.125,-13.3125,6.3125,0.5985107421875,0.26287841796875,-0.69989013671875,0.28790283203125,-20.25,30.25,-3.5,9.69,-0.86,-1.15,stop,10
8.73,27236.545919345,27,3,3,3,0,9.85,-0.71,-1.36,0.16,0.16,-0.18,12.25,-12.75,5.6875,0.5972900390625,0.26348876953125,-0.70037841796875,0.2886962890625,-20.25,31.0,-1.5625,9.69,-0.87,-1.17,stop,10
8.74,27236.545919345,27,3,3,3,0,9.76,-0.71,-1.38,0.07,0.18,-0.18,10.6875,-10.6875,5.375,0.59625244140625,0.26397705078125,-0.7008056640625,0.28936767578125,-20.25,31.0,-1.5625,9.69,-0.89,-1.19,stop,10
8.75,27236.563922966,27,3,3,3,0,9.71,-0.71,-1.16,0.02,0.19,0.04,8.5,-11.25,5.375,0.59521484375,0.26434326171875,-0.7012939453125,0.2899169921875,-20.25,31.0,-1.5625,9.68,-0.9,-1.2,stop,10
8.76,27236.563922966,27,3,3,3,0,9.71,-0.7,-1.07,0.03,0.2,0.15,6.1875,-14.6875,5.6875,0.593994140625,0.26470947265625,-0.7020263671875,0.29022216796875,-20.25,31.0,-1.5625,9.68,-0.91,-1.23,stop,10
8.77,27236.597752841,27,3,3,3,0,9.38,-0.74,-1.2,-0.29,0.17,0.03,3.4375,-9.4375,5.1875,0.59326171875,0.26483154296875,-0.7025146484375,0.29046630859375,-20.25,31.0,-1.5625,9.68,-0.92,-1.24,stop,10
8.78,27236.597752841,27,3,3,3,0,9.38,-0.74,-1.2,-0.29,0.17,0.03,3.4375,-9.4375,5.1875,0.59326171875,0.26483154296875,-0.7025146484375,0.29046630859375,-20.25,31.0,-1.5625,9.68,-0.92,-1.24,stop,10
8.78,27236.603830803,27,3,3,3,0,9.31,-0.75,-1.35,-0.37,0.17,-0.09,1.8125,-2.625,4.5,0.59295654296875,0.26470947265625,-0.70269775390625,0.290771484375,-19.5,30.6875,-2.75,9.68,-0.92,-1.25,stop,10
8.79,27236.603830803,27,3,3,3,0,9.28,-0.85,-1.69,-0.39,0.08,-0.43,0.3125,-0.875,4.6875,0.5927734375,0.26446533203125,-0.702880859375,0.29095458984375,-19.5,30.6875,-2.75,9.68,-0.93,-1.25,stop,10
8.8,27236.62255411,27,3,3,3,0,9.32,-0.81,-1.67,-0.35,0.13,-0.41,-0.5,-3.5,3.5625,0.59246826171875,0.26434326171875,-0.703125,0.29107666015625,-19.5,30.6875,-2.75,9.67,-0.94,-1.26,stop,10
8.81,27236.62255411,27,3,3,3,0,9.31,-0.76,-1.74,-0.36,0.18,-0.48,3.0625,-2.1875,2.375,0.5921630859375,0.264404296875,-0.7032470703125,0.29132080078125,-19.5,30.6875,-2.75,9.67,-0.94,-1.26,stop,10
8.82,27236.635307935,27,3,3,3,0,9.58,-0.76,-1.43,-0.08,0.18,-0.16,2.6875,-4.25,1.75,0.591796875,0.2645263671875,-0.70343017578125,0.29150390625,-19.5,30.6875,-2.75,9.67,-0.95,-1.27,stop,10
8.83,27236.635307935,27,3,3,3,0,9.58,-0.83,-1.42,-0.09,0.11,-0.15,1.4375,-1.0625,1.5625,0.5916748046875,0.2645263671875,-0.7034912109375,0.29168701171875,-20.6875,30.6875,-2.0,9.67,-0.95,-1.27,stop,10
8.84,27236.649838738,27,3,3,3,0,9.53,-0.89,-1.45,-0.14,0.06,-0.18,0.25,1.1875,0.75,0.5916748046875,0.26446533203125,-0.70343017578125,0.291748046875,-20.6875,30.6875,-2.0,9.67,-0.95,-1.27,stop,10
8.85,27236.649838738,27,3,3,3,0,9.6,-0.92,-1.45,-0.06,0.02,-0.18,0.1875,1.375,0.4375,0.59173583984375,0.26446533203125,-0.70343017578125,0.29168701171875,-20.6875,30.6875,-2.0,9.67,-0.95,-1.27,stop,10
8.86,27236.68079052,27,3,3,3,0,9.3,-0.85,-1.41,-0.37,0.09,-0.14,1.5625,1.0625,-0.1875,0.59173583984375,0.2645263671875,-0.703369140625,0.29180908203125,-20.6875,30.6875,-2.0,9.67,-0.95,-1.26,stop,10
8.87,27236.68079052,27,3,3,3,0,9.66,-0.86,-1.26,-0.01,0.09,0.0,1.625,-2.1875,-0.125,0.591552734375,0.26470947265625,-0.7034912109375,0.29180908203125,-20.6875,30.6875,-2.0,9.67,-0.95,-1.27,stop,10
8.88,27236.695217481,27,3,3,3,0,9.65,-0.83,-1.22,-0.01,0.12,0.05,-0.0625,-7.8125,0.3125,0.591064453125,0.264892578125,-0.703857421875,0.2916259765625,-19.875,30.6875,-2.75,9.67,-0.95,-1.28,stop,10
8.89,27236.695217481,27,3,3,3,0,9.53,-0.85,-1.23,-0.13,0.09,0.05,-1.375,-2.625,0.0,0.59088134765625,0.264892578125,-0.70404052734375,0.29150390625,-19.875,30.6875,-2.75,9.67,-0.95,-1.29,stop,10
8.9,27236.711282952,27,3,3,3,0,9.51,-0.93,-1.4,-0.15,0.01,-0.11,-2.25,0.0,0.0,0.5909423828125,0.2647705078125,-0.7041015625,0.29132080078125,-19.875,30.6875,-2.75,9.67,-0.95,-1.29,stop,10
8.91,27236.711282952,27,3,3,3,0,9.55,-0.93,-1.42,-0.11,0.02,-0.13,-1.9375,-0.3125,-0.125,0.59100341796875,0.26470947265625,-0.70416259765625,0.29119873046875,-19.875,30.6875,-2.75,9.67,-0.95,-1.29,stop,10
8.92,27236.742488559,27,3,3,3,0,9.56,-0.88,-1.45,-0.1,0.06,-0.16,-0.375,0.5,-0.75,0.59100341796875,0.2647705078125,-0.70416259765625,0.2911376953125,-19.875,30.6875,-2.75,9.67,-0.95,-1.29,stop,10
8.93,27236.742488559,27,3,3,3,0,9.41,-0.82,-1.44,-0.26,0.12,-0.15,-0.1875,3.375,-0.9375,0.5911865234375,0.2647705078125,-0.70404052734375,0.2911376953125,-19.5,31.75,-2.75,9.67,-0.95,-1.28,stop,10
8.94,27236.755448194,27,3,3,3,0,9.56,-0.9,-1.41,-0.11,0.04,-0.12,-1.5625,2.5,-0.625,0.59136962890625,0.26470947265625,-0.70391845703125,0.291015625,-19.5,31.75,-2.75,9.67,-0.94,-1.28,stop,10
8.95,27236.755448194,27,3,3,3,0,9.59,-0.92,-1.41,-0.07,0.02,-0.13,-3.375,-0.5,0.0,0.5914306640625,0.2645263671875,-0.70404052734375,0.29083251953125,-19.5,31.75,-2.75,9.67,-0.94,-1.28,stop,10
8.96,27236.769709709,27,3,3,3,0,9.53,-0.91,-1.44,-0.13,0.03,-0.16,-2.3125,3.5,-0.625,0.5916748046875,0.26434326171875,-0.70391845703125,0.29071044921875,-19.5,31.75,-2.75,9.67,-0.94,-1.28,stop,10
8.97,27236.769709709,27,3,3,3,0,9.45,-0.85,-1.32,-0.22,0.08,-0.05,-0.625,6.1875,-1.125,0.592041015625,0.2642822265625,-0.70361328125,0.29071044921875,-19.5,31.75,-2.75,9.67,-0.94,-1.27,stop,10
8.98,27236.802231397,27,3,3,3,0,9.49,-0.86,-1.24,-0.18,0.07,0.02,-0.5,4.5625,-1.5625,0.5924072265625,0.2642822265625,-0.703369140625,0.29071044921875,-19.1875,31.0,-2.375,9.67,-0.94,-1.26,stop,10
8.99,27236.802231397,27,3,3,3,0,9.6,-0.86,-1.19,-0.07,0.07,0.07,0.0,-1.375,-1.5625,0.59234619140625,0.264404296875,-0.70343017578125,0.29058837890625,-19.1875,31.0,-2.375,9.67,-0.93,-1.26,stop,10
9.0,27236.815482252,27,3,3,3,0,9.74,-0.8,-1.2,0.06,0.12,0.07,-0.25,-4.9375,-1.75,0.59210205078125,0.2646484375,-0.70361328125,0.2904052734375,-19.1875,31.0,-2.375,9.67,-0.93,-1.27,stop,10
9.01,27236.815482252,27,3,3,3,0,9.71,-0.75,-1.24,0.04,0.17,0.03,-1.5625,-2.75,-1.6875,0.59197998046875,0.2647705078125,-0.7037353515625,0.29010009765625,-19.1875,31.0,-2.375,9.67,-0.93,-1.28,stop,10
9.02,27236.831349805,27,3,3,3,0,9.7,-0.76,-1.26,0.02,0.16,0.01,-3.6875,3.875,-1.4375,0.59234619140625,0.26458740234375,-0.70361328125,0.28985595703125,-19.1875,31.0,-2.375,9.67,-0.92,-1.27,stop,10
9.03,27236.831349805,27,3,3,3,0,9.65,-0.78,-1.33,-0.02,0.13,-0.07,-6.8125,8.6875,-1.3125,0.59307861328125,0.26409912109375,-0.70330810546875,0.28955078125,-20.25,30.6875,-2.75,9.68,-0.92,-1.26,stop,10
9.04,27236.861955315,27,3,3,3,0,9.6,-0.82,-1.39,-0.07,0.09,-0.14,-8.125,10.25,-1.5,0.59393310546875,0.2635498046875,-0.70294189453125,0.2891845703125,-20.25,30.6875,-2.75,9.68,-0.91,-1.24,stop,10
9.05,27236.861955315,27,3,3,3,0,9.58,-0.82,-1.38,-0.09,0.09,-0.14,-7.75,8.0625,-2.0625,0.59466552734375,0.2630615234375,-0.70269775390625,0.28875732421875,-20.25,30.6875,-2.75,9.68,-0.91,-1.23,stop,10
9.06,27236.87536718,27,3,3,3,0,9.62,-0.83,-1.32,-0.06,0.07,-0.09,-7.0625,4.4375,-2.4375,0.59515380859375,0.26275634765625,-0.70263671875,0.28826904296875,-20.25,30.6875,-2.75,9.68,-0.9,-1.22,stop,10
9.07,27236.87536718,27,3,3,3,0,9.65,-0.82,-1.28,-0.03,0.07,-0.05,-6.875,1.5625,-2.625,0.595458984375,0.26251220703125,-0.70263671875,0.28778076171875,-20.25,30.6875,-2.75,9.68,-0.89,-1.22,stop,10
9.08,27236.890116651,27,3,3,3,0,9.7,-0.88,-1.22,0.01,0.0,0.0,-7.5,1.9375,-2.3125,0.59576416015625,0.26226806640625,-0.70269775390625,0.2872314453125,-19.875,31.0,-2.0,9.68,-0.89,-1.22,stop,10
9.09,27236.890116651,27,3,3,3,0,9.59,-0.86,-1.31,-0.09,0.02,-0.1,-8.0,5.9375,-2.3125,0.59637451171875,0.2618408203125,-0.7025146484375,0.2867431640625,-19.875,31.0,-2.0,9.69,-0.88,-1.21,stop,10
9.1,27236.921400546,27,3,3,3,0,9.45,-0.87,-1.34,-0.24,0.0,-0.14,-7.875,9.5625,-2.1875,0.59716796875,0.26129150390625,-0.70220947265625,0.28631591796875,-19.875,31.0,-2.0,9.69,-0.88,-1.2,stop,10
9.11,27236.921400546,27,3,3,3,0,9.5,-0.91,-1.38,-0.19,-0.03,-0.18,-7.5625,6.4375,-2.4375,0.5977783203125,0.26092529296875,-0.7020263671875,0.285888671875,-19.875,31.0,-2.0,9.69,-0.87,-1.19,stop,10
9.12,27236.935905754,27,3,3,3,0,9.57,-0.88,-1.33,-0.11,-0.01,-0.14,-5.5,1.3125,-2.75,0.5980224609375,0.26080322265625,-0.70208740234375,0.285400390625,-19.875,31.0,-2.0,9.69,-0.87,-1.19,stop,10
9.13,27236.935905754,27,3,3,3,0,9.71,-0.87,-1.29,0.01,0.0,-0.09,-3.6875,-2.125,-2.9375,0.5980224609375,0.26080322265625,-0.7022705078125,0.28497314453125,-19.1875,30.6875,-2.375,9.69,-0.86,-1.19,stop,10
9.14,27236.950993726,27,3,3,3,0,9.73,-0.78,-1.29,0.04,0.07,-0.08,-3.6875,0.375,-2.8125,0.59814453125,0.26080322265625,-0.7022705078125,0.28460693359375,-19.1875,30.6875,-2.375,9.69,-0.86,-1.2,stop,10
9.15,27236.950993726,27,3,3,3,0,9.59,-0.76,-1.26,-0.09,0.09,-0.06,-4.4375,4.6875,-2.5,0.59857177734375,0.2606201171875,-0.70208740234375,0.2843017578125,-19.1875,30.6875,-2.375,9.69,-0.85,-1.19,stop,10
9.16,27236.985556918,27,3,3,3,0,9.5,-0.79,-1.35,-0.19,0.05,-0.17,-6.5,6.0,-1.625,0.59912109375,0.26025390625,-0.70196533203125,0.28387451171875,-19.1875,30.6875,-2.375,9.69,-0.85,-1.18,stop,10
9.17,27236.985556918,27,3,3,3,0,9.51,-0.82,-1.41,-0.18,0.01,-0.22,-7.0625,3.25,-1.3125,0.5994873046875,0.2598876953125,-0.70196533203125,0.283447265625,-19.1875,30.6875,-2.375,9.69,-0.84,-1.18,stop,10
9.18,27236.994598422,27,3,3,3,0,9.53,-0.78,-1.47,-0.16,0.06,-0.28,-5.4375,-2.6875,-1.4375,0.599365234375,0.25982666015625,-0.7022705078125,0.28289794921875,-19.1875,30.6875,-3.1875,9.69,-0.84,-1.19,stop,10
9.19,27236.994598422,27,3,3,3,0,9.62,-0.72,-1.47,-0.06,0.11,-0.27,-4.6875,-5.25,-1.8125,0.59912109375,0.2598876953125,-0.70269775390625,0.2823486328125,-19.1875,30.6875,-3.1875,9.69,-0.83,-1.2,stop,10
9.2,27237.010024895,27,3,3,3,0,9.72,-0.73,-1.45,0.03,0.09,-0.24,-5.125,-3.375,-1.9375,0.59906005859375,0.25982666015625,-0.7030029296875,0.28179931640625,-19.1875,30.6875,-3.1875,9.69,-0.83,-1.21,stop,10
9.21,27237.010024895,27,3,3,3,0,9.77,-0.72,-1.36,0.07,0.09,-0.14,-5.875,-0.375,-2.25,0.59918212890625,0.25970458984375,-0.703125,0.28125,-19.1875,30.6875,-3.1875,9.69,-0.82,-1.21,stop,10
9.22,27237.040249667,27,3,3,3,0,9.78,-0.65,-1.14,0.08,0.16,0.06,-5.25,1.75,-2.5625,0.5994873046875,0.25958251953125,-0.703125,0.28082275390625,-19.1875,30.6875,-3.1875,9.69,-0.82,-1.21,stop,10
9.23,27237.040249667,27,3,3,3,0,9.75,-0.6,-1.06,0.05,0.2,0.14,-4.3125,2.5,-2.875,0.59979248046875,0.25946044921875,-0.7030029296875,0.28045654296875,-19.5,31.0,-2.0,9.69,-0.81,-1.2,stop,10
9.24,27237.055477572,27,3,3,3,0,9.72,-0.66,-1.07,0.02,0.14,0.12,-4.875,2.625,-3.0,0.60015869140625,0.25933837890625,-0.70294189453125,0.280029296875,-19.5,31.0,-2.0,9.69,-0.8,-1.2,stop,10
9.25,27237.055477572,27,3,3,3,0,9.68,-0.69,-1.15,-0.01,0.11,0.04,-6.25,2.4375,-2.8125,0.60052490234375,0.2591552734375,-0.70294189453125,0.279541015625,-19.5,31.0,-2.0,9.69,-0.8,-1.2,stop,10
9.26,27237.070694003,27,3,3,3,0,9.69,-0.74,-1.41,0.0,0.04,-0.21,-6.4375,1.6875,-3.0,0.600830078125,0.25897216796875,-0.70294189453125,0.279052734375,-19.5,31.0,-2.0,9.7,-0.79,-1.19,stop,10
9.27,27237.070694003,27,3,3,3,0,9.68,-0.75,-1.45,-0.01,0.03,-0.25,-5.5,0.4375,-3.25,0.60101318359375,0.25885009765625,-0.7030029296875,0.27850341796875,-19.5,31.0,-2.0,9.7,-0.78,-1.2,stop,10
9.28,27237.102124545,27,3,3,3,0,9.67,-0.76,-1.49,-0.03,0.01,-0.29,-5.0625,3.0625,-3.75,0.6014404296875,0.2587890625,-0.702880859375,0.278076171875,-19.1875,30.6875,-3.1875,9.7,-0.78,-1.19,stop,10
9.29,27237.102124545,27,3,3,3,0,9.62,-0.73,-1.42,-0.07,0.03,-0.24,-5.5,6.375,-3.75,0.60205078125,0.258544921875,-0.70257568359375,0.2777099609375,-19.1875,30.6875,-3.1875,9.7,-0.77,-1.18,stop,10
9.3,27237.116400628,27,3,3,3,0,9.62,-0.77,-1.3,-0.07,-0.01,-0.12,-5.9375,7.1875,-3.5625,0.6026611328125,0.25830078125,-0.7022705078125,0.27728271484375,-19.1875,30.6875,-3.1875,9.7,-0.76,-1.17,stop,10
9.31,27237.116400628,27,3,3,3,0,9.55,-0.78,-1.22,-0.15,-0.02,-0.06,-5.375,6.375,-3.5,0.603271484375,0.258056640625,-0.70196533203125,0.27691650390625,-19.1875,30.6875,-3.1875,9.7,-0.75,-1.16,stop,10
9.32,27237.130208936,27,3,3,3,0,9.56,-0.78,-1.18,-0.14,-0.02,-0.03,-5.1875,4.25,-3.3125,0.60369873046875,0.25787353515625,-0.70184326171875,0.2764892578125,-19.1875,30.6875,-3.1875,9.7,-0.75,-1.15,stop,10
9.33,27237.130208936,27,3,3,3,0,9.56,-0.83,-1.31,-0.14,-0.08,-0.15,-5.3125,1.625,-2.875,0.60400390625,0.25775146484375,-0.70184326171875,0.27606201171875,-19.875,31.375,-2.375,9.7,-0.74,-1.15,stop,10
9.34,27237.162461215,27,3,3,3,0,9.61,-0.85,-1.44,-0.09,-0.11,-0.29,-5.0625,2.375,-2.8125,0.604248046875,0.25762939453125,-0.70184326171875,0.275634765625,-19.875,31.375,-2.375,9.71,-0.74,-1.15,stop,10
9.35,27237.162461215,27,3,3,3,0,9.57,-0.83,-1.52,-0.13,-0.1,-0.36,-4.125,4.75,-2.8125,0.60455322265625,0.2574462890625,-0.70172119140625,0.27532958984375,-19.875,31.375,-2.375,9.71,-0.73,-1.15,stop,10
9.36,27237.175259229,27,3,3,3,0,9.6,-0.82,-1.32,-0.1,-0.09,-0.18,-3.8125,7.1875,-3.0625,0.60504150390625,0.25726318359375,-0.70147705078125,0.27508544921875,-19.875,31.375,-2.375,9.71,-0.73,-1.14,stop,10
9.37,27237.175259229,27,3,3,3,0,9.49,-0.89,-1.22,-0.21,-0.16,-0.09,-3.9375,9.1875,-3.375,0.605712890625,0.25701904296875,-0.7010498046875,0.27490234375,-19.875,31.375,-2.375,9.71,-0.72,-1.12,stop,10
9.38,27237.193295159,27,3,3,3,0,9.53,-0.86,-1.11,-0.18,-0.14,0.0,-3.1875,8.0,-3.1875,0.6063232421875,0.2568359375,-0.70068359375,0.27471923828125,-19.875,30.6875,-2.0,9.71,-0.72,-1.11,stop,10
9.39,27237.193295159,27,3,3,3,0,9.48,-0.81,-1.04,-0.23,-0.1,0.05,-0.3125,6.0,-3.8125,0.6068115234375,0.25689697265625,-0.70025634765625,0.274658203125,-19.875,30.6875,-2.0,9.71,-0.71,-1.1,stop,10
9.4,27237.221657423,27,3,3,3,0,9.53,-0.76,-1.02,-0.18,-0.05,0.07,2.3125,1.1875,-3.875,0.60687255859375,0.25726318359375,-0.7000732421875,0.27459716796875,-19.875,30.6875,-2.0,9.71,-0.7,-1.1,stop,10
9.41,27237.221657423,27,3,3,3,0,9.57,-0.71,-1.15,-0.14,0.0,-0.04,2.3125,-4.125,-3.4375,0.606689453125,0.2576904296875,-0.70013427734375,0.27447509765625,-19.875,30.6875,-2.0,9.71,-0.7,-1.11,stop,10
9.42,27237.240443637,27,3,3,3,0,9.56,-0.7,-1.23,-0.15,0.0,-0.11,0.375,-5.0625,-3.0,0.6064453125,0.25799560546875,-0.70037841796875,0.274169921875,-19.875,30.6875,-2.0,9.71,-0.69,-1.11,stop,10
9.43,27237.240443637,27,3,3,3,0,9.51,-0.68,-1.25,-0.2,0.01,-0.12,-1.3125,-6.1875,-2.4375,0.60614013671875,0.25823974609375,-0.70068359375,0.27386474609375,-20.25,31.0,-2.0,9.71,-0.69,-1.13,stop,10
9.44,27237.250908644,27,3,3,3,0,9.68,-0.59,-1.25,-0.02,0.09,-0.1,-1.6875,-9.8125,-2.25,0.6055908203125,0.258544921875,-0.701171875,0.27337646484375,-20.25,31.0,-2.0,9.71,-0.68,-1.14,stop,10
9.45,27237.250908644,27,3,3,3,0,9.75,-0.52,-1.24,0.03,0.16,-0.07,-0.6875,-12.625,-2.3125,0.6048583984375,0.25897216796875,-0.70184326171875,0.27294921875,-20.25,31.0,-2.0,9.71,-0.68,-1.16,stop,10
9.46,27237.285018954,27,3,3,3,0,9.78,-0.48,-1.28,0.07,0.18,-0.09,-0.125,-10.75,-2.75,0.60430908203125,0.2593994140625,-0.70233154296875,0.27252197265625,-20.25,31.0,-2.0,9.71,-0.67,-1.18,stop,10
9.47,27237.285018954,27,3,3,3,0,9.76,-0.49,-1.3,0.05,0.17,-0.11,-0.5625,-5.375,-3.1875,0.60406494140625,0.25970458984375,-0.70257568359375,0.27215576171875,-20.25,31.0,-2.0,9.7,-0.67,-1.19,stop,10
9.48,27237.299032789,27,3,3,3,0,9.69,-0.56,-1.27,-0.01,0.1,-0.07,-1.1875,0.0,-3.375,0.6041259765625,0.2598876953125,-0.70257568359375,0.2718505859375,-19.1875,30.25,-2.0,9.71,-0.66,-1.19,stop,10
9.49,27237.299032789,27,3,3,3,0,9.62,-0.62,-1.21,-0.08,0.03,-0.02,-1.8125,4.9375,-3.5625,0.60455322265625,0.2598876953125,-0.7022705078125,0.27166748046875,-19.1875,30.25,-2.0,9.71,-0.65,-1.19,stop,10
9.5,27237.310053867,27,3,3,3,0,9.57,-0.62,-1.19,-0.13,0.02,-0.01,-1.75,7.375,-3.625,0.6051025390625,0.2598876953125,-0.70184326171875,0.271484375,-19.1875,30.25,-2.0,9.71,-0.65,-1.17,stop,10
9.51,27237.310053867,27,3,3,3,0,9.58,-0.64,-1.16,-0.12,0.0,0.0,-1.0625,6.875,-3.6875,0.60565185546875,0.2598876953125,-0.701416015625,0.27142333984375,-19.1875,30.25,-2.0,9.71,-0.64,-1.16,stop,10
9.52,27237.340843539,27,3,3,3,0,9.59,-0.62,-1.21,-0.12,0.01,-0.06,-0.3125,5.875,-3.75,0.6060791015625,0.25994873046875,-0.7010498046875,0.27130126953125,-19.1875,30.25,-2.0,9.71,-0.64,-1.15,stop,10
9.53,27237.340843539,27,3,3,3,0,9.61,-0.61,-1.26,-0.1,0.01,-0.11,0.0,5.3125,-3.5,0.60650634765625,0.26007080078125,-0.70068359375,0.271240234375,-19.1875,30.25,-2.375,9.71,-0.63,-1.14,stop,10
9.54,27237.355221388,27,3,3,3,0,9.57,-0.62,-1.32,-0.14,0.0,-0.18,0.4375,5.5625,-3.3125,0.60687255859375,0.2601318359375,-0.7003173828125,0.27117919921875,-19.1875,30.25,-2.375,9.71,-0.62,-1.14,stop,10
9.55,27237.355221388,27,3,3,3,0,9.58,-0.6,-1.31,-0.13,0.01,-0.18,0.5,5.625,-3.3125,0.6072998046875,0.26025390625,-0.70001220703125,0.2711181640625,-19.1875,30.25,-2.375,9.72,-0.62,-1.13,stop,10
9.56,27237.376803622,27,3,3,3,0,9.58,-0.6,-1.25,-0.13,0.0,-0.13,0.1875,5.875,-3.0,0.607666015625,0.26031494140625,-0.69964599609375,0.27105712890625,-19.1875,30.25,-2.375,9.72,-0.61,-1.12,stop,10
9.57,27237.376803622,27,3,3,3,0,9.6,-0.61,-1.18,-0.11,0.0,-0.06,0.0,5.75,-2.75,0.6080322265625,0.26031494140625,-0.69927978515625,0.27105712890625,-19.1875,30.25,-2.375,9.72,-0.61,-1.11,stop,10
9.58,27237.400241122,27,3,3,3,0,9.58,-0.61,-1.15,-0.13,-0.01,-0.05,0.0,5.5625,-2.25,0.60845947265625,0.2603759765625,-0.698974609375,0.27105712890625,-21.0,30.6875,-1.1875,9.72,-0.6,-1.1,stop,10
9.59,27237.400241122,27,3,3,3,0,9.6,-0.62,-1.13,-0.12,-0.02,-0.03,-0.0625,5.4375,-2.125,0.60882568359375,0.2603759765625,-0.69866943359375,0.27105712890625,-21.0,30.6875,-1.1875,9.72,-0.6,-1.09,stop,10
9.6,27237.417224195,27,3,3,3,0,9.56,-0.61,-1.09,-0.16,-0.01,0.0,0.25,6.375,-1.8125,0.6092529296875,0.26031494140625,-0.6982421875,0.2711181640625,-21.0,30.6875,-1.1875,9.72,-0.6,-1.08,stop,10
9.61,27237.417224195,27,3,3,3,0,9.58,-0.61,-1.04,-0.14,-0.01,0.03,0.5,4.875,-1.625,0.60955810546875,0.26031494140625,-0.697998046875,0.2711181640625,-21.0,30.6875,-1.1875,9.72,-0.59,-1.07,stop,10
9.62,27237.430708286,27,3,3,3,0,9.65,-0.58,-1.05,-0.07,0.01,0.02,0.75,1.75,-1.4375,0.60968017578125,0.2603759765625,-0.69781494140625,0.2711181640625,-21.0,30.6875,-1.1875,9.72,-0.59,-1.07,stop,10
9.63,27237.430708286,27,3,3,3,0,9.66,-0.57,-1.12,-0.06,0.02,-0.05,1.1875,-0.5625,-1.3125,0.609619140625,0.26055908203125,-0.69781494140625,0.2711181640625,-20.6875,30.25,-2.375,9.72,-0.59,-1.07,stop,10
9.64,27237.465156446,27,3,3,3,0,9.68,-0.56,-1.16,-0.04,0.02,-0.08,1.375,-2.75,-1.25,0.60943603515625,0.26080322265625,-0.6978759765625,0.27105712890625,-20.6875,30.25,-2.375,9.72,-0.59,-1.08,stop,10
9.65,27237.465156446,27,3,3,3,0,9.68,-0.55,-1.21,-0.04,0.03,-0.13,1.0,-4.3125,-0.875,0.60919189453125,0.260986328125,-0.6981201171875,0.27099609375,-20.6875,30.25,-2.375,9.72,-0.59,-1.08,stop,10
9.66,27237.475686679,27,3,3,3,0,9.7,-0.53,-1.14,-0.02,0.05,-0.05,0.625,-4.3125,-0.6875,0.60894775390625,0.26116943359375,-0.69830322265625,0.2708740234375,-20.6875,30.25,-2.375,9.72,-0.59,-1.09,stop,10
9.67,27237.475686679,27,3,3,3,0,9.72,-0.49,-1.12,0.0,0.09,-0.02,0.1875,-4.3125,-0.5,0.608642578125,0.26129150390625,-0.69854736328125,0.270751953125,-20.6875,30.25,-2.375,9.72,-0.59,-1.1,stop,10
9.68,27237.497284335,27,3,3,3,0,9.71,-0.52,-1.14,0.0,0.06,-0.03,-0.25,-2.625,-0.375,0.60845947265625,0.2613525390625,-0.69866943359375,0.27069091796875,-20.6875,30.25,-2.375,9.72,-0.59,-1.1,stop,10
9.69,27237.497284335,27,3,3,3,0,9.68,-0.52,-1.15,-0.04,0.06,-0.04,-0.125,-0.1875,-0.4375,0.60845947265625,0.2613525390625,-0.69866943359375,0.27069091796875,-20.6875,30.25,-2.375,9.72,-0.59,-1.1,stop,10
9.7,27237.52199275,27,3,3,3,0,9.66,-0.52,-1.12,-0.06,0.06,-0.01,0.0,0.875,-0.375,0.6085205078125,0.2613525390625,-0.69866943359375,0.27069091796875,-20.6875,30.25,-2.375,9.72,-0.58,-1.1,stop,10
9.71,27237.52199275,27,3,3,3,0,9.7,-0.52,-1.12,-0.02,0.06,-0.01,0.3125,0.25,-0.25,0.6085205078125,0.2613525390625,-0.69866943359375,0.27069091796875,-20.6875,30.25,-2.375,9.72,-0.58,-1.1,stop,10
9.72,27237.53573506,27,3,3,3,0,9.63,-0.5,-1.14,-0.08,0.08,-0.04,0.0,0.0,-0.3125,0.6085205078125,0.2613525390625,-0.69866943359375,0.27069091796875,-20.6875,30.25,-2.375,9.72,-0.58,-1.1,stop,10
9.73,27237.53573506,27,3,3,3,0,9.57,-0.58,-1.3,-0.14,0.0,-0.19,0.0625,0.3125,-0.3125,0.6085205078125,0.26141357421875,-0.69866943359375,0.27069091796875,-20.6875,30.6875,-2.0,9.72,-0.58,-1.1,stop,10
9.74,27237.55075097,27,3,3,3,0,9.58,-0.58,-1.31,-0.14,0.0,-0.2,1.25,0.6875,-0.875,0.6085205078125,0.26153564453125,-0.6986083984375,0.27069091796875,-20.6875,30.6875,-2.0,9.72,-0.58,-1.1,stop,10
9.75,27237.55075097,27,3,3,3,0,9.63,-0.57,-1.2,-0.09,0.01,-0.1,3.125,2.5,-1.0625,0.60858154296875,0.26171875,-0.69842529296875,0.2708740234375,-20.6875,30.6875,-2.0,9.72,-0.58,-1.1,stop,10
9.76,27237.58132645,27,3,3,3,0,9.65,-0.58,-1.14,-0.07,0.0,-0.04,2.875,5.125,-0.875,0.60882568359375,0.26177978515625,-0.69805908203125,0.2711181640625,-20.6875,30.6875,-2.0,9.72,-0.58,-1.09,stop,10
9.77,27237.58132645,27,3,3,3,0,9.54,-0.59,-1.11,-0.18,0.0,-0.02,1.3125,6.3125,-0.1875,0.60919189453125,0.26171875,-0.69769287109375,0.27130126953125,-20.6875,30.6875,-2.0,9.72,-0.58,-1.08,stop,10
9.78,27237.597649651,27,3,3,3,0,9.5,-0.61,-1.25,-0.22,-0.03,-0.17,0.1875,3.6875,0.3125,0.609375,0.26165771484375,-0.697509765625,0.27142333984375,-20.6875,30.25,-1.1875,9.72,-0.58,-1.07,stop,10
9.79,27237.597649651,27,3,3,3,0,9.54,-0.64,-1.28,-0.18,-0.05,-0.19,1.0,-2.75,0.6875,0.609130859375,0.26171875,-0.69769287109375,0.27142333984375,-20.6875,30.25,-1.1875,9.72,-0.58,-1.08,stop,10
9.8,27237.611157749,27,3,3,3,0,9.58,-0.6,-1.27,-0.13,-0.01,-0.17,2.75,-7.9375,0.8125,0.6085205078125,0.26202392578125,-0.6981201171875,0.27142333984375,-20.6875,30.25,-1.1875,9.72,-0.58,-1.09,stop,10
9.81,27237.611157749,27,3,3,3,0,9.6,-0.54,-1.27,-0.12,0.04,-0.15,3.0,-7.4375,0.75,0.60791015625,0.2623291015625,-0.698486328125,0.271484375,-20.6875,30.25,-1.1875,9.72,-0.59,-1.11,stop,10
9.82,27237.641295159,27,3,3,3,0,9.73,-0.56,-1.24,0.0,0.03,-0.12,1.625,-5.0,0.8125,0.6075439453125,0.26251220703125,-0.69879150390625,0.271484375,-20.6875,30.25,-1.1875,9.72,-0.59,-1.12,stop,10
9.83,27237.641295159,27,3,3,3,0,9.69,-0.55,-1.28,-0.02,0.03,-0.15,0.125,-1.5,1.0,0.60736083984375,0.262451171875,-0.69891357421875,0.271484375,-21.0,30.25,-2.375,9.72,-0.59,-1.12,stop,10
9.84,27237.656970696,27,3,3,3,0,9.66,-0.54,-1.19,-0.06,0.04,-0.07,0.0,1.25,0.9375,0.607421875,0.26239013671875,-0.6988525390625,0.27154541015625,-21.0,30.25,-2.375,9.72,-0.59,-1.12,stop,10
9.85,27237.656970696,27,3,3,3,0,9.69,-0.52,-1.17,-0.02,0.07,-0.04,1.3125,-1.875,1.0,0.60723876953125,0.262451171875,-0.698974609375,0.27166748046875,-21.0,30.25,-2.375,9.72,-0.59,-1.12,stop,10
9.86,27237.67220267,27,3,3,3,0,9.8,-0.52,-1.09,0.07,0.07,0.04,2.1875,-5.0625,0.5,0.60687255859375,0.2626953125,-0.69921875,0.27166748046875,-21.0,30.25,-2.375,9.72,-0.59,-1.13,stop,10
9.87,27237.67220267,27,3,3,3,0,9.82,-0.57,-1.09,0.1,0.02,0.04,2.25,-6.375,0.625,0.6064453125,0.262939453125,-0.69952392578125,0.27166748046875,-21.0,30.25,-2.375,9.72,-0.6,-1.14,stop,10
9.88,27237.701544467,27,3,3,3,0,9.75,-0.63,-1.19,0.03,-0.03,-0.04,1.8125,-3.0,0.4375,0.606201171875,0.26312255859375,-0.69964599609375,0.271728515625,-21.0,30.25,-2.75,9.72,-0.6,-1.15,stop,10
9.89,27237.701544467,27,3,3,3,0,9.69,-0.62,-1.21,-0.02,-0.02,-0.06,2.625,1.0,0.0625,0.606201171875,0.26324462890625,-0.69952392578125,0.27191162109375,-21.0,30.25,-2.75,9.72,-0.6,-1.14,stop,10
9.9,27237.716790154,27,3,3,3,0,9.67,-0.62,-1.23,-0.04,-0.02,-0.09,3.5,4.75,-0.375,0.60638427734375,0.2633056640625,-0.69915771484375,0.272216796875,-21.0,30.25,-2.75,9.72,-0.6,-1.14,stop,10
9.91,27237.716790154,27,3,3,3,0,9.62,-0.59,-1.19,-0.09,0.0,-0.06,3.375,5.4375,-0.375,0.60662841796875,0.26336669921875,-0.69879150390625,0.2725830078125,-21.0,30.25,-2.75,9.72,-0.6,-1.13,stop,10
9.92,27237.73123506,27,3,3,3,0,9.57,-0.57,-1.17,-0.14,0.03,-0.05,2.9375,4.25,-0.0625,0.6068115234375,0.263427734375,-0.69854736328125,0.2728271484375,-21.0,30.25,-2.75,9.72,-0.6,-1.12,stop,10
9.93,27237.73123506,27,3,3,3,0,9.59,-0.54,-1.15,-0.12,0.05,-0.03,2.625,1.875,0.0,0.60687255859375,0.2635498046875,-0.6983642578125,0.27301025390625,-20.6875,30.25,-3.1875,9.72,-0.6,-1.12,stop,10
9.94,27237.762358066,27,3,3,3,0,9.59,-0.54,-1.11,-0.12,0.06,0.0,2.75,0.3125,0.1875,0.6068115234375,0.263671875,-0.69830322265625,0.273193359375,-20.6875,30.25,-3.1875,9.72,-0.6,-1.12,stop,10
9.95,27237.762358066,27,3,3,3,0,9.57,-0.58,-1.13,-0.14,0.02,-0.01,2.875,0.5,0.5,0.60675048828125,0.26385498046875,-0.6982421875,0.27337646484375,-20.6875,30.25,-3.1875,9.72,-0.6,-1.12,stop,10
9.96,27237.785015252,27,3,3,3,0,9.62,-0.61,-1.12,-0.09,-0.01,0.0,2.4375,-0.9375,0.875,0.6065673828125,0.263916015625,-0.6982421875,0.2735595703125,-20.6875,30.25,-3.1875,9.72,-0.6,-1.12,stop,10
9.97,27237.785015252,27,3,3,3,0,9.68,-0.6,-1.12,-0.03,0.0,0.0,2.125,-3.1875,1.125,0.6063232421875,0.2640380859375,-0.69842529296875,0.273681640625,-20.6875,30.25,-3.1875,9.72,-0.6,-1.12,stop,10
9.98,27237.796404697,27,3,3,3,0,9.71,-0.6,-1.13,0.0,0.0,0.0,2.0,-4.5,1.3125,0.60595703125,0.26416015625,-0.6986083984375,0.27374267578125,-21.0,30.25,-3.1875,9.72,-0.61,-1.13,stop,10
9.99,27237.796404697,27,3,3,3,0,9.76,-0.59,-1.08,0.04,0.02,0.05,1.4375,-5.0,1.375,0.6055908203125,0.2642822265625,-0.69891357421875,0.2738037109375,-21.0,30.25,-3.1875,9.72,-0.61,-1.14,stop,10
10.0,27237.820585971,27,3,3,3,0,9.7,-0.59,-1.13,-0.01,0.02,0.01,0.8125,-3.0625,1.5,0.6053466796875,0.26434326171875,-0.6990966796875,0.27386474609375,-21.0,30.25,-3.1875,9.71,-0.61,-1.14,stop,10
10.01,27237.820585971,27,3,3,3,0,9.64,-0.56,-1.16,-0.07,0.05,-0.01,0.9375,0.6875,1.4375,0.60528564453125,0.2642822265625,-0.69903564453125,0.27398681640625,-21.0,30.25,-3.1875,9.71,-0.61,-1.14,stop,10
10.02,27237.837231642,27,3,3,3,0,9.6,-0.54,-1.14,-0.11,0.07,0.0,1.3125,1.5,1.4375,0.6053466796875,0.26422119140625,-0.698974609375,0.274169921875,-21.0,30.25,-3.1875,9.71,-0.62,-1.14,stop,10
10.03,27237.837231642,27,3,3,3,0,9.64,-0.58,-1.12,-0.07,0.04,0.01,1.4375,0.625,1.4375,0.60528564453125,0.26422119140625,-0.69891357421875,0.27435302734375,-20.6875,30.25,-2.375,9.71,-0.62,-1.14,stop,10
10.04,27237.850343784,27,3,3,3,0,9.6,-0.57,-1.18,-0.11,0.05,-0.04,1.1875,0.625,1.25,0.60528564453125,0.26416015625,-0.69891357421875,0.2745361328125,-20.6875,30.25,-2.375,9.71,-0.62,-1.14,stop,10
10.05,27237.850343784,27,3,3,3,0,9.6,-0.63,-1.14,-0.11,0.0,0.0,0.625,1.6875,1.1875,0.6053466796875,0.26409912109375,-0.6988525390625,0.274658203125,-20.6875,30.25,-2.375,9.71,-0.62,-1.13,stop,10
10.06,27237.881399367,27,3,3,3,0,9.65,-0.66,-1.12,-0.06,-0.03,0.01,0.375,1.5,1.0625,0.60540771484375,0.26397705078125,-0.69879150390625,0.2747802734375,-20.6875,30.25,-2.375,9.72,-0.63,-1.13,stop,10
10.07,27237.881399367,27,3,3,3,0,9.67,-0.65,-1.11,-0.04,-0.02,0.01,1.6875,3.0625,0.625,0.60552978515625,0.26397705078125,-0.6986083984375,0.27496337890625,-20.6875,30.25,-2.375,9.72,-0.63,-1.13,stop,10
10.08,27237.89630875,27,3,3,3,0,9.64,-0.66,-1.13,-0.07,-0.02,0.0,2.3125,4.5,0.4375,0.60577392578125,0.26397705078125,-0.69830322265625,0.27520751953125,-19.875,29.875,-2.75,9.72,-0.63,-1.12,stop,10
10.09,27237.89630875,27,3,3,3,0,9.64,-0.7,-1.16,-0.08,-0.06,-0.04,2.5,6.0625,0.3125,0.6060791015625,0.26397705078125,-0.69793701171875,0.2755126953125,-19.875,29.875,-2.75,9.72,-0.63,-1.11,stop,10
10.1,27237.911187249,27,3,3,3,0,9.62,-0.72,-1.12,-0.09,-0.08,-0.02,1.9375,6.375,0.75,0.60638427734375,0.26385498046875,-0.69757080078125,0.27581787109375,-19.875,29.875,-2.75,9.72,-0.63,-1.1,stop,10
10.11,27237.911187249,27,3,3,3,0,9.66,-0.71,-1.03,-0.05,-0.07,0.06,1.375,5.25,1.0,0.60662841796875,0.26373291015625,-0.697265625,0.27606201171875,-19.875,29.875,-2.75,9.72,-0.63,-1.09,stop,10
10.12,27237.941407708,27,3,3,3,0,9.66,-0.66,-1.02,-0.06,-0.02,0.06,0.625,2.5,1.375,0.60675048828125,0.26361083984375,-0.6971435546875,0.2762451171875,-19.875,29.875,-2.75,9.72,-0.64,-1.08,stop,10
10.13,27237.941407708,27,3,3,3,0,9.66,-0.66,-1.01,-0.06,-0.02,0.07,0.0625,0.1875,1.625,0.606689453125,0.2635498046875,-0.69720458984375,0.2763671875,-21.0,30.25,-3.875,9.72,-0.64,-1.08,stop,10
10.14,27237.95509179,27,3,3,3,0,9.62,-0.69,-1.04,-0.09,-0.04,0.04,-0.0625,-1.0625,2.0,0.6065673828125,0.263427734375,-0.69732666015625,0.27642822265625,-21.0,30.25,-3.875,9.72,-0.64,-1.09,stop,10
10.15,27237.95509179,27,3,3,3,0,9.63,-0.69,-1.05,-0.09,-0.04,0.03,0.1875,-1.0,1.75,0.60650634765625,0.26336669921875,-0.6973876953125,0.2764892578125,-21.0,30.25,-3.875,9.72,-0.64,-1.09,stop,10
10.16,27237.971035475,27,3,3,3,0,9.62,-0.7,-1.07,-0.09,-0.04,0.02,1.0625,-0.4375,1.4375,0.6064453125,0.2633056640625,-0.6973876953125,0.27667236328125,-21.0,30.25,-3.875,9.72,-0.65,-1.09,stop,10
10.17,27237.971035475,27,3,3,3,0,9.62,-0.67,-1.09,-0.09,-0.02,0.0,1.375,0.1875,1.0625,0.60638427734375,0.2633056640625,-0.6973876953125,0.27679443359375,-21.0,30.25,-3.875,9.72,-0.65,-1.09,stop,10
10.18,27238.002653151,27,3,3,3,0,9.66,-0.69,-1.08,-0.06,-0.03,0.0,1.5625,-0.4375,0.875,0.60626220703125,0.26336669921875,-0.6973876953125,0.27691650390625,-20.25,30.25,-3.5,9.72,-0.65,-1.09,stop,10
10.19,27238.002653151,28,3,3,3,0,9.66,-0.7,-1.1,-0.05,-0.04,-0.01,1.9375,-0.625,0.6875,0.606201171875,0.263427734375,-0.6973876953125,0.277099609375,-20.25,30.25,-3.5,9.72,-0.65,-1.09,stop,10
10.2,27238.020696648,28,3,3,3,0,9.66,-0.71,-1.1,-0.05,-0.05,-0.01,2.1875,0.375,0.375,0.60614013671875,0.2635498046875,-0.69732666015625,0.2772216796875,-20.25,30.25,-3.5,9.72,-0.65,-1.09,stop,10
10.21,27238.020696648,28,3,3,3,0,9.64,-0.72,-1.07,-0.08,-0.06,0.01,2.625,1.25,0.3125,0.60614013671875,0.263671875,-0.69720458984375,0.27740478515625,-20.25,30.25,-3.5,9.72,-0.65,-1.09,stop,10
10.22,27238.031447788,28,3,3,3,0,9.66,-0.72,-1.02,-0.05,-0.06,0.06,2.875,1.1875,0.3125,0.60614013671875,0.2637939453125,-0.69708251953125,0.27764892578125,-20.25,30.25,-3.5,9.72,-0.65,-1.08,stop,10
10.23,27238.031447788,28,3,3,3,0,9.68,-0.7,-1.02,-0.03,-0.03,0.06,3.0,0.0,0.3125,0.6060791015625,0.263916015625,-0.697021484375,0.27783203125,-20.6875,30.6875,-3.875,9.72,-0.66,-1.08,stop,10
10.24,27238.0624674,28,3,3,3,0,9.68,-0.67,-1.07,-0.03,0.0,0.02,2.5,-1.3125,0.5625,0.60589599609375,0.2640380859375,-0.697021484375,0.2779541015625,-20.6875,30.6875,-3.875,9.72,-0.66,-1.09,stop,10
10.25,27238.0624674,28,3,3,3,0,9.67,-0.69,-1.1,-0.05,-0.02,-0.01,1.8125,-1.5625,0.75,0.60577392578125,0.26416015625,-0.69708251953125,0.278076171875,-20.6875,30.6875,-3.875,9.72,-0.66,-1.09,stop,10
10.26,27238.075617343,28,3,3,3,0,9.65,-0.68,-1.1,-0.07,-0.01,0.0,1.5,-1.0,0.75,0.60565185546875,0.26422119140625,-0.6971435546875,0.2781982421875,-20.6875,30.6875,-3.875,9.72,-0.66,-1.09,stop,10
10.27,27238.075617343,28,3,3,3,0,9.67,-0.68,-1.05,-0.04,-0.01,0.04,1.75,-0.5,0.625,0.6055908203125,0.26422119140625,-0.6971435546875,0.2783203125,-20.6875,30.6875,-3.875,9.72,-0.66,-1.09,stop,10
10.28,27238.090349643,28,3,3,3,0,9.61,-0.71,-1.06,-0.1,-0.04,0.03,1.75,0.3125,0.4375,0.60552978515625,0.26434326171875,-0.69708251953125,0.2784423828125,-20.25,30.6875,-2.75,9.72,-0.66,-1.09,stop,10
10.29,27238.090349643,28,3,3,3,0,9.55,-0.78,-1.07,-0.16,-0.11,0.02,1.5625,1.9375,0.25,0.6055908203125,0.26434326171875,-0.69696044921875,0.27862548828125,-20.25,30.6875,-2.75,9.72,-0.66,-1.09,stop,10
10.3,27238.120962355,28,3,3,3,0,9.52,-0.79,-1.08,-0.19,-0.12,0.0,1.8125,2.375,0.1875,0.605712890625,0.264404296875,-0.69677734375,0.27874755859375,-20.25,30.6875,-2.75,9.72,-0.66,-1.08,stop,10
10.31,27238.120962355,28,3,3,3,0,9.52,-0.8,-1.03,-0.19,-0.13,0.04,2.6875,1.3125,0.0,0.605712890625,0.26446533203125,-0.6966552734375,0.27899169921875,-20.25,30.6875,-2.75,9.72,-0.66,-1.08,stop,10
10.32,27238.135606276,28,3,3,3,0,9.68,-0.76,-0.87,-0.03,-0.09,0.21,3.875,-0.75,-0.125,0.6055908203125,0.26470947265625,-0.69659423828125,0.27923583984375,-20.25,30.6875,-2.75,9.72,-0.67,-1.08,stop,10
10.33,27238.135606276,28,3,3,3,0,9.74,-0.73,-0.85,0.01,-0.06,0.23,3.8125,-2.9375,0.0625,0.6053466796875,0.26495361328125,-0.69659423828125,0.2794189453125,-19.875,30.6875,-1.5625,9.72,-0.67,-1.08,stop,10
10.34,27238.150647332,28,3,3,3,0,9.75,-0.74,-0.9,0.03,-0.06,0.19,2.5625,-3.625,0.5625,0.6051025390625,0.26507568359375,-0.69671630859375,0.279541015625,-19.875,30.6875,-1.5625,9.72,-0.67,-1.09,stop,10
10.35,27238.150647332,28,3,3,3,0,9.77,-0.8,-1.0,0.05,-0.12,0.09,0.4375,-2.1875,1.0625,0.60491943359375,0.26507568359375,-0.69683837890625,0.27960205078125,-19.875,30.6875,-1.5625,9.72,-0.67,-1.09,stop,10
10.36,27238.180671339,28,3,3,3,0,9.74,-0.84,-1.0,0.02,-0.16,0.08,-0.6875,0.0,1.25,0.60491943359375,0.264892578125,-0.6968994140625,0.2796630859375,-19.875,30.6875,-1.5625,9.72,-0.67,-1.09,stop,10
10.37,27238.180671339,28,3,3,3,0,9.69,-0.84,-1.03,-0.02,-0.16,0.05,-0.3125,2.625,1.25,0.60504150390625,0.2647705078125,-0.69677734375,0.27984619140625,-19.875,30.6875,-1.5625,9.72,-0.68,-1.09,stop,10
10.38,27238.195596592,28,3,3,3,0,9.68,-0.85,-1.0,-0.03,-0.16,0.07,0.5,4.125,0.9375,0.60528564453125,0.2645263671875,-0.69659423828125,0.280029296875,-20.6875,29.875,-3.5,9.72,-0.68,-1.08,stop,10
10.39,27238.195596592,28,3,3,3,0,9.66,-0.94,-0.96,-0.06,-0.25,0.11,1.4375,5.375,0.75,0.6055908203125,0.264404296875,-0.6962890625,0.28033447265625,-20.6875,29.875,-3.5,9.72,-0.68,-1.07,stop,10
10.4,27238.211836582,28,3,3,3,0,9.57,-0.97,-0.87,-0.14,-0.28,0.18,2.4375,7.625,0.625,0.60595703125,0.26422119140625,-0.69580078125,0.28076171875,-20.6875,29.875,-3.5,9.72,-0.69,-1.05,stop,10
10.41,27238.211836582,28,3,3,3,0,9.49,-1.1,-0.85,-0.23,-0.4,0.17,3.6875,10.75,0.5625,0.60650634765625,0.26397705078125,-0.6951904296875,0.28143310546875,-20.6875,29.875,-3.5,9.72,-0.69,-1.03,stop,10
10.42,27238.241280389,28,3,3,3,0,9.44,-1.19,-0.92,-0.28,-0.5,0.09,5.125,12.4375,0.1875,0.60711669921875,0.263916015625,-0.69439697265625,0.28204345703125,-20.6875,29.875,-3.5,9.72,-0.69,-1.01,stop,10
10.43,27238.241280389,28,3,3,3,0,9.45,-1.32,-0.87,-0.27,-0.62,0.12,7.0,11.375,0.125,0.607666015625,0.2640380859375,-0.693603515625,0.28271484375,-20.6875,31.0,-3.1875,9.73,-0.69,-0.99,stop,10
10.44,27238.262893629,28,3,3,3,0,9.45,-1.31,-0.81,-0.28,-0.61,0.16,9.0625,11.375,0.125,0.608154296875,0.26422119140625,-0.69281005859375,0.2835693359375,-20.6875,31.0,-3.1875,9.73,-0.7,-0.97,stop,10
10.45,27238.262893629,28,3,3,3,0,9.45,-1.34,-0.76,-0.28,-0.63,0.19,9.8125,12.25,0.8125,0.608642578125,0.264404296875,-0.69189453125,0.28448486328125,-20.6875,31.0,-3.1875,9.73,-0.7,-0.95,stop,10
10.46,27238.272294956,28,3,3,3,0,9.43,-1.49,-0.91,-0.3,-0.78,0.01,9.1875,13.3125,1.3125,0.60919189453125,0.26446533203125,-0.69097900390625,0.285400390625,-20.6875,31.0,-3.1875,9.73,-0.7,-0.93,stop,10
10.47,27238.272294956,28,3,3,3,0,9.47,-1.6,-1.01,-0.26,-0.89,-0.1,9.125,12.25,1.9375,0.60968017578125,0.2645263671875,-0.690185546875,0.286376953125,-20.6875,31.0,-3.1875,9.73,-0.71,-0.9,stop,10
10.48,27238.303681837,28,3,3,3,0,9.57,-1.63,-1.05,-0.16,-0.91,-0.16,10.6875,8.0625,2.375,0.60986328125,0.26470947265625,-0.68951416015625,0.28729248046875,-21.0,31.375,-3.5,9.73,-0.71,-0.89,stop,10
10.49,27238.303681837,28,3,3,3,0,9.67,-1.59,-1.02,-0.06,-0.86,-0.13,13.3125,3.625,2.125,0.60968017578125,0.26519775390625,-0.68902587890625,0.288330078125,-21.0,31.375,-3.5,9.73,-0.72,-0.88,stop,10
10.5,27238.317332269,28,3,3,3,0,9.89,-1.48,-0.82,0.15,-0.75,0.05,15.0625,1.875,1.8125,0.60943603515625,0.265869140625,-0.6885986328125,0.28936767578125,-21.0,31.375,-3.5,9.73,-0.73,-0.88,stop,10
10.51,27238.317332269,28,3,3,3,0,9.83,-1.43,-0.64,0.09,-0.69,0.22,14.875,4.125,1.9375,0.6092529296875,0.26641845703125,-0.68804931640625,0.29046630859375,-21.0,31.375,-3.5,9.74,-0.73,-0.87,stop,10
10.51,27238.329966831,28,3,3,3,0,9.83,-1.43,-0.64,0.09,-0.69,0.22,14.875,4.125,1.9375,0.6092529296875,0.26641845703125,-0.68804931640625,0.29046630859375,-21.0,31.375,-3.5,9.74,-0.73,-0.87,stop,10
10.52,27238.329966831,28,3,3,3,0,9.77,-1.4,-0.45,0.03,-0.66,0.39,14.25,8.875,1.9375,0.60943603515625,0.266845703125,-0.687255859375,0.2916259765625,-21.0,31.375,-3.5,9.74,-0.74,-0.85,stop,10
10.53,27238.345677484,28,3,3,3,0,9.75,-1.43,-0.32,0.01,-0.68,0.5,14.8125,10.625,2.1875,0.60968017578125,0.2672119140625,-0.6864013671875,0.29290771484375,-19.1875,30.25,-3.875,9.74,-0.74,-0.83,stop,10
10.54,27238.345677484,28,3,3,3,0,9.8,-1.46,-0.29,0.05,-0.7,0.52,16.3125,7.875,2.5625,0.60968017578125,0.2677001953125,-0.68560791015625,0.294189453125,-19.1875,30.25,-3.875,9.74,-0.75,-0.81,moving,10
10.55,27238.360522617,28,3,3,3,0,9.89,-1.48,-0.34,0.14,-0.72,0.46,17.75,2.75,3.0,0.609375,0.2684326171875,-0.68505859375,0.2955322265625,-19.1875,30.25,-3.875,9.74,-0.76,-0.81,moving,10
10.56,27238.360522617,28,3,3,3,0,9.84,-1.5,-0.43,0.1,-0.73,0.37,18.5,-1.25,3.5625,0.6087646484375,0.26922607421875,-0.68475341796875,0.2967529296875,-19.1875,30.25,-3.875,9.74,-0.77,-0.81,moving,10
10.57,27238.39090901,28,3,3,3,0,9.91,-1.36,-0.67,0.16,-0.58,0.13,19.1875,-2.125,4.0625,0.6080322265625,0.27001953125,-0.6844482421875,0.298095703125,-19.1875,30.25,-3.875,9.74,-0.78,-0.81,moving,10
10.58,27238.39090901,28,3,3,3,0,9.87,-1.24,-0.74,0.13,-0.44,0.05,20.8125,0.5625,4.75,0.607421875,0.27044677734375,-0.68402099609375,0.29998779296875,-19.875,30.6875,-4.375,9.74,-0.8,-0.8,moving,10
10.59,27238.405295607,28,3,3,3,0,9.85,-1.03,-0.7,0.11,-0.22,0.08,22.5,5.4375,5.375,0.6070556640625,0.27117919921875,-0.68328857421875,0.3017578125,-19.875,30.6875,-4.375,9.74,-0.81,-0.79,moving,10
10.6,27238.405295607,28,3,3,3,0,9.79,-0.84,-0.65,0.04,-0.01,0.11,23.1875,9.125,6.5625,0.60687255859375,0.271728515625,-0.68231201171875,0.30377197265625,-19.875,30.6875,-4.375,9.74,-0.83,-0.77,moving,10
10.61,27238.420129388,28,3,3,3,0,9.63,-0.59,-0.62,-0.1,0.25,0.13,21.5625,9.375,8.625,0.606689453125,0.27215576171875,-0.68145751953125,0.30572509765625,-19.875,30.6875,-4.375,9.74,-0.84,-0.75,moving,10
10.62,27238.420129388,28,3,3,3,0,9.31,-0.48,-0.66,-0.42,0.38,0.07,19.375,6.625,10.9375,0.6063232421875,0.2723388671875,-0.68084716796875,0.3076171875,-19.875,30.6875,-4.375,9.74,-0.86,-0.73,moving,10
10.63,27238.45197326,28,3,3,3,0,9.12,-0.47,-0.73,-0.6,0.41,0.0,17.625,2.25,13.375,0.605712890625,0.27239990234375,-0.68060302734375,0.3094482421875,-20.25,31.0,-5.5,9.73,-0.89,-0.73,moving,10
10.64,27238.45197326,28,3,3,3,0,8.7,-0.42,-1.08,-1.03,0.5,-0.34,16.3125,-7.5,16.1875,0.60443115234375,0.2724609375,-0.680908203125,0.31109619140625,-20.25,31.0,-5.5,9.73,-0.92,-0.74,moving,10
10.65,27238.465776035,28,3,3,3,0,8.5,-0.32,-1.27,-1.22,0.63,-0.5,17.0,-18.1875,18.3125,0.6024169921875,0.27276611328125,-0.68182373046875,0.3126220703125,-20.25,31.0,-5.5,9.72,-0.95,-0.77,moving,10
10.66,27238.465776035,28,3,3,3,0,8.3,-0.18,-1.25,-1.42,0.81,-0.44,19.0625,-25.8125,19.75,0.59991455078125,0.2733154296875,-0.68316650390625,0.314208984375,-20.25,31.0,-5.5,9.72,-0.99,-0.81,moving,10
10.67,27238.480804762,28,3,3,3,0,8.06,-0.03,-1.16,-1.64,0.99,-0.3,19.6875,-28.25,20.75,0.59716796875,0.27386474609375,-0.6845703125,0.3157958984375,-20.25,31.0,-5.5,9.71,-1.03,-0.85,moving,10
10.68,27238.480804762,28,3,3,3,0,7.61,0.24,-0.74,-2.08,1.31,0.15,17.625,-27.75,22.4375,0.594482421875,0.27423095703125,-0.68609619140625,0.3173828125,-19.1875,30.6875,-4.6875,9.7,-1.07,-0.89,moving,10
10.69,27238.51237654,28,3,3,3,0,7.44,0.36,-0.58,-2.25,1.47,0.36,14.625,-28.3125,24.25,0.59173583984375,0.2742919921875,-0.687744140625,0.31884765625,-19.1875,30.6875,-4.6875,9.69,-1.11,-0.94,moving,10
10.7,27238.51237654,28,3,3,3,0,7.28,0.52,-0.44,-2.4,1.68,0.55,11.9375,-30.0625,25.875,0.58892822265625,0.274169921875,-0.6895751953125,0.3201904296875,-19.1875,30.6875,-4.6875,9.68,-1.16,-0.99,moving,10
10.71,27238.52610123,28,3,3,3,0,7.19,0.65,-0.49,-2.47,1.86,0.55,9.375,-31.25,27.0625,0.5860595703125,0.27392578125,-0.6915283203125,0.32135009765625,-19.1875,30.6875,-4.6875,9.67,-1.21,-1.04,moving,10
10.72,27238.52610123,28,3,3,3,0,7.24,0.68,-1.22,-2.42,1.94,-0.12,7.125,-30.75,28.0625,0.583251953125,0.2734375,-0.693603515625,0.322509765625,-19.1875,30.6875,-4.6875,9.66,-1.25,-1.09,moving,10
10.73,27238.540246087,28,3,3,3,0,7.55,0.52,-1.93,-2.09,1.83,-0.78,4.75,-31.875,28.6875,0.58038330078125,0.2728271484375,-0.69573974609375,0.323486328125,-19.5,30.6875,-4.6875,9.65,-1.3,-1.14,moving,10
10.74,27238.540246087,28,3,3,3,0,8.07,0.29,-2.76,-1.56,1.65,-1.55,0.875,-36.5625,29.125,0.57733154296875,0.27215576171875,-0.6982421875,0.32415771484375,-19.5,30.6875,-4.6875,9.63,-1.35,-1.2,moving,10
10.75,27238.572849766,28,3,3,3,0,9.35,-0.33,-4.18,-0.25,1.07,-2.89,-5.0625,-44.75,31.125,0.5738525390625,0.271240234375,-0.701416015625,0.3243408203125,-19.5,30.6875,-4.6875,9.61,-1.4,-1.28,moving,10
10.76,27238.572849766,28,3,3,3,0,10.02,-0.8,-4.49,0.42,0.65,-3.12,-10.25,-50.4375,32.4375,0.570068359375,0.27020263671875,-0.7049560546875,0.32415771484375,-19.5,30.6875,-4.6875,9.59,-1.46,-1.37,moving,10
10.77,27238.586451694,28,3,3,3,0,10.63,-1.17,-4.5,1.05,0.33,-3.05,-10.9375,-45.4375,31.5,0.56658935546875,0.26898193359375,-0.708251953125,0.323974609375,-19.5,30.6875,-4.6875,9.58,-1.51,-1.45,moving,10
10.78,27238.586451694,28,3,3,3,0,11.06,-1.53,-3.95,1.49,0.02,-2.45,-6.375,-27.0,29.5,0.56427001953125,0.26763916015625,-0.71051025390625,0.3243408203125,-18.5,31.375,-4.6875,9.56,-1.55,-1.49,moving,10
10.79,27238.599847039,28,3,3,3,0,11.54,-2.12,-1.73,1.99,-0.52,-0.23,-0.375,-3.625,27.25,0.563232421875,0.26605224609375,-0.7113037109375,0.32562255859375,-18.5,31.375,-4.6875,9.55,-1.6,-1.5,moving,10
10.79,27238.599847039,28,3,3,3,0,11.54,-2.12,-1.73,1.99,-0.52,-0.23,-0.375,-3.625,27.25,0.563232421875,0.26605224609375,-0.7113037109375,0.32562255859375,-18.5,31.375,-4.6875,9.55,-1.6,-1.5,moving,10
10.8,27238.615691522,28,3,3,3,0,11.75,-2.08,-0.54,2.2,-0.43,0.93,1.125,13.6875,24.75,0.5633544921875,0.26416015625,-0.711181640625,0.32720947265625,-18.5,31.375,-4.6875,9.55,-1.64,-1.48,moving,10
10.81,27238.615691522,28,3,3,3,0,11.76,-1.99,0.34,2.21,-0.31,1.79,-0.4375,23.0,23.125,0.56414794921875,0.2620849609375,-0.7105712890625,0.328857421875,-18.5,31.375,-4.6875,9.55,-1.68,-1.44,moving,10
10.82,27238.630170566,28,3,3,3,0,11.55,-2.18,0.3,2.0,-0.45,1.71,-7.3125,26.125,23.4375,0.56524658203125,0.259521484375,-0.71002197265625,0.33013916015625,-18.5,31.375,-4.6875,9.55,-1.72,-1.4,moving,10
10.83,27238.630170566,28,3,3,3,0,10.8,-2.76,-1.52,1.25,-1.0,-0.14,-14.375,14.3125,24.9375,0.56573486328125,0.2568359375,-0.7103271484375,0.330810546875,-18.0625,31.75,-5.5,9.54,-1.75,-1.38,moving,10
10.84,27238.662336257,28,3,3,3,0,10.81,-2.73,-2.38,1.28,-0.93,-0.97,-6.5,-14.4375,23.6875,0.56427001953125,0.2554931640625,-0.71173095703125,0.33123779296875,-18.0625,31.75,-5.5,9.53,-1.79,-1.4,moving,10
10.85,27238.662336257,28,3,3,3,0,11.13,-2.53,-2.74,1.61,-0.7,-1.26,13.25,-44.25,17.9375,0.56072998046875,0.25628662109375,-0.71392822265625,0.33197021484375,-18.0625,31.75,-5.5,9.52,-1.82,-1.47,moving,10
10.86,27238.678802402,28,3,3,3,0,11.89,-1.62,-2.45,2.39,0.22,-0.89,28.5625,-57.375,11.6875,0.55615234375,0.25860595703125,-0.7161865234375,0.3330078125,-18.0625,31.75,-5.5,9.5,-1.85,-1.56,moving,10
10.87,27238.678802402,28,3,3,3,0,11.82,-1.15,-2.03,2.33,0.72,-0.4,31.0625,-45.5,7.3125,0.5523681640625,0.260986328125,-0.7176513671875,0.33428955078125,-18.0625,31.75,-5.5,9.48,-1.87,-1.63,moving,10
10.88,27238.69184175,28,3,3,3,0,11.51,-0.83,-1.6,2.03,1.05,0.04,21.5625,-16.9375,5.5,0.5506591796875,0.26220703125,-0.71795654296875,0.33551025390625,-16.5625,31.375,-4.375,9.47,-1.89,-1.65,moving,10
10.89,27238.69184175,28,3,3,3,0,11.18,-0.72,-1.23,1.7,1.17,0.4,3.6875,6.75,5.3125,0.55084228515625,0.2618408203125,-0.7176513671875,0.33612060546875,-16.5625,31.375,-4.375,9.47,-1.9,-1.63,moving,10
10.9,27238.720628127,28,3,3,3,0,10.75,-0.91,-0.76,1.27,0.99,0.86,-14.0,11.5,4.875,0.5517578125,0.26055908203125,-0.71759033203125,0.33575439453125,-16.5625,31.375,-4.375,9.48,-1.9,-1.62,moving,10
10.91,27238.720628127,28,3,3,3,0,10.6,-0.94,-0.77,1.12,0.95,0.84,-21.875,5.8125,2.5,0.55255126953125,0.2591552734375,-0.718017578125,0.33465576171875,-16.5625,31.375,-4.375,9.48,-1.9,-1.62,moving,10
10.92,27238.734679152,28,3,3,3,0,10.45,-0.91,-0.86,0.96,0.98,0.75,-21.375,1.25,-1.1875,0.5531005859375,0.2581787109375,-0.71856689453125,0.333251953125,-16.5625,31.375,-4.375,9.48,-1.89,-1.62,moving,10
10.93,27238.734679152,28,3,3,3,0,10.27,-0.86,-1.01,0.79,1.01,0.61,-21.625,1.6875,-5.875,0.55389404296875,0.2574462890625,-0.718994140625,0.3316650390625,-17.6875,31.75,-3.875,9.48,-1.87,-1.63,moving,10
10.94,27238.750735549,28,3,3,3,0,9.82,-1.04,-1.55,0.33,0.81,0.07,-28.1875,7.5625,-10.125,0.5552978515625,0.25653076171875,-0.71917724609375,0.32952880859375,-17.6875,31.75,-3.875,9.49,-1.85,-1.62,moving,10
10.95,27238.750735549,28,3,3,3,0,9.49,-1.11,-1.81,0.0,0.71,-0.2,-36.5,19.75,-12.625,0.5577392578125,0.25494384765625,-0.718994140625,0.32708740234375,-17.6875,31.75,-3.875,9.5,-1.82,-1.6,moving,10
10.96,27238.785319899,28,3,3,3,0,9.28,-1.29,-2.04,-0.22,0.48,-0.47,-42.75,31.375,-16.25,0.56109619140625,0.25299072265625,-0.71832275390625,0.32427978515625,-17.6875,31.75,-3.875,9.51,-1.78,-1.56,moving,10
10.97,27238.785319899,28,3,3,3,0,8.97,-1.18,-2.26,-0.55,0.55,-0.74,-42.1875,36.4375,-20.875,0.56488037109375,0.251220703125,-0.71728515625,0.3214111328125,-17.6875,31.75,-3.875,9.53,-1.73,-1.52,moving,10
10.98,27238.795707757,28,3,3,3,0,9.13,-1.19,-2.13,-0.4,0.48,-0.66,-34.5,32.5,-27.9375,0.5684814453125,0.2503662109375,-0.71600341796875,0.31854248046875,-16.5625,32.1875,-3.5,9.54,-1.68,-1.47,moving,10
10.99,27238.795707757,28,3,3,3,0,9.23,-1.09,-1.94,-0.33,0.52,-0.5,-25.8125,24.625,-32.875,0.57147216796875,0.25048828125,-0.71478271484375,0.31585693359375,-16.5625,32.1875,-3.5,9.56,-1.62,-1.44,moving,10
11.0,27238.816670689,28,3,3,3,0,9.37,-1.04,-1.75,-0.2,0.51,-0.34,-21.4375,21.6875,-38.25,0.5743408203125,0.251220703125,-0.71343994140625,0.31304931640625,-16.5625,32.1875,-3.5,9.57,-1.55,-1.41,moving,10
11.01,27238.816670689,28,3,3,3,0,9.43,-0.82,-1.57,-0.16,0.65,-0.19,-19.8125,26.0625,-41.5,0.57757568359375,0.2520751953125,-0.71173095703125,0.310302734375,-16.5625,32.1875,-3.5,9.59,-1.47,-1.37,moving,10
11.02,27238.845059971,28,3,3,3,0,9.38,-0.77,-1.51,-0.23,0.62,-0.18,-21.5625,32.0625,-44.75,0.58123779296875,0.2529296875,-0.709716796875,0.307373046875,-16.5625,32.1875,-3.5,9.61,-1.39,-1.32,moving,10
11.03,27238.845059971,28,3,3,3,0,9.31,-0.73,-1.37,-0.31,0.57,-0.09,-26.5625,29.375,-47.6875,0.58489990234375,0.25372314453125,-0.7078857421875,0.303955078125,-17.6875,31.75,-2.375,9.63,-1.3,-1.28,moving,10
11.04,27238.85680346,28,3,3,3,0,9.31,-0.8,-1.24,-0.33,0.41,0.0,-30.6875,21.8125,-49.8125,0.5882568359375,0.25469970703125,-0.70648193359375,0.29998779296875,-17.6875,31.75,-2.375,9.64,-1.21,-1.25,moving,10
11.05,27238.85680346,28,3,3,3,0,9.31,-0.82,-1.12,-0.34,0.29,0.1,-31.3125,17.1875,-52.0625,0.59136962890625,0.255859375,-0.70526123046875,0.2957763671875,-17.6875,31.75,-2.375,9.66,-1.12,-1.23,moving,10
11.06,27238.869936883,28,3,3,3,0,9.23,-0.79,-1.1,-0.44,0.23,0.09,-28.875,18.5,-54.4375,0.59454345703125,0.2572021484375,-0.70379638671875,0.29156494140625,-17.6875,31.75,-2.375,9.67,-1.02,-1.2,moving,10
11.07,27238.869936883,28,3,3,3,0,9.21,-0.72,-1.06,-0.48,0.19,0.11,-26.5,23.5625,-57.125,0.5980224609375,0.2587890625,-0.70196533203125,0.2874755859375,-17.6875,31.75,-2.375,9.69,-0.92,-1.17,moving,10
11.08,27238.901104038,28,3,3,3,0,9.09,-0.65,-1.04,-0.61,0.16,0.08,-26.8125,28.0625,-59.3125,0.601806640625,0.26031494140625,-0.6998291015625,0.28338623046875,-19.5,31.0,-2.375,9.7,-0.81,-1.12,moving,10
11.09,27238.901104038,28,3,3,3,0,8.97,-0.65,-1.03,-0.74,0.05,0.04,-27.8125,30.6875,-60.9375,0.6058349609375,0.26177978515625,-0.697509765625,0.27911376953125,-19.5,31.0,-2.375,9.72,-0.7,-1.07,moving,10
11.1,27238.922165806,28,3,3,3,0,8.88,-0.63,-1.18,-0.84,-0.03,-0.14,-27.625,30.3125,-62.1875,0.60980224609375,0.26336669921875,-0.69512939453125,0.27484130859375,-19.5,31.0,-2.375,9.73,-0.59,-1.03,moving,10
11.11,27238.922165806,28,3,3,3,0,8.81,-0.49,-1.31,-0.93,-0.01,-0.32,-26.0625,24.9375,-64.125,0.61346435546875,0.26531982421875,-0.69293212890625,0.2703857421875,-19.5,31.0,-2.375,9.74,-0.48,-0.99,moving,10
11.11,27238.934059198,28,3,3,3,0,8.81,-0.49,-1.31,-0.93,-0.01,-0.32,-26.0625,24.9375,-64.125,0.61346435546875,0.26531982421875,-0.69293212890625,0.2703857421875,-19.5,31.0,-2.375,9.74,-0.48,-0.99,moving,10
11.12,27238.934059198,28,3,3,3,0,8.85,-0.07,-1.4,-0.89,0.29,-0.43,-22.9375,14.5,-64.5625,0.61639404296875,0.26763916015625,-0.69122314453125,0.265869140625,-19.5,31.0,-2.375,9.75,-0.36,-0.96,moving,10
11.13,27238.944871942,28,3,3,3,0,8.9,0.26,-1.47,-0.85,0.51,-0.5,-23.5625,2.1875,-65.1875,0.61859130859375,0.270263671875,-0.6900634765625,0.260986328125,-20.6875,30.6875,-2.375,9.75,-0.25,-0.96,moving,10
11.14,27238.944871942,28,3,3,3,0,8.94,0.5,-1.46,-0.8,0.64,-0.48,-26.5625,-8.875,-64.375,0.6201171875,0.27288818359375,-0.68963623046875,0.25567626953125,-20.6875,30.6875,-2.375,9.75,-0.13,-0.98,moving,10
11.15,27238.961114577,28,3,3,3,0,9.03,0.95,-1.48,-0.72,0.98,-0.47,-30.5,-15.875,-63.8125,0.62127685546875,0.27545166015625,-0.68963623046875,0.25,-20.6875,30.6875,-2.375,9.75,-0.02,-1.0,moving,10
11.16,27238.961114577,28,3,3,3,0,9.1,1.04,-1.41,-0.64,0.95,-0.36,-34.4375,-19.75,-62.5625,0.622314453125,0.27777099609375,-0.68994140625,0.24407958984375,-20.6875,30.6875,-2.375,9.75,0.08,-1.04,moving,10
11.17,27238.996230096,28,3,3,3,0,9.14,1.15,-1.25,-0.6,0.95,-0.17,-39.1875,-21.5,-61.5,0.62322998046875,0.27984619140625,-0.6904296875,0.23779296875,-20.6875,30.6875,-2.375,9.74,0.19,-1.07,moving,10
11.18,27238.996230096,28,3,3,3,0,9.25,1.11,-1.15,-0.47,0.8,-0.03,-45.0625,-21.375,-60.3125,0.624267578125,0.28143310546875,-0.6910400390625,0.23126220703125,-22.5,29.875,-2.375,9.73,0.31,-1.11,moving,10
11.19,27239.005702671,28,3,3,3,0,9.41,0.73,-0.96,-0.31,0.31,0.17,-50.75,-18.3125,-59.0,0.6256103515625,0.28265380859375,-0.69158935546875,0.22454833984375,-22.5,29.875,-2.375,9.73,0.42,-1.14,moving,10
11.2,27239.005702671,28,3,3,3,0,9.36,0.46,-0.93,-0.35,-0.06,0.22,-53.625,-11.6875,-58.125,0.6273193359375,0.283447265625,-0.69183349609375,0.21783447265625,-22.5,29.875,-2.375,9.72,0.53,-1.15,moving,10
11.21,27239.02354874,28,3,3,3,0,9.29,0.23,-0.89,-0.42,-0.4,0.26,-53.125,-4.0625,-57.5,0.62945556640625,0.2840576171875,-0.691650390625,0.21136474609375,-22.5,29.875,-2.375,9.71,0.64,-1.15,moving,10
11.22,27239.02354874,28,3,3,3,0,9.17,0.11,-0.85,-0.53,-0.63,0.29,-50.5,2.5625,-56.5625,0.63189697265625,0.28466796875,-0.6910400390625,0.20526123046875,-22.5,29.875,-2.375,9.71,0.74,-1.14,moving,10
11.23,27239.053996535,28,3,3,3,0,8.98,0.04,-0.81,-0.71,-0.8,0.31,-47.5,7.5,-54.875,0.634521484375,0.28521728515625,-0.6900634765625,0.19952392578125,-24.25,28.0625,-1.1875,9.7,0.84,-1.12,moving,10
11.24,27239.053996535,28,3,3,3,0,8.89,0.11,-0.85,-0.79,-0.83,0.24,-44.0625,11.0625,-52.125,0.63720703125,0.2857666015625,-0.68890380859375,0.1942138671875,-24.25,28.0625,-1.1875,9.69,0.94,-1.1,moving,10
11.25,27239.065228184,28,3,3,3,0,9.11,0.18,-1.07,-0.58,-0.85,0.0,-41.0,11.9375,-48.75,0.6397705078125,0.28619384765625,-0.687744140625,0.1893310546875,-24.25,28.0625,-1.1875,9.69,1.03,-1.07,moving,10
11.26,27239.065228184,28,3,3,3,0,9.12,0.42,-1.2,-0.55,-0.69,-0.16,-39.0625,15.0625,-44.8125,0.642333984375,0.28643798828125,-0.6864013671875,0.18487548828125,-24.25,28.0625,-1.1875,9.68,1.12,-1.04,moving,10
11.27,27239.081976068,28,3,3,3,0,9.35,0.64,-1.45,-0.32,-0.55,-0.45,-38.0,16.9375,-41.0,0.64495849609375,0.2864990234375,-0.68499755859375,0.18072509765625,-24.25,28.0625,-1.1875,9.68,1.19,-1.0,moving,10
11.28,27239.081976068,28,3,3,3,0,9.15,0.75,-1.4,-0.51,-0.5,-0.44,-36.625,24.5625,-37.4375,0.64794921875,0.28631591796875,-0.68328857421875,0.177001953125,-25.375,27.0,1.0625,9.67,1.26,-0.95,moving,10
11.29,27239.114983474,28,3,3,3,0,9.28,0.87,-1.34,-0.38,-0.46,-0.43,-33.5625,23.9375,-34.6875,0.6507568359375,0.2861328125,-0.68157958984375,0.17364501953125,-25.375,27.0,1.0625,9.67,1.33,-0.9,moving,10
11.3,27239.114983474,28,3,3,3,0,10.09,1.09,-1.1,0.42,-0.29,-0.21,-27.0625,6.125,-32.375,0.65228271484375,0.28643798828125,-0.6807861328125,0.17034912109375,-25.375,27.0,1.0625,9.66,1.38,-0.89,moving,10
11.31,27239.136737665,28,3,3,3,0,10.58,1.18,-0.96,0.92,-0.25,-0.05,-17.9375,-14.625,-30.3125,0.65228271484375,0.28741455078125,-0.68115234375,0.16717529296875,-25.375,27.0,1.0625,9.65,1.44,-0.91,moving,10
11.32,27239.136737665,28,3,3,3,0,10.69,1.24,-0.96,1.04,-0.24,0.0,-12.5625,-24.1875,-27.5625,0.65155029296875,0.2886962890625,-0.6820068359375,0.16424560546875,-25.375,27.0,1.0625,9.64,1.49,-0.95,moving,10
11.33,27239.143247268,28,3,3,3,0,10.69,1.16,-0.94,1.05,-0.36,0.03,-15.6875,-16.6875,-23.1875,0.65130615234375,0.2894287109375,-0.6826171875,0.16156005859375,-26.75,25.875,1.5,9.63,1.53,-0.97,moving,10
11.34,27239.143247268,28,3,3,3,0,10.63,0.86,-1.11,1.0,-0.7,-0.12,-23.75,-11.4375,-18.1875,0.65142822265625,0.28936767578125,-0.68310546875,0.1588134765625,-26.75,25.875,1.5,9.62,1.56,-0.98,moving,10
11.35,27239.176888584,28,3,3,3,0,10.52,0.69,-1.24,0.89,-0.89,-0.24,-30.5,-11.375,-12.3125,0.6517333984375,0.28851318359375,-0.68389892578125,0.156005859375,-26.75,25.875,1.5,9.62,1.59,-0.99,moving,10
11.36,27239.176888584,28,3,3,3,0,10.55,0.58,-1.46,0.93,-1.02,-0.44,-32.875,-17.375,-7.125,0.651611328125,0.28729248046875,-0.68511962890625,0.1531982421875,-26.75,25.875,1.5,9.61,1.61,-1.01,moving,10
11.37,27239.189625685,28,3,3,3,0,10.63,0.48,-1.89,1.02,-1.13,-0.85,-31.1875,-22.4375,-2.0,0.65106201171875,0.28594970703125,-0.686767578125,0.150634765625,-26.75,25.875,1.5,9.61,1.62,-1.04,moving,10
11.38,27239.189625685,28,3,3,3,0,10.5,0.44,-2.01,0.89,-1.17,-0.94,-26.5625,-19.3125,1.75,0.6505126953125,0.28460693359375,-0.68829345703125,0.148681640625,-27.1875,25.5,1.5,9.61,1.62,-1.07,moving,10
11.39,27239.203145664,28,3,3,3,0,10.29,0.48,-1.94,0.68,-1.13,-0.86,-20.1875,-7.0625,4.6875,0.6505126953125,0.28326416015625,-0.6890869140625,0.14752197265625,-27.1875,25.5,1.5,9.61,1.62,-1.07,moving,10
11.4,27239.203145664,28,3,3,3,0,10.18,0.49,-1.79,0.57,-1.11,-0.72,-13.5,2.1875,7.4375,0.65087890625,0.281982421875,-0.68927001953125,0.147216796875,-27.1875,25.5,1.5,9.61,1.61,-1.07,moving,10
11.4,27239.214804193,28,3,3,3,0,10.18,0.49,-1.79,0.57,-1.11,-0.72,-13.5,2.1875,7.4375,0.65087890625,0.281982421875,-0.68927001953125,0.147216796875,-27.1875,25.5,1.5,9.61,1.61,-1.07,moving,10
11.41,27239.214804193,28,3,3,3,0,10.15,0.53,-1.34,0.54,-1.05,-0.27,-5.625,2.5625,9.6875,0.65106201171875,0.28106689453125,-0.689453125,0.1474609375,-27.1875,25.5,1.5,9.61,1.59,-1.06,moving,10
11.42,27239.2326584,28,3,3,3,0,10.34,0.69,-1.15,0.72,-0.88,-0.07,3.75,-5.9375,11.6875,0.65045166015625,0.2806396484375,-0.6900634765625,0.148193359375,-27.1875,25.5,1.5,9.61,1.57,-1.07,moving,10
11.43,27239.2326584,28,3,3,3,0,10.28,0.6,-1.07,0.66,-0.94,0.02,11.8125,-12.8125,13.6875,0.64923095703125,0.2806396484375,-0.69097900390625,0.1494140625,-27.5625,25.875,1.5,9.62,1.54,-1.1,moving,10
11.44,27239.265696161,28,3,3,3,0,10.23,0.6,-1.15,0.6,-0.91,-0.02,14.1875,-14.6875,16.1875,0.64776611328125,0.28070068359375,-0.6920166015625,0.15081787109375,-27.5625,25.875,1.5,9.62,1.51,-1.13,moving,10
11.45,27239.265696161,28,3,3,3,0,10.34,0.56,-1.24,0.71,-0.91,-0.07,17.25,-20.75,19.125,0.64581298828125,0.28076171875,-0.69342041015625,0.1524658203125,-27.5625,25.875,1.5,9.62,1.48,-1.17,moving,10
11.46,27239.290830926,28,3,3,3,0,10.34,0.61,-1.32,0.72,-0.82,-0.09,20.9375,-28.6875,22.0625,0.64324951171875,0.281005859375,-0.6953125,0.15423583984375,-27.5625,25.875,1.5,9.62,1.44,-1.22,moving,10
11.47,27239.290830926,28,3,3,3,0,10.32,0.57,-1.45,0.69,-0.82,-0.17,20.625,-28.75,25.875,0.64068603515625,0.28094482421875,-0.697265625,0.15625,-27.5625,25.875,1.5,9.62,1.39,-1.27,moving,10
11.48,27239.300089471,28,3,3,3,0,10.08,0.27,-1.75,0.46,-1.06,-0.43,16.25,-23.375,29.875,0.638427734375,0.28033447265625,-0.6990966796875,0.1583251953125,-26.0625,25.875,3.0,9.62,1.33,-1.32,moving,10
11.49,27239.300089471,28,3,3,3,0,9.79,0.04,-1.97,0.16,-1.23,-0.62,10.5,-15.0625,34.4375,0.63677978515625,0.279052734375,-0.70062255859375,0.1605224609375,-26.0625,25.875,3.0,9.62,1.27,-1.34,moving,10
11.5,27239.321159499,28,3,3,3,0,9.57,-0.09,-2.09,-0.05,-1.31,-0.73,8.5625,-10.0,37.3125,0.6353759765625,0.27740478515625,-0.70196533203125,0.16290283203125,-26.0625,25.875,3.0,9.63,1.21,-1.36,moving,10
11.51,27239.321159499,28,3,3,3,0,9.46,-0.15,-2.16,-0.16,-1.29,-0.77,14.6875,-13.9375,39.5,0.63360595703125,0.27593994140625,-0.7034912109375,0.1656494140625,-26.0625,25.875,3.0,9.63,1.14,-1.39,moving,10
11.52,27239.339861322,28,3,3,3,0,9.26,-0.38,-2.25,-0.37,-1.45,-0.81,22.25,-21.5,40.75,0.63116455078125,0.2750244140625,-0.70538330078125,0.16876220703125,-26.0625,25.875,3.0,9.64,1.06,-1.43,moving,10
11.53,27239.339861322,28,3,3,3,0,9.21,-0.4,-2.2,-0.42,-1.4,-0.71,30.4375,-28.5,41.25,0.6280517578125,0.2745361328125,-0.70745849609375,0.1722412109375,-26.0625,26.6875,2.5625,9.64,0.99,-1.48,moving,10
11.54,27239.35005635,28,3,3,3,0,9.59,-0.14,-2.03,-0.04,-1.05,-0.47,41.875,-41.5625,41.25,0.62384033203125,0.27490234375,-0.7100830078125,0.17608642578125,-26.0625,26.6875,2.5625,9.63,0.91,-1.56,moving,10
11.55,27239.35005635,28,3,3,3,0,9.91,-0.07,-1.97,0.28,-0.89,-0.31,49.875,-50.3125,43.0,0.61883544921875,0.27569580078125,-0.71307373046875,0.1802978515625,-26.0625,26.6875,2.5625,9.63,0.82,-1.65,moving,10
11.56,27239.382350173,28,3,3,3,0,9.74,-0.35,-2.06,0.12,-1.08,-0.33,44.25,-39.0,46.0625,0.61456298828125,0.27581787109375,-0.71563720703125,0.18463134765625,-26.0625,26.6875,2.5625,9.62,0.73,-1.72,moving,10
11.57,27239.382350173,28,3,3,3,0,9.62,-0.39,-2.05,0.0,-1.03,-0.26,44.375,-33.25,46.9375,0.61065673828125,0.27581787109375,-0.71783447265625,0.18914794921875,-26.0625,26.6875,2.5625,9.62,0.64,-1.79,moving,10
11.58,27239.399794956,28,3,3,3,0,9.6,-0.38,-1.93,-0.01,-0.92,-0.07,49.6875,-33.75,49.125,0.60650634765625,0.27593994140625,-0.719970703125,0.19403076171875,-24.1875,27.0,3.75,9.61,0.54,-1.85,moving,10
11.59,27239.399794956,28,3,3,3,0,9.77,-0.25,-1.45,0.16,-0.69,0.46,55.1875,-40.75,49.75,0.60174560546875,0.2763671875,-0.72235107421875,0.19915771484375,-24.1875,27.0,3.75,9.6,0.43,-1.92,moving,10
11.6,27239.410433506,28,3,3,3,0,9.81,-0.16,-1.22,0.22,-0.5,0.77,60.25,-45.625,49.8125,0.5965576171875,0.27716064453125,-0.72491455078125,0.20452880859375,-24.1875,27.0,3.75,9.59,0.33,-2.0,moving,10
11.61,27239.410433506,28,3,3,3,0,10.12,0.08,-1.26,0.54,-0.14,0.81,59.5625,-41.0,50.75,0.591552734375,0.27777099609375,-0.7271728515625,0.20989990234375,-24.1875,27.0,3.75,9.58,0.22,-2.07,moving,10
11.62,27239.441721389,28,3,3,3,0,9.77,-0.23,-1.61,0.19,-0.35,0.5,48.9375,-22.375,54.875,0.58795166015625,0.2772216796875,-0.728759765625,0.21533203125,-24.1875,27.0,3.75,9.57,0.11,-2.11,moving,10
11.63,27239.441721389,28,3,3,3,0,9.29,-0.66,-1.87,-0.28,-0.67,0.24,37.1875,-0.0625,56.6875,0.5859375,0.2755126953125,-0.72943115234375,0.2205810546875,-22.375,28.5,2.1875,9.57,0.01,-2.11,moving,10
