timestamp,android_nano_timestamp,temperature,calib_mag,calib_accel,calib_gyro,calib_sys,acc_x,acc_y,acc_z,lacc_x,lacc_y,lacc_z,gyro_x,gyro_y,gyro_z,quat_w,quat_x,quat_y,quat_z,mag_x,mag_y,mag_z,gravity_x,gravity_y,gravity_z,label,person
5.1,608309.722364526,21,1,1,0,0,7.59,-0.06,-0.85,-2.14,-0.58,0.18,-9.625,-12.75,14.1875,0.42315673828125,-0.550048828125,-0.5001220703125,-0.5179443359375,4.375,16.5625,-2.875,9.73,0.51,-1.03,moving,1
5.1,608309.736872867,21,1,1,0,0,9.34,-0.4,-2.8,-0.38,-0.89,-1.72,-9.6875,-28.6875,19.625,0.42236328125,-0.55255126953125,-0.49981689453125,-0.5162353515625,4.375,16.5625,-2.875,9.73,0.48,-1.08,moving,1
5.11,608309.736872867,21,1,1,0,0,15.7,-1.14,-6.4,5.98,-1.58,-5.22,0.375,-60.1875,27.5,0.42095947265625,-0.55645751953125,-0.50067138671875,-0.5123291015625,4.375,16.5625,-2.875,9.72,0.43,-1.18,moving,1
5.12,608309.752685693,21,1,1,0,0,19.09,-0.3,-4.44,9.38,-0.68,-3.1,18.9375,-94.4375,33.8125,0.41925048828125,-0.56146240234375,-0.50335693359375,-0.50567626953125,4.375,16.5625,-2.875,9.7,0.37,-1.34,moving,1
5.13,608309.752685693,21,1,1,0,0,19.91,2.82,0.6,10.22,2.49,2.07,25.4375,-76.5625,28.6875,0.41839599609375,-0.56512451171875,-0.505859375,-0.49969482421875,4.375,16.5625,-2.875,9.68,0.32,-1.47,moving,1
5.14,608309.783109277,21,1,1,0,0,19.69,3.45,1.9,10.0,3.16,3.41,15.625,-16.3125,12.5,0.4189453125,-0.5657958984375,-0.50653076171875,-0.49774169921875,5.75,16.5625,-2.5,9.68,0.29,-1.5,moving,1
5.15,608309.783109277,21,1,1,0,0,15.45,0.72,-2.86,5.77,0.42,-1.35,13.5625,-2.125,-1.375,0.41949462890625,-0.56536865234375,-0.50726318359375,-0.49713134765625,5.75,16.5625,-2.5,9.68,0.29,-1.5,moving,1
5.16,608309.798079654,21,1,1,0,0,12.88,-0.48,-2.54,3.19,-0.79,-1.04,11.875,4.1875,-7.4375,0.419921875,-0.56439208984375,-0.50799560546875,-0.4970703125,5.75,16.5625,-2.5,9.68,0.3,-1.5,moving,1
5.17,608309.798079654,21,1,1,0,0,14.25,0.0,-0.59,4.56,-0.31,0.87,-15.0625,14.4375,1.25,0.419921875,-0.56439208984375,-0.5067138671875,-0.4984130859375,5.75,16.5625,-2.5,9.69,0.3,-1.47,moving,1
5.18,608309.812268985,21,1,1,0,0,11.54,-0.64,-0.93,1.84,-0.95,0.47,-9.4375,37.1875,-3.25,0.4208984375,-0.56298828125,-0.505126953125,-0.500732421875,5.75,16.5625,-2.5,9.69,0.31,-1.41,moving,1
5.19,608309.812268985,21,1,1,0,0,11.82,0.17,-1.15,2.11,-0.15,0.21,18.125,23.9375,-12.4375,0.42230224609375,-0.56072998046875,-0.505615234375,-0.5015869140625,6.5,15.875,-3.6875,9.7,0.32,-1.37,moving,1
5.2,608309.845351261,21,1,1,0,0,10.17,0.73,-1.84,0.46,0.37,-0.51,29.625,28.875,-20.375,0.42413330078125,-0.55743408203125,-0.5068359375,-0.50244140625,6.5,15.875,-3.6875,9.7,0.35,-1.32,moving,1
5.21,608309.845351261,21,1,1,0,0,10.02,0.77,-1.43,0.31,0.38,-0.15,29.3125,27.5625,-22.625,0.42578125,-0.55413818359375,-0.50823974609375,-0.50335693359375,6.5,15.875,-3.6875,9.71,0.38,-1.28,moving,1
5.22,608309.857019107,21,1,1,0,0,8.3,0.82,-1.77,-1.41,0.4,-0.53,18.5625,29.75,-20.125,0.4271240234375,-0.55126953125,-0.5089111328125,-0.50469970703125,6.5,15.875,-3.6875,9.71,0.41,-1.23,moving,1
5.23,608309.857019107,21,1,1,0,0,8.27,0.7,-1.62,-1.44,0.25,-0.43,9.4375,26.875,-16.125,0.4281005859375,-0.54901123046875,-0.50909423828125,-0.50616455078125,6.5,15.875,-3.6875,9.72,0.44,-1.18,moving,1
5.24,608309.872740624,21,1,1,0,0,7.4,0.44,-1.62,-2.32,-0.02,-0.47,5.375,23.25,-10.6875,0.42889404296875,-0.54730224609375,-0.50897216796875,-0.5074462890625,5.75,16.1875,-3.6875,9.72,0.46,-1.14,moving,1
5.25,608309.872740624,21,1,1,0,0,6.53,0.43,-1.34,-3.2,-0.04,-0.22,2.4375,20.375,-9.625,0.42950439453125,-0.54583740234375,-0.5087890625,-0.5086669921875,5.75,16.1875,-3.6875,9.73,0.47,-1.11,moving,1
5.26,608309.904254133,21,1,1,0,0,6.1,0.62,-1.01,-3.63,0.13,0.07,-4.0,13.875,-7.1875,0.42962646484375,-0.5450439453125,-0.5084228515625,-0.509765625,5.75,16.1875,-3.6875,9.73,0.49,-1.08,moving,1
5.27,608309.904254133,21,1,1,0,0,5.89,0.57,-0.9,-3.83,0.07,0.17,-15.125,5.9375,-4.6875,0.428955078125,-0.545166015625,-0.50775146484375,-0.51092529296875,5.75,16.1875,-3.6875,9.73,0.5,-1.07,moving,1
5.28,608309.917785831,21,1,1,0,0,5.77,0.5,-0.68,-3.96,0.0,0.39,-20.0,-3.625,-2.3125,0.427734375,-0.54595947265625,-0.507080078125,-0.51171875,5.75,16.1875,-3.6875,9.73,0.5,-1.08,moving,1
5.29,608309.917785831,21,1,1,0,0,5.27,0.13,-0.72,-4.45,-0.38,0.37,-11.875,-10.0,-4.125,0.426513671875,-0.54669189453125,-0.50714111328125,-0.51190185546875,5.0625,16.5625,-2.5,9.73,0.51,-1.09,moving,1
5.3,608309.932719099,21,1,1,0,0,5.85,0.21,0.29,-3.87,-0.31,1.4,-5.0625,-3.9375,-6.9375,0.42578125,-0.5467529296875,-0.50738525390625,-0.51220703125,5.0625,16.5625,-2.5,9.72,0.53,-1.1,moving,1
5.31,608309.932719099,21,1,1,0,0,4.46,0.33,-0.74,-5.27,-0.21,0.31,-4.5,27.25,-7.25,0.42645263671875,-0.54534912109375,-0.50653076171875,-0.51397705078125,5.0625,16.5625,-2.5,9.73,0.54,-1.05,moving,1
5.32,608309.962567406,21,1,1,0,0,4.97,0.79,0.61,-4.76,0.23,1.64,6.0,15.8125,-10.25,0.427001953125,-0.5439453125,-0.50665283203125,-0.51483154296875,5.0625,16.5625,-2.5,9.73,0.56,-1.03,moving,1
5.33,608309.962567406,21,1,1,0,0,4.72,0.69,0.22,-5.01,0.12,1.24,2.625,11.75,-8.125,0.42724609375,-0.54296875,-0.5067138671875,-0.515625,5.0625,16.5625,-2.5,9.73,0.57,-1.01,moving,1
5.34,608309.977415795,21,1,1,0,0,5.37,0.43,0.06,-4.36,-0.15,1.06,4.0,4.375,-7.5625,0.42730712890625,-0.54229736328125,-0.50714111328125,-0.51593017578125,5.375,16.1875,-2.0625,9.73,0.58,-1.0,moving,1
5.35,608309.977415795,21,1,1,0,0,6.1,0.39,-0.67,-3.63,-0.19,0.32,-1.8125,-2.25,-2.375,0.427001953125,-0.5423583984375,-0.5072021484375,-0.5159912109375,5.375,16.1875,-2.0625,9.73,0.59,-1.0,moving,1
5.36,608309.992599877,21,1,1,0,0,9.65,-0.11,-2.77,-0.08,-0.7,-1.74,-9.25,-13.125,4.6875,0.42620849609375,-0.54351806640625,-0.507080078125,-0.51556396484375,5.375,16.1875,-2.0625,9.73,0.58,-1.02,moving,1
5.37,608309.992599877,21,1,1,0,0,12.49,-0.37,-3.54,2.76,-0.94,-2.45,-11.1875,-35.625,11.125,0.42462158203125,-0.5460205078125,-0.50738525390625,-0.51397705078125,5.375,16.1875,-2.0625,9.72,0.56,-1.08,moving,1
5.38,608310.008503035,21,1,1,0,0,12.49,-0.37,-3.54,2.76,-0.94,-2.45,-11.1875,-35.625,11.125,0.42462158203125,-0.5460205078125,-0.50738525390625,-0.51397705078125,5.375,16.1875,-2.0625,9.72,0.56,-1.08,moving,1
5.39,608310.008503035,21,1,1,0,0,16.27,-0.51,-4.04,6.55,-1.05,-2.83,-15.625,-70.1875,18.625,0.42156982421875,-0.550537109375,-0.50836181640625,-0.5106201171875,5.375,16.1875,-2.0625,9.71,0.53,-1.2,moving,1
5.39,608310.0235069,21,1,1,0,0,18.83,0.66,-2.17,9.13,0.16,-0.83,-11.4375,-79.625,21.75,0.41845703125,-0.55548095703125,-0.50970458984375,-0.5064697265625,6.5,16.5625,-1.75,9.7,0.5,-1.34,moving,1
5.4,608310.0235069,21,1,1,0,0,18.06,1.79,-2.12,8.36,1.3,-0.74,8.4375,-21.5625,10.1875,0.4183349609375,-0.55657958984375,-0.5103759765625,-0.50469970703125,6.5,16.5625,-1.75,9.69,0.48,-1.37,moving,1
5.41,608310.052203963,21,1,1,0,0,17.17,0.43,-4.96,7.47,-0.06,-3.62,26.875,23.9375,-10.0,0.4202880859375,-0.5540771484375,-0.51116943359375,-0.5050048828125,6.5,16.5625,-1.75,9.7,0.49,-1.33,moving,1
5.42,608310.052203963,21,1,1,0,0,15.33,0.25,-4.31,5.63,-0.25,-2.98,40.5625,3.875,-18.6875,0.42156982421875,-0.55157470703125,-0.51373291015625,-0.50408935546875,6.5,16.5625,-1.75,9.7,0.51,-1.33,moving,1
5.43,608310.066912825,21,1,1,0,0,14.6,0.45,-2.66,4.91,-0.07,-1.28,25.0625,-24.9375,-10.6875,0.42120361328125,-0.55126953125,-0.51629638671875,-0.50213623046875,6.5,16.5625,-1.75,9.69,0.53,-1.38,moving,1
5.44,608310.066912825,21,1,1,0,0,14.28,0.79,-1.23,4.59,0.26,0.19,2.4375,-27.1875,-1.3125,0.4200439453125,-0.55230712890625,-0.5174560546875,-0.500732421875,5.0625,16.5625,-2.0625,9.68,0.53,-1.42,moving,1
5.45,608310.08252867,21,1,1,0,0,14.27,1.38,-0.72,4.59,0.84,0.7,1.1875,1.4375,-7.125,0.41986083984375,-0.5518798828125,-0.517822265625,-0.50103759765625,5.0625,16.5625,-2.0625,9.68,0.54,-1.42,moving,1
5.46,608310.08252867,21,1,1,0,0,11.46,0.96,-1.63,1.77,0.38,-0.23,26.6875,20.5625,-21.625,0.42108154296875,-0.54901123046875,-0.51922607421875,-0.5015869140625,5.0625,16.5625,-2.0625,9.69,0.57,-1.39,moving,1
5.47,608310.113119246,21,1,1,0,0,9.95,1.4,-1.22,0.25,0.8,0.13,35.1875,19.4375,-23.9375,0.422607421875,-0.5457763671875,-0.521240234375,-0.5018310546875,5.0625,16.5625,-2.0625,9.69,0.6,-1.36,moving,1
5.48,608310.113119246,21,1,1,0,0,8.29,1.2,-1.48,-1.4,0.57,-0.18,16.375,38.4375,-17.5,0.42437744140625,-0.542724609375,-0.5213623046875,-0.5035400390625,5.0625,16.5625,-2.0625,9.69,0.63,-1.3,moving,1
5.49,608310.128457381,21,1,1,0,0,7.22,0.84,-1.62,-2.48,0.19,-0.39,9.6875,42.1875,-15.0625,0.42608642578125,-0.539794921875,-0.52093505859375,-0.505615234375,5.375,16.5625,-2.5,9.7,0.65,-1.23,moving,1
5.5,608310.128457381,21,1,1,0,0,5.66,0.57,-1.44,-4.04,-0.09,-0.26,8.0,31.375,-11.5625,0.4273681640625,-0.53759765625,-0.52069091796875,-0.5072021484375,5.375,16.5625,-2.5,9.71,0.67,-1.17,moving,1
5.51,608310.159450219,21,1,1,0,0,5.22,0.7,-1.47,-4.49,0.02,-0.33,3.6875,26.875,-8.0,0.42840576171875,-0.535888671875,-0.52020263671875,-0.508544921875,5.375,16.5625,-2.5,9.71,0.68,-1.13,moving,1
5.52,608310.159450219,21,1,1,0,0,4.76,0.55,-1.3,-4.95,-0.14,-0.21,0.4375,25.6875,-5.4375,0.4293212890625,-0.5345458984375,-0.51947021484375,-0.50994873046875,5.375,16.5625,-2.5,9.72,0.69,-1.09,moving,1
5.53,608310.165037947,21,1,1,0,0,4.47,0.4,-1.15,-5.25,-0.29,-0.11,0.875,26.1875,-5.1875,0.43035888671875,-0.5330810546875,-0.518798828125,-0.5113525390625,5.375,16.5625,-2.5,9.72,0.7,-1.04,moving,1
5.54,608310.165037947,21,1,1,0,0,4.06,0.26,-0.97,-5.66,-0.44,0.03,1.5,24.75,-3.6875,0.43133544921875,-0.53173828125,-0.51812744140625,-0.5125732421875,4.6875,16.5625,-2.5,9.72,0.7,-1.0,moving,1
5.55,608310.188216699,21,1,1,0,0,3.91,0.24,-1.01,-5.82,-0.46,-0.04,0.0,23.0,-1.375,0.43231201171875,-0.53070068359375,-0.517333984375,-0.513671875,4.6875,16.5625,-2.5,9.73,0.71,-0.96,moving,1
5.56,608310.188216699,21,1,1,0,0,3.89,0.2,-0.99,-5.83,-0.5,-0.05,0.3125,17.875,-1.8125,0.43304443359375,-0.52978515625,-0.5167236328125,-0.51458740234375,4.6875,16.5625,-2.5,9.73,0.71,-0.93,moving,1
5.57,608310.203887149,21,1,1,0,0,3.8,0.32,-0.7,-5.93,-0.39,0.2,4.125,11.4375,-1.8125,0.43365478515625,-0.529052734375,-0.5166015625,-0.51495361328125,4.6875,16.5625,-2.5,9.73,0.71,-0.91,moving,1
5.58,608310.203887149,21,1,1,0,0,3.95,0.43,-0.47,-5.78,-0.28,0.43,4.4375,5.4375,-2.9375,0.4339599609375,-0.52850341796875,-0.5167236328125,-0.51513671875,4.6875,16.5625,-2.5,9.73,0.72,-0.9,moving,1
5.59,608310.233867984,21,1,1,0,0,4.22,0.63,-0.48,-5.5,-0.08,0.42,-0.1875,-5.0,0.0,0.43377685546875,-0.52874755859375,-0.51690673828125,-0.514892578125,4.0,16.1875,-2.875,9.73,0.72,-0.91,moving,1
5.6,608310.233867984,21,1,1,0,0,4.88,0.75,-0.53,-4.85,0.04,0.41,-4.5625,-17.3125,4.0,0.43292236328125,-0.52984619140625,-0.51715087890625,-0.51416015625,4.0,16.1875,-2.875,9.73,0.71,-0.94,moving,1
5.61,608310.251749088,21,1,1,0,0,6.01,0.71,-0.74,-3.71,0.01,0.23,-7.9375,-23.0625,7.5,0.43182373046875,-0.53155517578125,-0.517333984375,-0.51318359375,4.0,16.1875,-2.875,9.73,0.7,-0.98,moving,1
5.62,608310.251749088,21,1,1,0,0,6.62,0.73,-0.86,-3.1,0.04,0.15,-9.5,-24.0,10.5,0.4307861328125,-0.533447265625,-0.517333984375,-0.5120849609375,4.0,16.1875,-2.875,9.72,0.68,-1.02,moving,1
5.63,608310.264485091,21,1,1,0,0,7.37,0.65,-0.86,-2.34,-0.01,0.21,-13.1875,-31.125,13.0,0.4293212890625,-0.53594970703125,-0.517333984375,-0.5107421875,4.0,16.1875,-2.875,9.72,0.66,-1.07,moving,1
5.64,608310.264485091,21,1,1,0,0,7.37,0.65,-0.86,-2.34,-0.01,0.21,-13.1875,-31.125,13.0,0.4293212890625,-0.53594970703125,-0.517333984375,-0.5107421875,4.0,16.1875,-2.875,9.72,0.66,-1.07,moving,1
5.64,608310.277383365,21,1,1,0,0,8.2,0.58,-0.92,-1.51,-0.05,0.21,-22.5,-41.375,18.3125,0.42724609375,-0.5394287109375,-0.51702880859375,-0.50909423828125,5.0625,16.1875,-3.25,9.71,0.64,-1.14,moving,1
5.65,608310.277383365,21,1,1,0,0,10.65,0.51,-1.38,0.94,-0.09,-0.15,-34.125,-52.8125,24.0,0.42431640625,-0.54412841796875,-0.516357421875,-0.50726318359375,5.0625,16.1875,-3.25,9.71,0.6,-1.22,moving,1
5.66,608310.291903507,21,1,1,0,0,13.57,0.23,-2.82,3.87,-0.32,-1.47,-47.6875,-71.5625,31.75,0.420166015625,-0.55047607421875,-0.51531982421875,-0.50482177734375,5.0625,16.1875,-3.25,9.69,0.56,-1.34,moving,1
5.67,608310.291903507,21,1,1,0,0,18.71,-0.53,-3.6,9.04,-1.03,-2.07,-58.0,-114.1875,44.75,0.4141845703125,-0.55963134765625,-0.5147705078125,-0.500244140625,5.0625,16.1875,-3.25,9.67,0.5,-1.53,moving,1
5.68,608310.324672184,21,1,1,0,0,22.71,1.41,-1.66,13.06,0.97,0.06,-37.1875,-120.6875,48.8125,0.4090576171875,-0.568359375,-0.51513671875,-0.49420166015625,5.0625,16.1875,-3.25,9.64,0.43,-1.73,moving,1
5.69,608310.324672184,21,1,1,0,0,21.8,1.08,-2.63,12.17,0.68,-0.82,30.8125,-47.3125,13.375,0.4090576171875,-0.56988525390625,-0.5174560546875,-0.489990234375,5.375,15.5,-3.6875,9.62,0.4,-1.81,moving,1
5.7,608310.339222477,21,1,1,0,0,20.15,1.68,-4.03,10.53,1.25,-2.19,55.0625,-9.4375,-23.8125,0.41033935546875,-0.5672607421875,-0.5213623046875,-0.4879150390625,5.375,15.5,-3.6875,9.62,0.42,-1.83,moving,1
5.71,608310.339222477,21,1,1,0,0,18.21,1.38,-3.8,8.59,0.94,-1.95,30.125,-7.4375,-15.9375,0.4107666015625,-0.5657958984375,-0.523681640625,-0.4866943359375,5.375,15.5,-3.6875,9.62,0.44,-1.85,moving,1
5.72,608310.352554956,21,1,1,0,0,16.73,0.24,-1.96,7.1,-0.2,-0.14,-3.125,16.3125,-5.75,0.4111328125,-0.56494140625,-0.52325439453125,-0.48785400390625,5.375,15.5,-3.6875,9.62,0.45,-1.82,moving,1
5.73,608310.352554956,21,1,1,0,0,14.95,0.48,-2.01,5.32,0.01,-0.24,6.125,30.8125,-13.375,0.41229248046875,-0.56280517578125,-0.5230712890625,-0.48956298828125,5.375,15.5,-3.6875,9.63,0.47,-1.77,moving,1
5.74,608310.385446069,21,1,1,0,0,14.31,0.64,-1.49,4.67,0.13,0.21,28.8125,38.4375,-26.0625,0.414306640625,-0.55889892578125,-0.524169921875,-0.4910888671875,5.75,17.0,-2.5,9.64,0.5,-1.7,moving,1
5.75,608310.385446069,21,1,1,0,0,10.59,0.49,-1.4,0.93,-0.04,0.21,26.3125,58.125,-24.5625,0.41717529296875,-0.5543212890625,-0.5244140625,-0.49359130859375,5.75,17.0,-2.5,9.65,0.54,-1.61,moving,1
5.76,608310.39657115,21,1,1,0,0,8.61,0.93,-2.13,-1.05,0.36,-0.63,11.8125,69.3125,-17.4375,0.420166015625,-0.55010986328125,-0.52325439453125,-0.49700927734375,5.75,17.0,-2.5,9.67,0.56,-1.49,moving,1
5.77,608310.39657115,21,1,1,0,0,7.62,0.56,-2.02,-2.06,-0.01,-0.62,2.25,59.125,-10.375,0.42254638671875,-0.5469970703125,-0.52166748046875,-0.5001220703125,5.75,17.0,-2.5,9.68,0.58,-1.39,moving,1
5.78,608310.411811181,21,1,1,0,0,6.64,0.14,-1.71,-3.05,-0.45,-0.39,4.1875,46.5625,-9.0,0.4244384765625,-0.54437255859375,-0.52056884765625,-0.50250244140625,5.75,17.0,-2.5,9.69,0.59,-1.32,moving,1
5.79,608310.411811181,21,1,1,0,0,5.45,0.06,-0.45,-4.25,-0.54,0.79,0.5625,40.875,-7.6875,0.42596435546875,-0.542236328125,-0.5194091796875,-0.50469970703125,5.375,15.875,-2.0625,9.7,0.61,-1.25,moving,1
5.8,608310.442210555,21,1,1,0,0,4.49,0.16,-0.5,-5.22,-0.45,0.66,-8.6875,46.625,-3.9375,0.427490234375,-0.540283203125,-0.51751708984375,-0.5074462890625,5.375,15.875,-2.0625,9.71,0.61,-1.17,moving,1
5.81,608310.442210555,21,1,1,0,0,4.29,-0.25,0.11,-5.42,-0.88,1.21,-13.3125,42.75,-3.9375,0.42864990234375,-0.53875732421875,-0.5155029296875,-0.51019287109375,5.375,15.875,-2.0625,9.72,0.62,-1.09,moving,1
5.82,608310.457105818,21,1,1,0,0,3.61,-0.19,0.0,-6.11,-0.83,1.03,-16.0,34.75,-3.25,0.4293212890625,-0.53765869140625,-0.51361083984375,-0.5126953125,5.375,15.875,-2.0625,9.73,0.63,-1.03,moving,1
5.83,608310.457105818,21,1,1,0,0,3.42,-0.29,-0.27,-6.31,-0.93,0.72,-15.625,20.8125,-2.375,0.42938232421875,-0.53717041015625,-0.51226806640625,-0.514404296875,5.375,15.875,-2.0625,9.73,0.64,-1.0,moving,1
5.84,608310.472673404,21,1,1,0,0,3.31,-0.18,-0.61,-6.42,-0.83,0.35,-11.9375,16.75,-2.3125,0.429443359375,-0.53680419921875,-0.51123046875,-0.515869140625,3.5625,16.5625,-2.875,9.73,0.65,-0.97,moving,1
5.85,608310.472673404,21,1,1,0,0,3.28,0.0,-0.56,-6.44,-0.65,0.38,-5.75,13.75,-1.5625,0.42974853515625,-0.53631591796875,-0.510498046875,-0.51678466796875,3.5625,16.5625,-2.875,9.73,0.65,-0.94,moving,1
5.86,608310.504428084,21,1,1,0,0,3.52,0.4,-0.46,-6.21,-0.24,0.46,-1.125,9.5625,-0.75,0.4300537109375,-0.535888671875,-0.5101318359375,-0.517333984375,3.5625,16.5625,-2.875,9.74,0.65,-0.92,moving,1
5.87,608310.504428084,21,1,1,0,0,3.64,0.51,-0.48,-6.09,-0.13,0.44,3.0625,3.75,1.3125,0.430419921875,-0.53564453125,-0.51007080078125,-0.517333984375,3.5625,16.5625,-2.875,9.74,0.65,-0.92,moving,1
5.88,608310.518837101,21,1,1,0,0,4.12,0.47,-0.41,-5.61,-0.17,0.5,7.625,-0.75,2.375,0.43084716796875,-0.5355224609375,-0.51031494140625,-0.516845703125,3.5625,16.5625,-2.875,9.74,0.64,-0.92,moving,1
5.89,608310.518837101,21,1,1,0,0,4.12,0.47,-0.41,-5.61,-0.17,0.5,7.625,-0.75,2.375,0.43084716796875,-0.5355224609375,-0.51031494140625,-0.516845703125,3.5625,16.5625,-2.875,9.74,0.64,-0.92,moving,1
5.9,608310.524180525,21,1,1,0,0,4.41,0.6,-0.38,-5.32,-0.03,0.54,12.3125,-2.125,4.125,0.4315185546875,-0.53533935546875,-0.51080322265625,-0.51605224609375,5.75,16.5625,-3.25,9.74,0.63,-0.93,moving,1
5.9,608310.524180525,21,1,1,0,0,5.34,0.73,-0.46,-4.39,0.1,0.47,10.875,-5.75,5.375,0.4320068359375,-0.535400390625,-0.51123046875,-0.51507568359375,5.75,16.5625,-3.25,9.74,0.62,-0.94,moving,1
5.91,608310.548654565,21,1,1,0,0,5.95,0.68,-0.72,-3.78,0.07,0.23,5.125,-12.875,8.125,0.43206787109375,-0.53619384765625,-0.5115966796875,-0.513916015625,5.75,16.5625,-3.25,9.73,0.61,-0.96,moving,1
5.92,608310.548654565,21,1,1,0,0,7.14,0.63,-0.76,-2.59,0.04,0.24,-0.8125,-26.8125,13.0,0.431396484375,-0.5379638671875,-0.511962890625,-0.51220703125,5.75,16.5625,-3.25,9.73,0.59,-1.01,moving,1
5.93,608310.563503157,21,1,1,0,0,11.26,0.48,-1.43,1.53,-0.07,-0.36,-11.4375,-39.0,19.75,0.42999267578125,-0.54107666015625,-0.511962890625,-0.5101318359375,5.75,16.5625,-3.25,9.73,0.55,-1.07,moving,1
5.94,608310.563503157,21,1,1,0,0,14.55,0.3,-2.7,4.83,-0.2,-1.52,-32.9375,-62.4375,32.4375,0.42706298828125,-0.5465087890625,-0.51129150390625,-0.5074462890625,5.0625,16.1875,-3.6875,9.72,0.51,-1.17,moving,1
5.95,608310.592651757,21,1,1,0,0,18.78,-0.52,-3.73,9.07,-0.96,-2.38,-60.5625,-101.4375,50.375,0.421875,-0.55548095703125,-0.50994873046875,-0.50341796875,5.0625,16.1875,-3.6875,9.7,0.43,-1.34,moving,1
5.96,608310.592651757,21,1,1,0,0,21.42,-0.07,-0.68,11.74,-0.43,0.85,-59.9375,-118.0,56.125,0.4161376953125,-0.5653076171875,-0.5089111328125,-0.49822998046875,5.0625,16.1875,-3.6875,9.67,0.35,-1.54,moving,1
5.97,608310.608478824,21,1,1,0,0,19.68,0.89,-2.88,10.02,0.57,-1.27,1.875,-42.375,24.375,0.4154052734375,-0.56817626953125,-0.50933837890625,-0.49517822265625,5.0625,16.1875,-3.6875,9.66,0.31,-1.61,moving,1
5.98,608310.608478824,21,1,1,0,0,17.47,0.97,-3.47,7.81,0.64,-1.85,52.1875,-3.125,-17.4375,0.4171142578125,-0.56561279296875,-0.5125732421875,-0.4932861328125,5.0625,16.1875,-3.6875,9.66,0.33,-1.62,moving,1
5.99,608310.622941959,21,1,1,0,0,16.62,0.78,-2.71,6.96,0.43,-1.04,39.5625,-23.4375,-17.0625,0.41729736328125,-0.564453125,-0.51593017578125,-0.49102783203125,5.75,16.5625,-3.5625,9.65,0.34,-1.66,moving,1
6.0,608310.622941959,21,1,1,0,0,16.48,-0.15,-3.83,6.82,-0.49,-2.14,-8.0,-14.375,5.9375,0.41650390625,-0.56561279296875,-0.51580810546875,-0.49041748046875,5.75,16.5625,-3.5625,9.65,0.34,-1.68,moving,1
6.01,608310.656959456,21,1,1,0,0,16.85,0.67,-1.51,7.2,0.33,0.16,-8.1875,7.0625,4.3125,0.41656494140625,-0.5657958984375,-0.5150146484375,-0.490966796875,5.75,16.5625,-3.5625,9.65,0.33,-1.67,moving,1
6.02,608310.656959456,21,1,1,0,0,15.95,1.01,-2.36,6.29,0.66,-0.69,15.625,8.375,-7.9375,0.41741943359375,-0.56451416015625,-0.5157470703125,-0.490966796875,5.75,16.5625,-3.5625,9.65,0.34,-1.66,moving,1
6.03,608310.674797591,21,1,1,0,0,14.2,1.04,-2.37,4.54,0.68,-0.77,24.5625,32.1875,-15.5,0.41937255859375,-0.5615234375,-0.51641845703125,-0.4920654296875,5.75,16.5625,-3.5625,9.66,0.36,-1.6,moving,1
6.04,608310.674797591,21,1,1,0,0,10.58,0.66,-3.17,0.9,0.27,-1.66,19.5,55.1875,-17.1875,0.422119140625,-0.55767822265625,-0.51605224609375,-0.4945068359375,6.0625,16.1875,-3.1875,9.68,0.38,-1.51,moving,1
6.05,608310.686747908,21,1,1,0,0,9.5,0.5,-2.23,-0.18,0.08,-0.8,20.5,56.875,-18.5,0.42486572265625,-0.55364990234375,-0.5157470703125,-0.49700927734375,6.0625,16.1875,-3.1875,9.69,0.41,-1.42,moving,1
6.06,608310.686747908,21,1,1,0,0,8.71,0.7,-1.65,-0.99,0.26,-0.31,12.875,48.625,-15.5,0.427001953125,-0.55035400390625,-0.5152587890625,-0.49932861328125,6.0625,16.1875,-3.1875,9.7,0.43,-1.34,moving,1
6.07,608310.712548608,21,1,1,0,0,6.73,0.63,-0.78,-2.98,0.17,0.47,1.5625,47.9375,-10.4375,0.42877197265625,-0.5477294921875,-0.5140380859375,-0.501953125,6.0625,16.1875,-3.1875,9.71,0.45,-1.25,moving,1
6.08,608310.712548608,21,1,1,0,0,5.7,0.41,-0.49,-4.01,-0.05,0.67,-9.625,52.375,-7.8125,0.4302978515625,-0.54541015625,-0.51202392578125,-0.50518798828125,6.0625,16.1875,-3.1875,9.72,0.46,-1.17,moving,1
6.09,608310.72797858,21,1,1,0,0,4.68,0.24,-0.37,-5.04,-0.24,0.69,-18.25,58.5625,-10.125,0.43157958984375,-0.5430908203125,-0.50946044921875,-0.5091552734375,5.0625,16.1875,-2.75,9.73,0.49,-1.06,moving,1
6.1,608310.72797858,21,1,1,0,0,3.87,0.15,-0.13,-5.86,-0.35,0.83,-19.6875,53.25,-13.5,0.432373046875,-0.54083251953125,-0.50726318359375,-0.5130615234375,5.0625,16.1875,-2.75,9.74,0.51,-0.97,moving,1
6.11,608310.743888533,21,1,1,0,0,3.35,0.03,0.28,-6.39,-0.51,1.19,-15.6875,40.4375,-17.1875,0.43267822265625,-0.53887939453125,-0.50579833984375,-0.51629638671875,5.0625,16.1875,-2.75,9.74,0.54,-0.9,moving,1
6.12,608310.743888533,21,1,1,0,0,3.07,0.01,0.28,-6.67,-0.55,1.15,-15.3125,24.8125,-15.25,0.432373046875,-0.53765869140625,-0.5048828125,-0.5186767578125,5.0625,16.1875,-2.75,9.75,0.57,-0.86,moving,1
6.13,608310.773917627,21,1,1,0,0,2.61,0.02,0.14,-7.13,-0.57,0.98,-19.8125,16.6875,-10.5,0.43170166015625,-0.53717041015625,-0.50390625,-0.520751953125,5.0625,16.1875,-2.75,9.75,0.59,-0.83,moving,1
6.14,608310.773917627,21,1,1,0,0,2.34,0.05,0.05,-7.41,-0.55,0.85,-19.375,14.125,-8.875,0.43096923828125,-0.536865234375,-0.50286865234375,-0.5225830078125,5.0625,17.375,-2.75,9.75,0.61,-0.8,moving,1
6.15,608310.787711165,21,1,1,0,0,1.85,-0.03,0.2,-7.9,-0.66,0.98,-13.1875,13.1875,-8.0,0.43060302734375,-0.53643798828125,-0.50213623046875,-0.52410888671875,5.0625,17.375,-2.75,9.75,0.63,-0.78,moving,1
6.16,608310.787711165,21,1,1,0,0,1.89,0.14,0.39,-7.85,-0.49,1.15,-4.4375,10.8125,-4.6875,0.4306640625,-0.535888671875,-0.50177001953125,-0.52496337890625,5.0625,17.375,-2.75,9.75,0.64,-0.76,moving,1
6.17,608310.802379174,21,1,1,0,0,2.04,0.4,0.37,-7.71,-0.23,1.13,-0.75,4.8125,-0.5625,0.4307861328125,-0.53564453125,-0.5015869140625,-0.5252685546875,5.0625,17.375,-2.75,9.75,0.64,-0.75,moving,1
6.18,608310.802379174,21,1,1,0,0,2.04,0.4,0.37,-7.71,-0.23,1.13,-0.75,4.8125,-0.5625,0.4307861328125,-0.53564453125,-0.5015869140625,-0.5252685546875,5.0625,17.375,-2.75,9.75,0.64,-0.75,moving,1
6.19,608310.817173201,21,1,1,0,0,3.06,0.29,-0.12,-6.68,-0.34,0.63,1.625,-1.4375,3.375,0.43096923828125,-0.53582763671875,-0.50152587890625,-0.5250244140625,5.0625,17.375,-2.75,9.75,0.63,-0.75,moving,1
6.19,608310.817173201,21,1,1,0,0,3.91,0.0,-0.56,-5.84,-0.63,0.19,3.6875,-3.625,8.0625,0.43133544921875,-0.53619384765625,-0.50146484375,-0.52435302734375,4.375,17.0,-2.0,9.75,0.62,-0.76,moving,1
6.2,608310.83285826,21,1,1,0,0,4.94,-0.3,-1.12,-4.81,-0.9,-0.34,6.375,-5.8125,11.625,0.43194580078125,-0.5367431640625,-0.50146484375,-0.52337646484375,4.375,17.0,-2.0,9.75,0.6,-0.77,moving,1
6.21,608310.83285826,21,1,1,0,0,6.79,-0.41,-2.03,-2.95,-0.98,-1.22,14.0,-17.0625,14.8125,0.4324951171875,-0.53765869140625,-0.50201416015625,-0.5213623046875,4.375,17.0,-2.0,9.75,0.57,-0.8,moving,1
6.22,608310.864081811,21,1,1,0,0,13.1,-0.33,-3.71,3.35,-0.86,-2.81,21.375,-52.5625,23.0625,0.4322509765625,-0.54022216796875,-0.50390625,-0.51708984375,4.375,17.0,-2.0,9.75,0.53,-0.89,moving,1
6.23,608310.864081811,21,1,1,0,0,17.55,0.54,-2.83,7.82,0.08,-1.77,16.5625,-97.25,37.0625,0.430419921875,-0.54559326171875,-0.50653076171875,-0.5103759765625,4.375,17.0,-2.0,9.73,0.46,-1.06,moving,1
6.24,608310.877688094,21,1,1,0,0,21.0,2.44,0.0,11.28,2.06,1.27,-35.4375,-131.25,56.8125,0.4254150390625,-0.55523681640625,-0.50714111328125,-0.50347900390625,5.0625,16.5625,-1.6875,9.71,0.37,-1.28,moving,1
6.25,608310.877688094,21,1,1,0,0,20.18,0.69,-0.65,10.49,0.41,0.8,-75.375,-108.25,61.6875,0.419677734375,-0.56549072265625,-0.50482177734375,-0.499267578125,5.0625,16.5625,-1.6875,9.69,0.28,-1.46,moving,1
6.26,608310.892024438,21,1,1,0,0,19.15,0.55,-4.28,9.46,0.29,-2.77,-6.375,-23.8125,18.25,0.4190673828125,-0.56756591796875,-0.5045166015625,-0.4976806640625,5.0625,16.5625,-1.6875,9.68,0.25,-1.5,moving,1
6.27,608310.892024438,21,1,1,0,0,16.84,1.7,-2.08,7.15,1.4,-0.55,94.0,-14.5,-36.625,0.4215087890625,-0.5631103515625,-0.51092529296875,-0.494140625,5.0625,16.5625,-1.6875,9.68,0.29,-1.53,moving,1
6.28,608310.924645695,21,1,1,0,0,15.67,0.9,-2.27,6.0,0.57,-0.66,76.75,-45.5,-30.9375,0.421875,-0.56085205078125,-0.51739501953125,-0.4896240234375,5.0625,16.5625,-1.6875,9.66,0.32,-1.61,moving,1
6.29,608310.924645695,21,1,1,0,0,16.27,-0.66,-4.72,6.61,-0.98,-3.03,-7.625,-40.875,1.8125,0.41973876953125,-0.56298828125,-0.51849365234375,-0.4879150390625,6.875,16.1875,-2.75,9.65,0.32,-1.68,moving,1
6.3,608310.952603987,21,1,1,0,0,18.25,-0.29,-2.4,8.59,-0.62,-0.74,-29.4375,14.6875,3.375,0.4190673828125,-0.5635986328125,-0.51654052734375,-0.48980712890625,6.875,16.1875,-2.75,9.66,0.32,-1.65,moving,1
6.31,608310.952603987,21,1,1,0,0,18.04,0.22,-2.6,8.38,-0.09,-0.94,-10.6875,2.0625,4.0,0.4188232421875,-0.5640869140625,-0.51580810546875,-0.490234375,6.875,16.1875,-2.75,9.66,0.32,-1.65,moving,1
6.32,608310.958205143,21,1,1,0,0,16.77,0.34,-1.69,7.1,0.01,-0.07,-1.8125,19.5625,-3.0,0.41949462890625,-0.56317138671875,-0.51513671875,-0.49139404296875,6.875,16.1875,-2.75,9.66,0.33,-1.61,moving,1
6.33,608310.958205143,21,1,1,0,0,14.49,0.72,-2.51,4.81,0.37,-0.97,-0.75,47.625,-11.0625,0.421142578125,-0.5606689453125,-0.513916015625,-0.49420166015625,6.875,16.1875,-2.75,9.67,0.35,-1.53,moving,1
6.34,608310.982187524,21,1,1,0,0,12.59,0.3,-2.18,2.9,-0.06,-0.74,2.4375,56.25,-10.875,0.42327880859375,-0.5576171875,-0.51251220703125,-0.49725341796875,5.75,16.1875,-3.1875,9.69,0.36,-1.44,moving,1
6.35,608310.982187524,21,1,1,0,0,10.83,0.62,-2.69,1.12,0.23,-1.35,5.9375,63.625,-13.625,0.42584228515625,-0.55401611328125,-0.51104736328125,-0.50054931640625,5.75,16.1875,-3.1875,9.7,0.39,-1.33,moving,1
6.36,608310.99702338,21,1,1,0,0,8.74,1.26,-1.22,-0.97,0.85,0.01,16.75,54.5625,-15.8125,0.4283447265625,-0.55029296875,-0.510498046875,-0.5030517578125,5.75,16.1875,-3.1875,9.71,0.41,-1.24,moving,1
6.37,608310.99702338,21,1,1,0,0,7.35,0.94,-1.06,-2.37,0.5,0.09,11.125,53.0625,-14.3125,0.4306640625,-0.54693603515625,-0.50970458984375,-0.505615234375,5.75,16.1875,-3.1875,9.72,0.43,-1.15,moving,1
6.38,608311.012604557,21,1,1,0,0,6.29,0.64,-0.81,-3.44,0.19,0.24,3.9375,52.875,-11.1875,0.43267822265625,-0.5439453125,-0.5084228515625,-0.50836181640625,5.75,16.1875,-3.1875,9.73,0.45,-1.06,moving,1
6.39,608311.012604557,21,1,1,0,0,5.04,0.5,-1.17,-4.7,0.03,-0.21,5.375,60.3125,-12.875,0.43505859375,-0.54046630859375,-0.50701904296875,-0.511474609375,5.0625,15.875,-2.375,9.74,0.47,-0.96,moving,1
6.4,608311.042628157,21,1,1,0,0,4.24,0.41,0.21,-5.5,-0.08,1.09,17.0625,48.8125,-19.3125,0.4371337890625,-0.53680419921875,-0.5068359375,-0.51373291015625,5.0625,15.875,-2.375,9.75,0.5,-0.88,moving,1
6.41,608311.042628157,21,1,1,0,0,3.71,0.73,-0.79,-6.04,0.19,0.0,12.8125,50.5,-20.25,0.43902587890625,-0.53314208984375,-0.50640869140625,-0.51629638671875,5.0625,15.875,-2.375,9.75,0.53,-0.79,moving,1
6.42,608311.056749617,21,1,1,0,0,3.1,0.41,-0.55,-6.65,-0.15,0.14,4.875,57.9375,-18.1875,0.44097900390625,-0.529541015625,-0.5052490234375,-0.51947021484375,5.0625,15.875,-2.375,9.76,0.56,-0.69,moving,1
6.43,608311.056749617,21,1,1,0,0,3.12,0.29,-0.46,-6.64,-0.3,0.15,7.8125,45.6875,-19.5,0.4425048828125,-0.52630615234375,-0.5047607421875,-0.52197265625,5.0625,15.875,-2.375,9.76,0.59,-0.62,moving,1
6.44,608311.072200545,21,1,1,0,0,3.07,0.32,0.09,-6.69,-0.3,0.65,4.0,37.0,-17.75,0.4434814453125,-0.523681640625,-0.50433349609375,-0.524169921875,4.375,16.1875,-2.75,9.77,0.62,-0.55,moving,1
6.45,608311.072200545,21,1,1,0,0,2.65,0.47,-0.15,-7.11,-0.17,0.35,-8.0,30.4375,-13.1875,0.44384765625,-0.52197265625,-0.50335693359375,-0.52642822265625,4.375,16.1875,-2.75,9.77,0.65,-0.5,moving,1
6.46,608311.103139958,21,1,1,0,0,2.25,0.45,0.04,-7.51,-0.21,0.49,-18.5,33.1875,-10.6875,0.4439697265625,-0.52069091796875,-0.501708984375,-0.5291748046875,4.375,16.1875,-2.75,9.77,0.67,-0.44,moving,1
6.47,608311.103139958,21,1,1,0,0,2.15,-0.01,0.22,-7.61,-0.7,0.61,-25.4375,32.4375,-8.875,0.44384765625,-0.51983642578125,-0.49969482421875,-0.5321044921875,4.375,16.1875,-2.75,9.77,0.69,-0.39,moving,1
6.48,608311.117080184,21,1,1,0,0,2.52,-0.01,0.66,-7.24,-0.7,1.01,-30.5,22.75,0.125,0.44342041015625,-0.51995849609375,-0.49737548828125,-0.53448486328125,4.375,16.1875,-2.75,9.77,0.69,-0.34,moving,1
6.49,608311.117080184,21,1,1,0,0,2.67,-0.13,-0.27,-7.1,-0.81,0.05,-37.25,7.8125,9.4375,0.4425048828125,-0.52142333984375,-0.49493408203125,-0.53607177734375,4.6875,17.0,-3.1875,9.77,0.67,-0.32,moving,1
6.5,608311.1225705,21,1,1,0,0,2.67,-0.13,-0.27,-7.1,-0.81,0.05,-37.25,7.8125,9.4375,0.4425048828125,-0.52142333984375,-0.49493408203125,-0.53607177734375,4.6875,17.0,-3.1875,9.77,0.67,-0.32,moving,1
6.5,608311.1225705,21,1,1,0,0,3.62,-0.9,-1.63,-6.15,-1.56,-1.29,-28.375,-8.75,8.75,0.44122314453125,-0.5233154296875,-0.4935302734375,-0.53656005859375,4.6875,17.0,-3.1875,9.77,0.66,-0.34,moving,1
6.51,608311.148754093,21,1,1,0,0,4.36,-0.77,-1.85,-5.41,-1.43,-1.48,-2.4375,-17.5,3.625,0.4405517578125,-0.52435302734375,-0.493896484375,-0.53570556640625,4.6875,17.0,-3.1875,9.77,0.65,-0.37,moving,1
6.52,608311.148754093,21,1,1,0,0,5.52,-0.35,-1.41,-4.25,-1.0,-0.98,19.75,-32.0,3.9375,0.44024658203125,-0.5252685546875,-0.49591064453125,-0.53326416015625,4.6875,17.0,-3.1875,9.77,0.65,-0.42,moving,1
6.53,608311.162652694,21,1,1,0,0,6.69,0.15,-0.92,-3.07,-0.48,-0.4,29.25,-49.125,8.3125,0.43988037109375,-0.52679443359375,-0.498779296875,-0.52935791015625,4.6875,17.0,-3.1875,9.77,0.63,-0.51,moving,1
6.54,608311.162652694,21,1,1,0,0,10.79,1.36,1.83,1.03,0.75,2.48,23.1875,-77.5,12.25,0.4381103515625,-0.530029296875,-0.502197265625,-0.52435302734375,5.0625,16.1875,-2.375,9.76,0.61,-0.65,moving,1
6.55,608311.193900985,21,1,1,0,0,13.56,2.0,2.82,3.8,1.42,3.64,-2.5,-99.6875,22.5,0.43463134765625,-0.53564453125,-0.5048828125,-0.5189208984375,5.0625,16.1875,-2.375,9.75,0.57,-0.81,moving,1
6.56,608311.193900985,21,1,1,0,0,16.71,0.32,-0.71,6.96,-0.18,0.29,-53.4375,-111.125,43.0625,0.42913818359375,-0.5445556640625,-0.504638671875,-0.51446533203125,5.0625,16.1875,-2.375,9.74,0.5,-1.0,moving,1
6.57,608311.216417627,21,1,1,0,0,24.5,-0.44,-3.45,14.78,-0.86,-2.23,-67.875,-133.625,58.25,0.422607421875,-0.55560302734375,-0.50372314453125,-0.50885009765625,5.0625,16.1875,-2.375,9.72,0.42,-1.22,moving,1
6.58,608311.216417627,21,1,1,0,0,24.26,1.22,-1.8,14.57,0.87,-0.33,3.625,-144.4375,44.125,0.41839599609375,-0.56378173828125,-0.507080078125,-0.5,5.0625,16.1875,-2.375,9.68,0.34,-1.46,moving,1
6.59,608311.223735783,21,1,1,0,0,21.69,1.96,-0.48,12.02,1.63,1.12,96.6875,-79.25,-6.8125,0.4193115234375,-0.5633544921875,-0.51446533203125,-0.4920654296875,5.75,15.875,-2.0,9.66,0.33,-1.6,moving,1
6.6,608311.223735783,21,1,1,0,0,19.3,2.6,-3.26,9.63,2.23,-1.67,80.625,14.375,-33.375,0.4224853515625,-0.55828857421875,-0.51904296875,-0.4903564453125,5.75,15.875,-2.0,9.66,0.36,-1.58,moving,1
6.61,608311.254631535,21,1,1,0,0,19.1,0.69,-3.37,9.42,0.31,-1.82,26.6875,25.0,-14.4375,0.42431640625,-0.5555419921875,-0.51995849609375,-0.49090576171875,5.75,15.875,-2.0,9.67,0.38,-1.54,moving,1
6.62,608311.254631535,21,1,1,0,0,18.49,1.25,-1.59,8.81,0.86,-0.08,6.6875,21.875,-3.375,0.42547607421875,-0.55419921875,-0.51959228515625,-0.49176025390625,5.75,15.875,-2.0,9.68,0.38,-1.51,moving,1
6.63,608311.268057642,21,1,1,0,0,17.15,2.3,-1.34,7.46,1.9,0.12,18.75,30.125,-11.1875,0.42724609375,-0.55169677734375,-0.51983642578125,-0.4927978515625,5.75,15.875,-2.0,9.68,0.4,-1.46,moving,1
6.64,608311.268057642,21,1,1,0,0,15.6,2.19,-1.72,5.9,1.75,-0.35,33.375,52.6875,-24.9375,0.43017578125,-0.54705810546875,-0.52044677734375,-0.4947509765625,5.75,16.1875,-2.375,9.69,0.43,-1.37,moving,1
6.65,608311.298486475,21,1,1,0,0,11.12,1.01,-2.84,1.41,0.53,-1.59,32.5,70.875,-27.125,0.43377685546875,-0.54150390625,-0.5205078125,-0.4976806640625,5.75,16.1875,-2.375,9.71,0.47,-1.25,moving,1
6.66,608311.298486475,21,1,1,0,0,9.56,0.92,-2.84,-0.16,0.42,-1.71,19.0,74.1875,-19.25,0.43719482421875,-0.53668212890625,-0.5194091796875,-0.50103759765625,5.75,16.1875,-2.375,9.72,0.5,-1.13,moving,1
6.67,608311.303301864,21,1,1,0,0,8.12,0.48,-2.76,-1.61,-0.02,-1.74,4.25,70.375,-9.6875,0.44012451171875,-0.532958984375,-0.51739501953125,-0.5045166015625,5.75,16.1875,-2.375,9.74,0.51,-1.01,moving,1
6.68,608311.303301864,21,1,1,0,0,6.19,0.14,-2.2,-3.55,-0.38,-1.27,-11.0625,53.25,-4.4375,0.44183349609375,-0.5308837890625,-0.5150146484375,-0.50762939453125,5.75,16.1875,-2.375,9.74,0.52,-0.92,moving,1
6.69,608311.32861949,21,1,1,0,0,5.66,0.32,-1.03,-4.08,-0.21,-0.18,-19.4375,39.0625,-4.5,0.4425048828125,-0.5296630859375,-0.51287841796875,-0.510498046875,6.1875,15.5,-2.375,9.75,0.53,-0.85,moving,1
6.7,608311.32861949,21,1,1,0,0,5.42,0.16,-0.83,-4.33,-0.38,-0.03,-31.75,27.625,-3.4375,0.44207763671875,-0.52947998046875,-0.51055908203125,-0.51336669921875,6.1875,15.5,-2.375,9.75,0.54,-0.8,moving,1
6.71,608311.343911849,21,1,1,0,0,5.03,-0.34,-0.36,-4.72,-0.91,0.39,-36.6875,26.125,-3.8125,0.44140625,-0.529541015625,-0.508056640625,-0.516357421875,6.1875,15.5,-2.375,9.76,0.56,-0.75,moving,1
6.72,608311.343911849,21,1,1,0,0,4.53,-0.19,0.31,-5.22,-0.77,1.02,-27.8125,28.0625,-8.75,0.44091796875,-0.52899169921875,-0.50616455078125,-0.51922607421875,6.1875,15.5,-2.375,9.76,0.57,-0.7,moving,1
6.73,608311.37403221,21,1,1,0,0,4.23,-0.06,0.05,-5.52,-0.66,0.71,-19.6875,25.375,-11.9375,0.44061279296875,-0.528076171875,-0.50482177734375,-0.521728515625,6.1875,15.5,-2.375,9.76,0.6,-0.66,moving,1
6.74,608311.37403221,21,1,1,0,0,3.74,-0.07,-0.04,-6.01,-0.68,0.58,-26.6875,17.1875,-7.0,0.4398193359375,-0.52801513671875,-0.5032958984375,-0.52392578125,4.6875,16.1875,-2.375,9.76,0.61,-0.62,moving,1
6.75,608311.38095909,21,1,1,0,0,3.74,-0.07,-0.04,-6.01,-0.68,0.58,-26.6875,17.1875,-7.0,0.4398193359375,-0.52801513671875,-0.5032958984375,-0.52392578125,4.6875,16.1875,-2.375,9.76,0.61,-0.62,moving,1
6.76,608311.38095909,21,1,1,0,0,3.25,-0.32,-0.06,-6.51,-0.94,0.54,-36.8125,6.3125,0.5,0.43841552734375,-0.52911376953125,-0.5013427734375,-0.52587890625,4.6875,16.1875,-2.375,9.76,0.62,-0.61,moving,1
6.76,608311.405379948,21,1,1,0,0,3.02,-0.32,0.26,-6.74,-0.93,0.87,-37.6875,-0.125,9.4375,0.43707275390625,-0.53094482421875,-0.4991455078125,-0.52716064453125,4.6875,16.1875,-2.375,9.76,0.6,-0.6,moving,1
6.77,608311.405379948,21,1,1,0,0,2.87,-0.23,0.12,-6.89,-0.82,0.74,-32.125,-2.8125,12.625,0.43603515625,-0.5328369140625,-0.4971923828125,-0.5279541015625,4.6875,16.1875,-2.375,9.76,0.59,-0.61,moving,1
6.78,608311.418853337,21,1,1,0,0,2.46,-0.06,0.49,-7.3,-0.63,1.11,-20.25,-5.8125,10.125,0.435302734375,-0.53436279296875,-0.49603271484375,-0.52813720703125,4.6875,16.1875,-2.375,9.77,0.57,-0.61,moving,1
6.79,608311.418853337,21,1,1,0,0,2.14,0.29,0.19,-7.62,-0.27,0.82,-12.9375,-3.5,7.25,0.43487548828125,-0.5352783203125,-0.4952392578125,-0.52825927734375,4.375,16.5625,-1.25,9.77,0.56,-0.62,moving,1
6.8,608311.43243252,21,1,1,0,0,2.39,0.13,0.14,-7.37,-0.41,0.77,-11.3125,-0.375,5.4375,0.43463134765625,-0.53594970703125,-0.49444580078125,-0.528564453125,4.375,16.5625,-1.25,9.77,0.55,-0.62,moving,1
6.81,608311.43243252,21,1,1,0,0,2.47,0.0,-0.09,-7.29,-0.54,0.53,-2.25,0.25,4.0625,0.4346923828125,-0.5362548828125,-0.494140625,-0.52850341796875,4.375,16.5625,-1.25,9.77,0.55,-0.62,moving,1
6.82,608311.465302515,21,1,1,0,0,3.65,-0.38,-0.56,-6.11,-0.92,0.07,9.625,-12.5,2.625,0.43475341796875,-0.53656005859375,-0.49493408203125,-0.52740478515625,4.375,16.5625,-1.25,9.77,0.54,-0.64,moving,1
6.83,608311.465302515,21,1,1,0,0,4.36,-0.14,-0.35,-5.4,-0.69,0.29,27.625,-1.6875,-4.8125,0.43572998046875,-0.535400390625,-0.49652099609375,-0.52630615234375,4.375,16.5625,-1.25,9.76,0.54,-0.65,moving,1
6.84,608311.480498844,21,1,1,0,0,5.77,0.0,-0.32,-3.98,-0.56,0.34,35.4375,-10.375,-4.25,0.43670654296875,-0.5343017578125,-0.49871826171875,-0.5244140625,5.0625,16.5625,-1.6875,9.76,0.55,-0.67,moving,1
6.85,608311.480498844,21,1,1,0,0,7.41,-0.07,-0.93,-2.35,-0.61,-0.2,21.9375,-30.125,5.875,0.43670654296875,-0.53509521484375,-0.5006103515625,-0.5218505859375,5.0625,16.5625,-1.6875,9.76,0.54,-0.72,moving,1
6.86,608311.493260889,21,1,1,0,0,13.76,-0.68,-3.41,4.0,-1.19,-2.6,4.125,-53.75,17.75,0.43536376953125,-0.53814697265625,-0.50201416015625,-0.51849365234375,5.0625,16.5625,-1.6875,9.75,0.5,-0.81,moving,1
6.87,608311.493260889,21,1,1,0,0,20.42,-1.0,-4.48,10.67,-1.46,-3.54,-9.875,-74.125,28.5625,0.43292236328125,-0.54315185546875,-0.50299072265625,-0.51434326171875,5.0625,16.5625,-1.6875,9.75,0.46,-0.94,moving,1
6.88,608311.522751978,21,1,1,0,0,28.14,-0.28,-1.77,18.41,-0.66,-0.6,-26.5,-132.4375,50.0625,0.4281005859375,-0.55224609375,-0.50439453125,-0.50726318359375,5.0625,16.5625,-1.6875,9.72,0.38,-1.16,moving,1
6.89,608311.522751978,21,1,1,0,0,28.87,2.26,0.32,19.17,2.0,1.77,-23.5625,-168.3125,73.5625,0.4227294921875,-0.563720703125,-0.50604248046875,-0.49737548828125,5.375,17.0,-2.375,9.69,0.26,-1.44,moving,1
6.9,608311.5371625,21,1,1,0,0,25.03,2.33,-5.24,15.35,2.13,-3.67,69.625,-71.5625,26.5,0.42413330078125,-0.5654296875,-0.5103759765625,-0.48980712890625,5.375,17.0,-2.375,9.67,0.19,-1.57,moving,1
6.91,608311.5371625,21,1,1,0,0,21.4,1.48,-5.02,11.73,1.26,-3.42,119.1875,-17.5625,-34.75,0.427734375,-0.5601806640625,-0.517822265625,-0.48486328125,5.375,17.0,-2.375,9.67,0.22,-1.6,moving,1
6.92,608311.551914209,21,1,1,0,0,18.82,1.43,-5.0,9.16,1.2,-3.35,72.625,-23.9375,-18.3125,0.429443359375,-0.5576171875,-0.52264404296875,-0.48114013671875,5.375,17.0,-2.375,9.66,0.23,-1.65,moving,1
6.93,608311.551914209,21,1,1,0,0,16.39,0.9,-3.62,6.73,0.67,-1.95,0.1875,-12.6875,2.875,0.428955078125,-0.55828857421875,-0.52301025390625,-0.48040771484375,5.375,17.0,-2.375,9.66,0.23,-1.67,moving,1
6.94,608311.602182804,21,1,1,0,0,17.14,1.93,-0.24,7.47,1.7,1.35,-5.75,37.9375,-3.375,0.4302978515625,-0.5567626953125,-0.521484375,-0.48260498046875,6.5,17.6875,-2.375,9.67,0.23,-1.6,moving,1
6.95,608311.602182804,21,1,1,0,0,13.95,1.9,-2.95,4.27,1.64,-1.4,11.4375,32.1875,-16.625,0.43157958984375,-0.55419921875,-0.52154541015625,-0.48431396484375,6.5,17.6875,-2.375,9.67,0.26,-1.55,moving,1
6.96,608311.609335311,21,1,1,0,0,11.08,1.48,-2.76,1.39,1.18,-1.34,2.6875,74.5625,-23.8125,0.43408203125,-0.54986572265625,-0.52001953125,-0.4886474609375,6.5,17.6875,-2.375,9.69,0.3,-1.42,moving,1
6.97,608311.609335311,21,1,1,0,0,7.18,-0.11,-2.56,-2.53,-0.46,-1.3,-14.5,99.375,-24.3125,0.43682861328125,-0.5450439453125,-0.51678466796875,-0.4949951171875,6.5,17.6875,-2.375,9.71,0.34,-1.25,moving,1
6.98,608311.617269352,21,1,1,0,0,5.35,-0.34,-1.91,-4.38,-0.72,-0.82,-37.8125,97.1875,-12.5625,0.4388427734375,-0.54168701171875,-0.51202392578125,-0.50177001953125,6.5,17.6875,-2.375,9.73,0.37,-1.09,moving,1
6.99,608311.617269352,21,1,1,0,0,5.1,-0.74,-0.75,-4.64,-1.13,0.18,-35.3125,85.5625,-8.125,0.440673828125,-0.5389404296875,-0.507568359375,-0.5076904296875,5.6875,15.5,-3.1875,9.75,0.39,-0.94,moving,1
7.0,608311.628580876,21,1,1,0,0,3.94,0.33,0.11,-5.81,-0.08,0.92,-39.1875,70.8125,-9.375,0.4415283203125,-0.536865234375,-0.5035400390625,-0.51312255859375,5.6875,15.5,-3.1875,9.76,0.41,-0.81,moving,1
7.01,608311.628580876,21,1,1,0,0,3.94,0.33,0.11,-5.81,-0.08,0.92,-39.1875,70.8125,-9.375,0.4415283203125,-0.536865234375,-0.5035400390625,-0.51312255859375,5.6875,15.5,-3.1875,9.76,0.41,-0.81,moving,1
7.01,608311.642368555,21,1,1,0,0,3.36,-0.01,0.01,-6.4,-0.43,0.73,-57.0,57.5625,1.1875,0.44140625,-0.5364990234375,-0.49871826171875,-0.51824951171875,5.6875,15.5,-3.1875,9.77,0.42,-0.71,moving,1
7.02,608311.642368555,21,1,1,0,0,2.6,-0.28,0.07,-7.17,-0.71,0.71,-63.5,46.0625,2.0,0.44049072265625,-0.5369873046875,-0.49395751953125,-0.5230712890625,5.6875,15.5,-3.1875,9.77,0.42,-0.63,moving,1
7.03,608311.675350855,21,1,1,0,0,2.44,-0.45,-0.15,-7.33,-0.88,0.42,-65.0,32.4375,0.75,0.43890380859375,-0.53802490234375,-0.48968505859375,-0.52734375,5.6875,15.5,-3.1875,9.78,0.43,-0.57,moving,1
7.04,608311.675350855,21,1,1,0,0,1.9,-0.68,-0.19,-7.88,-1.12,0.32,-54.5,30.0,1.4375,0.43768310546875,-0.53875732421875,-0.4859619140625,-0.531005859375,4.5625,16.5625,-2.375,9.78,0.43,-0.51,moving,1
7.05,608311.687902368,21,1,1,0,0,1.84,-0.76,0.23,-7.94,-1.21,0.7,-37.5625,26.375,-2.8125,0.4368896484375,-0.53887939453125,-0.48333740234375,-0.53399658203125,4.5625,16.5625,-2.375,9.78,0.44,-0.47,moving,1
7.06,608311.687902368,21,1,1,0,0,1.8,-0.58,0.64,-7.98,-1.03,1.07,-27.625,24.3125,-3.1875,0.43646240234375,-0.53863525390625,-0.48126220703125,-0.536376953125,4.5625,16.5625,-2.375,9.78,0.45,-0.42,moving,1
7.07,608311.70457758,21,1,1,0,0,1.87,-0.6,0.54,-7.91,-1.06,0.94,-32.1875,16.0625,-0.1875,0.43560791015625,-0.53912353515625,-0.47918701171875,-0.53851318359375,4.5625,16.5625,-2.375,9.78,0.45,-0.39,moving,1
7.08,608311.70457758,21,1,1,0,0,1.64,-0.56,0.8,-8.14,-1.01,1.19,-34.125,2.75,2.1875,0.43426513671875,-0.54034423828125,-0.47735595703125,-0.53997802734375,4.5625,16.5625,-2.375,9.78,0.45,-0.38,moving,1
7.09,608311.734534693,21,1,1,0,0,1.72,-0.58,0.78,-8.05,-1.03,1.18,-27.875,-8.75,4.125,0.4327392578125,-0.5419921875,-0.4761962890625,-0.54058837890625,4.5625,17.0,-1.25,9.78,0.44,-0.4,moving,1
7.1,608311.734534693,21,1,1,0,0,1.84,-0.58,0.08,-7.93,-1.02,0.49,-7.375,-8.8125,2.4375,0.43212890625,-0.54278564453125,-0.47601318359375,-0.54034423828125,4.5625,17.0,-1.25,9.78,0.44,-0.41,moving,1
7.11,608311.748678166,21,1,1,0,0,3.4,-0.47,-0.7,-6.38,-0.92,-0.26,23.625,-12.625,-4.375,0.43255615234375,-0.5423583984375,-0.47784423828125,-0.5389404296875,4.5625,17.0,-1.25,9.78,0.45,-0.44,moving,1
7.12,608311.748678166,21,1,1,0,0,4.97,-1.01,-2.36,-4.8,-1.46,-1.87,33.5625,-25.6875,-4.0625,0.432861328125,-0.5421142578125,-0.4805908203125,-0.5364990234375,4.5625,17.0,-1.25,9.78,0.45,-0.48,moving,1
7.13,608311.763752751,21,1,1,0,0,6.9,-0.86,-2.95,-2.87,-1.31,-2.4,42.125,-40.1875,-2.0625,0.43304443359375,-0.54229736328125,-0.484130859375,-0.53289794921875,4.5625,17.0,-1.25,9.78,0.45,-0.55,moving,1
7.14,608311.763752751,21,1,1,0,0,14.3,0.28,-0.29,4.53,-0.15,0.38,62.3125,-71.6875,1.0,0.43304443359375,-0.5433349609375,-0.48968505859375,-0.52679443359375,6.0625,17.375,-2.0,9.77,0.44,-0.68,moving,1
7.15,608311.793105005,21,1,1,0,0,19.86,2.26,0.76,10.1,1.86,1.64,53.125,-112.0625,17.25,0.4315185546875,-0.54718017578125,-0.49554443359375,-0.5185546875,6.0625,17.375,-2.0,9.75,0.4,-0.88,moving,1
7.16,608311.793105005,21,1,1,0,0,24.19,2.37,1.53,14.45,2.04,2.62,3.125,-120.5625,45.75,0.42852783203125,-0.554443359375,-0.49798583984375,-0.5108642578125,6.0625,17.375,-2.0,9.74,0.32,-1.08,moving,1
7.17,608311.809672632,21,1,1,0,0,24.16,1.32,0.87,14.44,1.08,2.17,-51.1875,-125.6875,60.4375,0.4232177734375,-0.56451416015625,-0.4974365234375,-0.50469970703125,6.0625,17.375,-2.0,9.71,0.23,-1.29,moving,1
7.18,608311.809672632,21,1,1,0,0,23.57,1.2,-6.12,13.86,1.02,-4.72,11.125,-61.3125,30.9375,0.4224853515625,-0.56817626953125,-0.4986572265625,-0.50006103515625,6.0625,17.375,-2.0,9.7,0.18,-1.4,moving,1
7.19,608311.82363772,21,1,1,0,0,20.36,2.46,-3.64,10.66,2.26,-2.19,99.8125,-25.75,-22.8125,0.42529296875,-0.5645751953125,-0.50506591796875,-0.4952392578125,5.25,15.875,-2.0,9.69,0.19,-1.44,moving,1
7.2,608311.82363772,21,1,1,0,0,22.34,2.57,-3.65,12.65,2.35,-2.14,91.375,-34.5625,-26.3125,0.4271240234375,-0.5615234375,-0.51153564453125,-0.490478515625,5.25,15.875,-2.0,9.68,0.21,-1.5,moving,1
7.21,608311.85265839,21,1,1,0,0,20.02,0.39,-6.32,10.34,0.17,-4.79,17.1875,-13.0625,-7.375,0.42706298828125,-0.56109619140625,-0.51312255859375,-0.4893798828125,5.25,15.875,-2.0,9.68,0.22,-1.53,moving,1
7.22,608311.85265839,21,1,1,0,0,18.87,2.5,-3.08,9.18,2.26,-1.55,13.3125,0.0625,-10.625,0.42724609375,-0.56011962890625,-0.51422119140625,-0.4891357421875,5.25,15.875,-2.0,9.68,0.23,-1.53,moving,1
7.23,608311.868618718,21,1,1,0,0,17.48,2.56,-2.11,7.79,2.28,-0.63,31.25,30.0,-24.1875,0.4290771484375,-0.55657958984375,-0.515625,-0.4901123046875,5.25,15.875,-2.0,9.68,0.27,-1.48,moving,1
7.24,608311.868618718,21,1,1,0,0,15.88,1.31,-2.66,6.19,0.99,-1.23,12.125,34.4375,-29.875,0.429931640625,-0.55328369140625,-0.51629638671875,-0.49237060546875,5.6875,16.5625,-0.875,9.69,0.32,-1.42,moving,1
7.25,608311.882238876,21,1,1,0,0,11.46,0.67,-2.62,1.76,0.31,-1.28,-3.75,49.9375,-23.0,0.4310302734375,-0.55023193359375,-0.515380859375,-0.49578857421875,5.6875,16.5625,-0.875,9.7,0.36,-1.34,moving,1
7.26,608311.882238876,21,1,1,0,0,9.24,0.38,-2.34,-0.47,0.0,-1.1,-4.5625,57.25,-21.3125,0.43243408203125,-0.54693603515625,-0.5140380859375,-0.49957275390625,5.6875,16.5625,-0.875,9.71,0.39,-1.24,moving,1
7.27,608311.897364445,21,1,1,0,0,9.24,0.38,-2.34,-0.47,0.0,-1.1,-4.5625,57.25,-21.3125,0.43243408203125,-0.54693603515625,-0.5140380859375,-0.49957275390625,5.6875,16.5625,-0.875,9.71,0.39,-1.24,moving,1
7.28,608311.897364445,21,1,1,0,0,8.05,0.54,-1.61,-1.67,0.11,-0.46,-9.4375,53.375,-18.25,0.43359375,-0.544189453125,-0.51251220703125,-0.50323486328125,5.6875,16.5625,-0.875,9.72,0.43,-1.15,moving,1
7.28,608311.912924829,21,1,1,0,0,6.88,-0.08,-1.45,-2.85,-0.54,-0.37,-26.25,44.125,-14.25,0.43365478515625,-0.5426025390625,-0.5103759765625,-0.50701904296875,5.6875,16.5625,-0.875,9.73,0.46,-1.07,moving,1
7.29,608311.912924829,21,1,1,0,0,4.22,-0.64,-1.14,-5.51,-1.13,-0.16,-47.125,52.1875,-10.9375,0.43328857421875,-0.54156494140625,-0.5068359375,-0.51202392578125,5.6875,15.5,-2.75,9.74,0.48,-0.98,moving,1
7.3,608311.944220728,21,1,1,0,0,3.23,-0.69,-1.02,-6.51,-1.22,-0.13,-50.875,49.0,-15.0625,0.43231201171875,-0.54058837890625,-0.50341796875,-0.51715087890625,5.6875,15.5,-2.75,9.75,0.52,-0.89,moving,1
7.31,608311.944220728,21,1,1,0,0,3.08,-0.7,-0.16,-6.67,-1.26,0.66,-42.125,36.4375,-19.5,0.43109130859375,-0.5396728515625,-0.50103759765625,-0.52142333984375,5.6875,15.5,-2.75,9.75,0.56,-0.82,moving,1
7.32,608311.956998519,21,1,1,0,0,2.64,-0.35,0.59,-7.11,-0.95,1.39,-26.0,19.8125,-20.4375,0.42974853515625,-0.53887939453125,-0.50006103515625,-0.5242919921875,5.6875,15.5,-2.75,9.75,0.59,-0.79,moving,1
7.33,608311.956998519,21,1,1,0,0,2.42,-0.36,0.85,-7.33,-0.99,1.61,-14.625,17.125,-19.125,0.428955078125,-0.53778076171875,-0.4996337890625,-0.52642822265625,5.6875,15.5,-2.75,9.75,0.63,-0.76,moving,1
7.34,608311.972263981,21,1,1,0,0,2.08,-0.16,0.73,-7.66,-0.83,1.45,-9.1875,20.125,-19.3125,0.42852783203125,-0.536376953125,-0.4993896484375,-0.52850341796875,4.5625,17.375,-1.6875,9.75,0.66,-0.72,moving,1
7.35,608311.972263981,21,1,1,0,0,1.81,-0.06,1.02,-7.94,-0.75,1.72,-10.125,17.625,-15.6875,0.42803955078125,-0.53521728515625,-0.4990234375,-0.53033447265625,4.5625,17.375,-1.6875,9.75,0.69,-0.69,moving,1
7.36,608312.002844995,21,1,1,0,0,1.75,-0.19,1.06,-8.0,-0.9,1.73,-11.6875,14.0625,-9.1875,0.427734375,-0.53460693359375,-0.49835205078125,-0.5318603515625,4.5625,17.375,-1.6875,9.75,0.71,-0.67,moving,1
7.37,608312.002844995,21,1,1,0,0,1.67,-0.03,1.24,-8.08,-0.75,1.89,-5.875,10.625,-2.625,0.42779541015625,-0.53424072265625,-0.497802734375,-0.53271484375,4.5625,17.375,-1.6875,9.75,0.71,-0.65,moving,1
7.38,608312.019705591,21,1,1,0,0,1.39,0.01,0.84,-8.36,-0.7,1.47,-3.75,11.5,-1.5,0.42803955078125,-0.53375244140625,-0.49725341796875,-0.53350830078125,4.5625,17.375,-1.6875,9.75,0.72,-0.63,moving,1
7.39,608312.019705591,21,1,1,0,0,1.33,0.34,1.14,-8.42,-0.37,1.75,-2.5625,13.6875,0.1875,0.428466796875,-0.533203125,-0.49664306640625,-0.53424072265625,4.25,16.1875,-1.6875,9.76,0.72,-0.6,moving,1
7.4,608312.033267359,21,1,1,0,0,1.18,-0.04,-0.09,-8.58,-0.75,0.49,-14.5625,10.5,9.9375,0.4287109375,-0.53369140625,-0.4951171875,-0.53497314453125,4.25,16.1875,-1.6875,9.76,0.7,-0.58,moving,1
7.41,608312.033267359,21,1,1,0,0,1.6,-0.8,-1.47,-8.15,-1.48,-0.89,-30.0625,-1.5625,18.875,0.42816162109375,-0.53570556640625,-0.49285888671875,-0.5355224609375,4.25,16.1875,-1.6875,9.76,0.67,-0.58,moving,1
7.42,608312.063262232,21,1,1,0,0,2.35,-1.4,-2.56,-7.41,-2.07,-1.98,1.125,5.4375,3.3125,0.4285888671875,-0.53558349609375,-0.4925537109375,-0.53558349609375,4.25,16.1875,-1.6875,9.76,0.67,-0.57,moving,1
7.43,608312.063262232,21,1,1,0,0,5.16,-1.1,-3.56,-4.6,-1.8,-2.98,55.0625,2.0625,-16.125,0.43048095703125,-0.53271484375,-0.49578857421875,-0.533935546875,4.25,16.1875,-1.6875,9.76,0.69,-0.58,moving,1
7.44,608312.080590764,21,1,1,0,0,6.61,-0.26,-3.21,-3.14,-0.98,-2.61,87.0,-7.125,-20.75,0.4332275390625,-0.52886962890625,-0.5010986328125,-0.53057861328125,4.25,16.1875,-0.5,9.76,0.72,-0.6,moving,1
7.45,608312.080590764,21,1,1,0,0,8.0,0.34,-2.58,-1.75,-0.38,-1.94,69.5625,-16.0,-13.5625,0.43511962890625,-0.5263671875,-0.50555419921875,-0.52728271484375,4.25,16.1875,-0.5,9.75,0.73,-0.63,moving,1
7.46,608312.093078516,21,1,1,0,0,8.92,1.17,-1.58,-0.83,0.44,-0.9,27.25,-20.625,0.5625,0.43548583984375,-0.52630615234375,-0.507568359375,-0.52508544921875,4.25,16.1875,-0.5,9.75,0.73,-0.67,moving,1
7.47,608312.093078516,21,1,1,0,0,9.82,1.55,2.22,0.06,0.85,2.97,-11.125,-42.9375,16.0625,0.43377685546875,-0.5294189453125,-0.5079345703125,-0.52301025390625,4.25,16.1875,-0.5,9.75,0.7,-0.75,moving,1
7.48,608312.12350149,21,1,1,0,0,10.83,1.72,4.03,1.08,1.06,4.88,-34.0625,-63.0625,30.25,0.4307861328125,-0.534912109375,-0.50732421875,-0.52044677734375,4.25,16.1875,-0.5,9.74,0.65,-0.85,moving,1
7.49,608312.12350149,21,1,1,0,0,11.5,1.45,3.35,1.76,0.85,4.31,-42.8125,-63.3125,39.8125,0.42779541015625,-0.5411376953125,-0.50592041015625,-0.51788330078125,4.25,15.875,-2.0,9.74,0.59,-0.95,moving,1
7.5,608312.13803807,21,1,1,0,0,15.88,-0.18,-6.42,6.14,-0.72,-5.37,-30.0,-57.9375,37.4375,0.425537109375,-0.54656982421875,-0.50494384765625,-0.51507568359375,4.25,15.875,-2.0,9.73,0.53,-1.05,stop,1
7.51,608312.13803807,21,1,1,0,0,21.43,-0.5,-10.12,11.71,-0.98,-8.92,25.0,-85.0,28.6875,0.42425537109375,-0.5506591796875,-0.5078125,-0.5087890625,4.25,15.875,-2.0,9.72,0.48,-1.19,stop,1
7.52,608312.152479354,21,1,1,0,0,21.43,-0.5,-10.12,11.71,-0.98,-8.92,25.0,-85.0,28.6875,0.42425537109375,-0.5506591796875,-0.5078125,-0.5087890625,4.25,15.875,-2.0,9.72,0.48,-1.19,stop,1
7.53,608312.152479354,21,1,1,0,0,24.3,0.18,-8.26,14.61,-0.23,-6.76,81.125,-171.0625,28.1875,0.4217529296875,-0.55645751953125,-0.51629638671875,-0.49591064453125,4.25,15.875,-2.0,9.68,0.41,-1.49,stop,1
7.53,608312.167885563,21,1,1,0,0,22.25,2.15,-0.46,12.62,1.8,1.35,77.625,-190.625,25.6875,0.41796875,-0.56292724609375,-0.525390625,-0.48211669921875,4.25,15.875,-2.0,9.62,0.35,-1.82,stop,1
7.54,608312.167885563,21,1,1,0,0,19.37,4.5,-1.4,9.77,4.16,0.53,36.125,-71.0625,4.3125,0.41668701171875,-0.56475830078125,-0.52923583984375,-0.476806640625,6.75,16.1875,-2.375,9.6,0.33,-1.94,stop,1
7.55,608312.182826034,21,1,1,0,0,16.99,2.23,-2.72,7.4,1.89,-0.71,20.125,-36.25,-5.8125,0.41571044921875,-0.56524658203125,-0.53167724609375,-0.4742431640625,6.75,16.1875,-2.375,9.59,0.33,-2.0,stop,1
7.56,608312.182826034,21,1,1,0,0,15.39,1.78,-2.21,5.79,1.42,-0.22,9.5625,8.6875,-15.0,0.41595458984375,-0.5638427734375,-0.53253173828125,-0.47479248046875,6.75,16.1875,-2.375,9.59,0.35,-1.99,stop,1
7.57,608312.21559056,21,1,1,0,0,13.51,0.74,-2.31,3.9,0.35,-0.42,11.0625,58.4375,-24.0,0.418212890625,-0.5599365234375,-0.53204345703125,-0.47802734375,6.75,16.1875,-2.375,9.61,0.39,-1.89,stop,1
7.58,608312.21559056,21,1,1,0,0,12.6,0.64,-2.37,2.97,0.21,-0.56,7.4375,55.75,-25.5625,0.42010498046875,-0.55615234375,-0.53155517578125,-0.4813232421875,6.75,16.1875,-2.375,9.62,0.43,-1.8,stop,1
7.59,608312.243312769,21,1,1,0,0,11.65,1.54,-2.62,2.01,1.07,-0.89,6.6875,42.0,-21.125,0.4215087890625,-0.5531005859375,-0.53131103515625,-0.48382568359375,5.6875,16.5625,-2.375,9.64,0.46,-1.73,stop,1
7.6,608312.243312769,21,1,1,0,0,11.26,1.57,-2.89,1.61,1.07,-1.22,-0.375,38.0,-16.9375,0.42254638671875,-0.55072021484375,-0.53076171875,-0.48626708984375,5.6875,16.5625,-2.375,9.65,0.49,-1.66,stop,1
7.61,608312.248067082,21,1,1,0,0,9.81,0.31,-2.35,0.14,-0.2,-0.76,-12.3125,42.8125,-10.5,0.4234619140625,-0.54888916015625,-0.5291748046875,-0.48931884765625,5.6875,16.5625,-2.375,9.66,0.51,-1.59,stop,1
7.62,608312.248067082,21,1,1,0,0,8.94,0.09,-2.26,-0.72,-0.44,-0.73,-19.0,41.75,-7.875,0.42413330078125,-0.54742431640625,-0.52716064453125,-0.492431640625,5.6875,16.5625,-2.375,9.67,0.53,-1.52,stop,1
7.63,608312.274182805,21,1,1,0,0,8.91,-0.16,-1.23,-0.77,-0.71,0.22,-23.625,35.4375,-3.75,0.42449951171875,-0.546630859375,-0.5250244140625,-0.495361328125,5.6875,16.5625,-2.375,9.68,0.55,-1.45,stop,1
7.64,608312.274182805,21,1,1,0,0,8.42,-0.23,-0.28,-1.26,-0.8,1.12,-23.125,28.8125,-2.6875,0.424560546875,-0.54608154296875,-0.5230712890625,-0.4979248046875,6.0625,17.0,-2.75,9.68,0.56,-1.4,stop,1
7.65,608312.293228785,21,1,1,0,0,8.32,-0.22,-0.51,-1.36,-0.79,0.84,-27.25,24.875,-2.3125,0.42431640625,-0.5458984375,-0.5211181640625,-0.50042724609375,6.0625,17.0,-2.75,9.69,0.57,-1.36,stop,1
7.66,608312.293228785,21,1,1,0,0,8.17,-0.16,-0.55,-1.52,-0.74,0.76,-31.25,25.8125,1.4375,0.42401123046875,-0.5460205078125,-0.5186767578125,-0.50299072265625,6.0625,17.0,-2.75,9.7,0.57,-1.31,stop,1
7.67,608312.302897974,21,1,1,0,0,7.83,-0.1,-0.7,-1.87,-0.67,0.56,-36.0625,25.875,6.875,0.42376708984375,-0.5465087890625,-0.51580810546875,-0.505615234375,6.0625,17.0,-2.75,9.7,0.57,-1.27,stop,1
7.68,608312.302897974,21,1,1,0,0,6.97,-0.42,-1.42,-2.74,-0.99,-0.2,-35.6875,27.4375,9.1875,0.4237060546875,-0.54705810546875,-0.5128173828125,-0.5081787109375,6.0625,17.0,-2.75,9.71,0.56,-1.22,stop,1
7.69,608312.332773625,21,1,1,0,0,7.68,0.37,-0.34,-2.03,-0.18,0.82,-23.0625,26.375,5.875,0.424072265625,-0.5469970703125,-0.510498046875,-0.51025390625,5.6875,16.5625,-2.375,9.72,0.55,-1.17,stop,1
7.7,608312.332773625,21,1,1,0,0,7.75,0.69,-0.75,-1.96,0.13,0.37,-9.25,25.5,3.0,0.42486572265625,-0.54632568359375,-0.509033203125,-0.51177978515625,5.6875,16.5625,-2.375,9.72,0.55,-1.12,stop,1
7.71,608312.348841456,21,1,1,0,0,7.8,0.75,-0.57,-1.93,0.2,0.5,-5.375,30.0625,4.3125,0.4261474609375,-0.54534912109375,-0.5074462890625,-0.5133056640625,5.6875,16.5625,-2.375,9.73,0.55,-1.07,stop,1
7.72,608312.348841456,21,1,1,0,0,8.89,1.14,-0.45,-0.84,0.6,0.59,2.0,15.5625,3.9375,0.4271240234375,-0.5447998046875,-0.50677490234375,-0.5137939453125,5.6875,16.5625,-2.375,9.73,0.54,-1.05,stop,1
7.73,608312.363415715,21,1,1,0,0,8.77,0.91,-0.31,-0.96,0.37,0.71,0.5625,16.625,4.0,0.42803955078125,-0.544189453125,-0.5059814453125,-0.514404296875,5.6875,16.5625,-2.375,9.73,0.53,-1.02,stop,1
7.74,608312.363415715,21,1,1,0,0,8.75,0.9,-0.35,-0.98,0.36,0.63,-1.125,19.5,3.5625,0.42901611328125,-0.54351806640625,-0.50506591796875,-0.5152587890625,5.25,16.5625,-2.75,9.74,0.53,-0.98,stop,1
7.75,608312.394083277,21,1,1,0,0,8.33,0.03,-1.67,-1.4,-0.48,-0.71,-9.375,16.5,5.875,0.4295654296875,-0.54339599609375,-0.50372314453125,-0.5162353515625,5.25,16.5625,-2.75,9.74,0.52,-0.96,stop,1
7.76,608312.394083277,21,1,1,0,0,8.4,0.1,-1.74,-1.33,-0.41,-0.8,-3.8125,11.6875,3.5,0.4300537109375,-0.54315185546875,-0.5029296875,-0.516845703125,5.25,16.5625,-2.75,9.74,0.51,-0.94,stop,1
7.77,608312.407260157,21,1,1,0,0,8.67,0.37,-1.58,-1.07,-0.14,-0.65,13.5,6.5,-4.25,0.4307861328125,-0.54217529296875,-0.50347900390625,-0.51666259765625,5.25,16.5625,-2.75,9.74,0.52,-0.93,stop,1
7.78,608312.407260157,21,1,1,0,0,8.67,0.37,-1.58,-1.07,-0.14,-0.65,13.5,6.5,-4.25,0.4307861328125,-0.54217529296875,-0.50347900390625,-0.51666259765625,5.25,16.5625,-2.75,9.74,0.52,-0.93,stop,1
7.79,608312.412669255,21,1,1,0,0,9.36,0.36,-0.91,-0.38,-0.16,0.02,19.5,-3.75,-8.1875,0.43115234375,-0.54119873046875,-0.50494384765625,-0.5159912109375,5.25,16.5625,-2.75,9.74,0.53,-0.93,stop,1
7.79,608312.412669255,21,1,1,0,0,9.78,0.37,-0.64,0.03,-0.15,0.31,-7.5625,-11.5625,3.0625,0.430419921875,-0.54217529296875,-0.5048828125,-0.515625,5.25,17.0,-1.25,9.74,0.52,-0.95,stop,1
7.8,608312.437435938,21,1,1,0,0,9.81,0.34,-0.85,0.06,-0.17,0.11,-7.5625,-11.5625,3.0625,0.4296875,-0.5430908203125,-0.50482177734375,-0.51531982421875,5.25,17.0,-1.25,9.74,0.52,-0.97,stop,1
7.81,608312.437435938,21,1,1,0,0,9.98,0.46,-0.96,0.24,-0.05,0.03,-9.1875,-11.8125,3.125,0.42889404296875,-0.54412841796875,-0.50469970703125,-0.5150146484375,5.25,17.0,-1.25,9.74,0.52,-0.99,stop,1
7.82,608312.452474675,21,1,1,0,0,10.25,0.28,-0.77,0.51,-0.22,0.23,-8.0625,-10.6875,3.3125,0.42816162109375,-0.5450439453125,-0.50457763671875,-0.5147705078125,5.25,17.0,-1.25,9.74,0.51,-1.01,stop,1
7.83,608312.452474675,21,1,1,0,0,10.25,0.5,-0.79,0.51,0.0,0.22,-5.25,-6.5625,3.0,0.42779541015625,-0.54571533203125,-0.50445556640625,-0.5145263671875,5.25,17.0,-1.25,9.73,0.51,-1.02,stop,1
7.84,608312.484962956,21,1,1,0,0,10.41,0.44,-0.63,0.67,-0.06,0.38,-0.4375,3.625,2.9375,0.4281005859375,-0.545654296875,-0.504150390625,-0.51458740234375,4.5625,17.375,-2.375,9.74,0.5,-1.01,stop,1
7.85,608312.484962956,21,1,1,0,0,10.54,0.67,-0.34,0.8,0.16,0.65,-1.5625,7.125,3.0625,0.428466796875,-0.5455322265625,-0.503662109375,-0.514892578125,4.5625,17.375,-2.375,9.74,0.5,-1.0,stop,1
7.86,608312.498523544,21,1,1,0,0,10.02,0.47,-0.6,0.28,-0.01,0.37,-4.125,11.125,3.5,0.42889404296875,-0.54534912109375,-0.5029296875,-0.5155029296875,4.5625,17.375,-2.375,9.74,0.49,-0.98,stop,1
7.87,608312.498523544,21,1,1,0,0,9.59,0.42,-0.67,-0.15,-0.07,0.28,-2.5625,18.25,1.75,0.4296875,-0.544677734375,-0.50201416015625,-0.51641845703125,4.5625,17.375,-2.375,9.74,0.49,-0.95,stop,1
7.88,608312.513540552,21,1,1,0,0,9.24,0.5,-0.78,-0.5,0.01,0.15,-2.125,14.625,1.125,0.43023681640625,-0.544189453125,-0.5013427734375,-0.51715087890625,4.5625,17.375,-2.375,9.74,0.49,-0.93,stop,1
7.89,608312.513540552,21,1,1,0,0,9.36,0.45,-0.65,-0.38,-0.03,0.25,-4.25,9.0,1.8125,0.4305419921875,-0.54400634765625,-0.500732421875,-0.5177001953125,6.375,16.5625,-2.75,9.75,0.49,-0.91,stop,1
7.9,608312.548982569,21,1,1,0,0,9.31,0.35,-0.78,-0.43,-0.12,0.11,-5.5,9.8125,1.6875,0.4307861328125,-0.5438232421875,-0.5,-0.518310546875,6.375,16.5625,-2.75,9.75,0.48,-0.89,stop,1
7.91,608312.548982569,21,1,1,0,0,9.35,0.31,-1.07,-0.4,-0.17,-0.18,-2.9375,8.4375,1.125,0.4310302734375,-0.54364013671875,-0.49951171875,-0.518798828125,6.375,16.5625,-2.75,9.75,0.48,-0.88,stop,1
7.92,608312.567087224,21,1,1,0,0,9.4,0.33,-1.11,-0.35,-0.15,-0.24,-0.4375,5.0625,0.875,0.43133544921875,-0.54339599609375,-0.499267578125,-0.51904296875,6.375,16.5625,-2.75,9.75,0.48,-0.87,stop,1
7.93,608312.567087224,21,1,1,0,0,9.55,0.34,-0.97,-0.2,-0.13,-0.1,-0.75,1.1875,1.4375,0.431396484375,-0.54345703125,-0.49908447265625,-0.51904296875,6.375,16.5625,-2.75,9.75,0.48,-0.87,stop,1
7.94,608312.572495264,21,1,1,0,0,9.5,0.39,-0.79,-0.24,-0.08,0.07,-1.25,-0.0625,1.6875,0.431396484375,-0.5435791015625,-0.49896240234375,-0.51904296875,6.375,17.0,-2.0,9.75,0.48,-0.87,stop,1
7.95,608312.572495264,21,1,1,0,0,9.5,0.43,-0.69,-0.25,-0.04,0.17,-2.75,-1.0625,2.3125,0.43133544921875,-0.5438232421875,-0.498779296875,-0.51904296875,6.375,17.0,-2.0,9.75,0.47,-0.87,stop,1
7.96,608312.602816594,21,1,1,0,0,9.45,0.39,-0.67,-0.31,-0.01,0.09,-4.75,-2.125,3.0,0.43560791015625,-0.54290771484375,-0.494384765625,-0.52069091796875,6.375,17.0,-2.0,9.76,0.4,-0.76,stop,1
7.97,608312.602816594,21,1,1,0,0,9.47,0.46,-0.56,-0.29,0.06,0.19,-6.1875,-0.9375,3.6875,0.4354248046875,-0.54339599609375,-0.49395751953125,-0.520751953125,6.375,17.0,-2.0,9.76,0.4,-0.76,stop,1
7.98,608312.619042139,21,1,1,0,0,9.39,0.28,-0.76,-0.37,-0.11,0.0,-4.375,-1.125,2.875,0.435302734375,-0.543701171875,-0.49365234375,-0.520751953125,6.375,17.0,-2.0,9.76,0.4,-0.77,stop,1
7.99,608312.619042139,21,1,1,0,0,9.34,0.38,-0.83,-0.42,-0.01,-0.06,-0.375,0.25,0.8125,0.43536376953125,-0.54376220703125,-0.49359130859375,-0.520751953125,6.0625,18.0,-1.6875,9.76,0.39,-0.77,stop,1
8.0,608312.632536931,21,1,1,0,0,9.22,0.3,-1.08,-0.54,-0.09,-0.31,0.8125,-0.625,0.125,0.435302734375,-0.54376220703125,-0.49365234375,-0.5206298828125,6.0625,18.0,-1.6875,9.76,0.39,-0.77,stop,1
8.01,608312.632536931,21,1,1,0,0,9.38,0.47,-0.98,-0.38,0.08,-0.2,-0.375,-3.1875,0.875,0.43524169921875,-0.5439453125,-0.4937744140625,-0.52044677734375,6.0625,18.0,-1.6875,9.76,0.39,-0.77,stop,1
8.02,608312.664670354,21,1,1,0,0,9.65,0.5,-0.81,-0.1,0.11,-0.02,-3.75,-7.4375,2.75,0.43487548828125,-0.5445556640625,-0.49371337890625,-0.5201416015625,6.0625,18.0,-1.6875,9.76,0.39,-0.79,stop,1
8.03,608312.664670354,21,1,1,0,0,9.84,0.46,-0.84,0.08,0.07,-0.03,-1.6875,-7.375,1.75,0.4345703125,-0.5450439453125,-0.49383544921875,-0.51983642578125,6.0625,18.0,-1.6875,9.76,0.38,-0.8,stop,1
8.04,608312.677833114,21,1,1,0,0,9.94,0.46,-0.92,0.17,0.07,-0.11,2.625,-4.4375,-0.8125,0.4344482421875,-0.54510498046875,-0.49420166015625,-0.51953125,5.6875,16.5625,-1.25,9.76,0.39,-0.81,stop,1
8.05,608312.677833114,21,1,1,0,0,10.17,0.59,-0.86,0.41,0.2,-0.04,2.0,-6.0,-1.1875,0.4342041015625,-0.5452880859375,-0.49456787109375,-0.5191650390625,5.6875,16.5625,-1.25,9.76,0.39,-0.82,stop,1
8.06,608312.692473902,21,1,1,0,0,10.37,0.62,-0.79,0.6,0.22,0.03,-1.375,-5.3125,-0.875,0.43389892578125,-0.5455322265625,-0.4947509765625,-0.51904296875,5.6875,16.5625,-1.25,9.76,0.39,-0.83,stop,1
8.07,608312.692473902,21,1,1,0,0,10.29,0.43,-0.7,0.53,0.03,0.12,-3.1875,-1.625,-1.6875,0.43359375,-0.545654296875,-0.4947509765625,-0.5191650390625,5.6875,16.5625,-1.25,9.76,0.39,-0.83,stop,1
8.08,608312.72306814,21,1,1,0,0,10.1,0.34,-0.67,0.34,-0.05,0.16,-4.25,1.125,-2.125,0.433349609375,-0.545654296875,-0.49462890625,-0.51947021484375,5.6875,16.5625,-1.25,9.76,0.4,-0.83,stop,1
8.09,608312.72306814,21,1,1,0,0,9.89,0.33,-0.74,0.13,-0.07,0.07,-4.9375,2.875,-2.4375,0.43310546875,-0.54559326171875,-0.494384765625,-0.5198974609375,5.25,16.5625,-0.875,9.76,0.4,-0.82,stop,1
8.1,608312.729019922,21,1,1,0,0,9.89,0.33,-0.74,0.13,-0.07,0.07,-4.9375,2.875,-2.4375,0.43310546875,-0.54559326171875,-0.494384765625,-0.5198974609375,5.25,16.5625,-0.875,9.76,0.4,-0.82,stop,1
8.11,608312.729019922,21,1,1,0,0,9.73,0.36,-0.78,-0.02,-0.04,0.03,-4.0625,4.3125,-2.75,0.4329833984375,-0.54541015625,-0.49420166015625,-0.5203857421875,5.25,16.5625,-0.875,9.76,0.41,-0.81,stop,1
8.11,608312.753902857,21,1,1,0,0,9.46,0.49,-0.74,-0.3,0.07,0.06,-4.5625,3.375,-2.125,0.43280029296875,-0.54534912109375,-0.49395751953125,-0.5208740234375,5.25,16.5625,-0.875,9.76,0.41,-0.81,stop,1
8.12,608312.753902857,21,1,1,0,0,9.4,0.57,-0.73,-0.36,0.15,0.07,-3.875,3.4375,-1.6875,0.43267822265625,-0.5452880859375,-0.49371337890625,-0.521240234375,5.25,16.5625,-0.875,9.76,0.41,-0.8,stop,1
8.13,608312.76755577,21,1,1,0,0,9.23,0.61,-0.79,-0.52,0.19,0.0,-3.0,2.8125,-1.9375,0.43255615234375,-0.545166015625,-0.4935302734375,-0.5216064453125,5.25,16.5625,-0.875,9.76,0.42,-0.8,stop,1
8.14,608312.76755577,21,1,1,0,0,9.2,0.59,-0.97,-0.56,0.17,-0.17,-1.8125,0.375,-1.8125,0.43243408203125,-0.545166015625,-0.49359130859375,-0.521728515625,5.6875,16.5625,-2.75,9.76,0.42,-0.8,stop,1
8.15,608312.797618311,21,1,1,0,0,9.24,0.57,-1.01,-0.51,0.14,-0.21,-1.0625,-0.25,-1.875,0.4322509765625,-0.54510498046875,-0.49359130859375,-0.5218505859375,5.6875,16.5625,-2.75,9.76,0.43,-0.8,stop,1
8.16,608312.797618311,21,1,1,0,0,9.27,0.5,-1.09,-0.48,0.07,-0.28,-1.0,-0.8125,-1.8125,0.43206787109375,-0.54510498046875,-0.49365234375,-0.52191162109375,5.6875,16.5625,-2.75,9.76,0.43,-0.8,stop,1
8.17,608312.812696477,21,1,1,0,0,9.39,0.55,-0.98,-0.36,0.11,-0.17,-0.8125,-3.0625,-1.375,0.431884765625,-0.54522705078125,-0.49383544921875,-0.5218505859375,5.6875,16.5625,-2.75,9.76,0.43,-0.8,stop,1
8.18,608312.812696477,21,1,1,0,0,9.63,0.6,-0.84,-0.12,0.17,-0.03,-2.625,-3.9375,-0.5625,0.4315185546875,-0.54547119140625,-0.493896484375,-0.52178955078125,5.6875,16.5625,-2.75,9.76,0.43,-0.81,stop,1
8.19,608312.828176579,21,1,1,0,0,9.7,0.52,-0.95,-0.06,0.08,-0.13,-4.125,-2.9375,0.0625,0.43121337890625,-0.5457763671875,-0.49383544921875,-0.5218505859375,5.25,15.875,-2.75,9.76,0.43,-0.81,stop,1
8.2,608312.828176579,21,1,1,0,0,9.71,0.51,-1.04,-0.04,0.07,-0.22,-2.8125,-1.9375,0.0,0.43096923828125,-0.54595947265625,-0.4937744140625,-0.52191162109375,5.25,15.875,-2.75,9.76,0.43,-0.82,stop,1
8.21,608312.842642481,21,1,1,0,0,9.84,0.54,-1.02,0.07,0.1,-0.19,-2.125,-2.9375,0.3125,0.43072509765625,-0.54620361328125,-0.4937744140625,-0.5218505859375,5.25,15.875,-2.75,9.76,0.43,-0.82,stop,1
8.22,608312.842642481,21,1,1,0,0,9.97,0.64,-0.86,0.21,0.2,-0.03,-2.5,-3.1875,0.6875,0.4305419921875,-0.54644775390625,-0.49371337890625,-0.52178955078125,5.25,15.875,-2.75,9.76,0.43,-0.83,stop,1
8.23,608312.872534856,21,1,1,0,0,9.97,0.66,-0.81,0.21,0.22,0.01,-2.625,-2.4375,0.625,0.4302978515625,-0.54669189453125,-0.49371337890625,-0.521728515625,5.25,15.875,-2.75,9.76,0.43,-0.83,stop,1
8.24,608312.872534856,21,1,1,0,0,9.97,0.68,-0.75,0.21,0.25,0.08,-2.8125,-1.625,0.4375,0.43011474609375,-0.546875,-0.49359130859375,-0.52178955078125,5.25,17.375,-3.5625,9.76,0.43,-0.83,stop,1
8.25,608312.886890162,21,1,1,0,0,9.94,0.64,-0.82,0.18,0.2,0.01,-2.9375,-1.375,0.125,0.429931640625,-0.54705810546875,-0.4935302734375,-0.5218505859375,5.25,17.375,-3.5625,9.76,0.43,-0.84,stop,1
8.26,608312.886890162,21,1,1,0,0,9.91,0.62,-0.81,0.15,0.18,0.02,-3.0,0.4375,-0.25,0.42974853515625,-0.54718017578125,-0.493408203125,-0.52197265625,5.25,17.375,-3.5625,9.76,0.43,-0.84,stop,1
8.27,608312.902221176,21,1,1,0,0,9.84,0.61,-0.84,0.08,0.17,0.0,-2.8125,1.4375,-0.5,0.4296875,-0.54718017578125,-0.49322509765625,-0.522216796875,5.25,17.375,-3.5625,9.76,0.44,-0.83,stop,1
8.28,608312.902221176,21,1,1,0,0,9.81,0.59,-0.81,0.05,0.15,0.02,-2.875,1.4375,-0.5,0.4295654296875,-0.5472412109375,-0.4930419921875,-0.52239990234375,5.25,17.375,-3.5625,9.76,0.44,-0.83,stop,1
8.29,608312.932649643,21,1,1,0,0,9.66,0.56,-0.82,-0.09,0.12,0.0,-2.9375,1.375,-0.6875,0.429443359375,-0.5472412109375,-0.492919921875,-0.52264404296875,5.0,17.375,-2.0,9.76,0.44,-0.83,stop,1
8.3,608312.932649643,21,1,1,0,0,9.62,0.56,-0.88,-0.13,0.12,-0.05,-2.75,1.3125,-0.625,0.4293212890625,-0.5472412109375,-0.4927978515625,-0.52288818359375,5.0,17.375,-2.0,9.76,0.44,-0.82,stop,1
8.31,608312.949945582,21,1,1,0,0,9.59,0.53,-0.92,-0.17,0.08,-0.09,-2.375,1.875,-0.6875,0.42919921875,-0.54718017578125,-0.49267578125,-0.5230712890625,5.0,17.375,-2.0,9.76,0.44,-0.82,stop,1
8.32,608312.949945582,21,1,1,0,0,9.64,0.53,-0.93,-0.11,0.08,-0.11,-2.625,1.9375,-0.3125,0.42913818359375,-0.54718017578125,-0.49249267578125,-0.5233154296875,5.0,17.375,-2.0,9.76,0.44,-0.82,stop,1
8.33,608312.96284939,21,1,1,0,0,9.62,0.53,-0.86,-0.13,0.08,-0.04,-2.5625,1.3125,-0.25,0.4290771484375,-0.5472412109375,-0.49237060546875,-0.52349853515625,5.0,17.375,-2.0,9.76,0.45,-0.82,stop,1
8.34,608312.96284939,21,1,1,0,0,9.59,0.55,-0.87,-0.16,0.1,-0.05,-2.375,1.6875,-0.1875,0.42901611328125,-0.5472412109375,-0.4921875,-0.523681640625,6.375,15.875,-1.25,9.76,0.45,-0.81,stop,1
8.35,608312.99213178,21,1,1,0,0,9.56,0.6,-0.83,-0.19,0.15,-0.02,-2.9375,1.875,-0.0625,0.42889404296875,-0.5472412109375,-0.49200439453125,-0.52386474609375,6.375,15.875,-1.25,9.76,0.45,-0.81,stop,1
8.36,608312.99213178,21,1,1,0,0,9.55,0.63,-0.73,-0.2,0.18,0.07,-4.375,2.0,0.5625,0.42877197265625,-0.54736328125,-0.49176025390625,-0.524169921875,6.375,15.875,-1.25,9.76,0.45,-0.81,stop,1
8.37,608313.007798406,21,1,1,0,0,9.53,0.6,-0.75,-0.22,0.15,0.05,-6.25,2.3125,1.3125,0.4285888671875,-0.5474853515625,-0.4913330078125,-0.5245361328125,6.375,15.875,-1.25,9.76,0.45,-0.8,stop,1
8.38,608313.007798406,21,1,1,0,0,9.49,0.41,-1.0,-0.26,-0.03,-0.19,-4.9375,1.3125,0.875,0.428466796875,-0.54766845703125,-0.49102783203125,-0.5247802734375,6.375,15.875,-1.25,9.76,0.45,-0.8,stop,1
8.39,608313.024043442,21,1,1,0,0,9.4,0.45,-1.08,-0.35,0.0,-0.27,-1.375,2.25,-0.75,0.42840576171875,-0.547607421875,-0.490966796875,-0.52490234375,5.25,16.5625,-1.6875,9.76,0.45,-0.8,stop,1
8.4,608313.024043442,21,1,1,0,0,9.53,0.44,-1.07,-0.22,0.0,-0.27,-1.1875,-0.25,-0.3125,0.42828369140625,-0.54766845703125,-0.490966796875,-0.52496337890625,5.25,16.5625,-1.6875,9.76,0.45,-0.8,stop,1
8.41,608313.056058944,21,1,1,0,0,9.68,0.56,-0.9,-0.07,0.1,-0.09,-2.9375,-1.0,0.5,0.4281005859375,-0.5478515625,-0.49090576171875,-0.5250244140625,5.25,16.5625,-1.6875,9.76,0.45,-0.8,stop,1
8.42,608313.056058944,21,1,1,0,0,9.85,0.49,-0.73,0.09,0.04,0.07,-5.8125,-3.6875,2.625,0.427734375,-0.54833984375,-0.49066162109375,-0.52496337890625,5.25,16.5625,-1.6875,9.76,0.45,-0.81,stop,1
8.43,608313.069705103,21,1,1,0,0,9.84,0.35,-0.78,0.08,-0.08,0.03,-3.1875,-2.25,1.625,0.42755126953125,-0.54864501953125,-0.490478515625,-0.52496337890625,5.25,16.5625,-1.6875,9.76,0.44,-0.81,stop,1
8.44,608313.069705103,21,1,1,0,0,9.83,0.47,-0.69,0.06,0.02,0.12,1.4375,0.1875,-0.25,0.4276123046875,-0.548583984375,-0.49053955078125,-0.52490234375,5.6875,17.0,-1.25,9.76,0.44,-0.81,stop,1
8.45,608313.087845362,21,1,1,0,0,9.81,0.58,-0.68,0.04,0.14,0.13,1.75,-0.625,-0.3125,0.42767333984375,-0.548583984375,-0.49066162109375,-0.5247802734375,5.6875,17.0,-1.25,9.76,0.44,-0.81,stop,1
8.46,608313.087845362,21,1,1,0,0,9.79,0.62,-0.74,0.03,0.17,0.07,0.8125,-0.4375,0.0,0.427734375,-0.54852294921875,-0.49072265625,-0.52471923828125,5.6875,17.0,-1.25,9.76,0.44,-0.81,stop,1
8.47,608313.112755234,21,1,1,0,0,9.66,0.54,-0.89,-0.09,0.09,-0.07,0.375,0.5625,0.0,0.427734375,-0.54852294921875,-0.49072265625,-0.5247802734375,5.6875,17.0,-1.25,9.76,0.44,-0.81,stop,1
8.48,608313.112755234,21,1,1,0,0,9.64,0.5,-0.9,-0.11,0.05,-0.08,1.3125,0.5,-0.1875,0.42779541015625,-0.5484619140625,-0.49078369140625,-0.52471923828125,5.6875,17.0,-1.25,9.76,0.44,-0.81,stop,1
8.49,608313.127652817,21,1,1,0,0,9.65,0.58,-0.91,-0.1,0.13,-0.09,2.25,0.25,-0.5,0.4278564453125,-0.54833984375,-0.49090576171875,-0.524658203125,6.375,15.1875,-1.6875,9.76,0.44,-0.81,stop,1
8.5,608313.127652817,21,1,1,0,0,9.65,0.6,-0.98,-0.1,0.15,-0.16,1.8125,0.1875,-0.375,0.42791748046875,-0.54827880859375,-0.49102783203125,-0.5245361328125,6.375,15.1875,-1.6875,9.76,0.45,-0.81,stop,1
8.51,608313.142893214,21,1,1,0,0,9.67,0.58,-0.94,-0.08,0.13,-0.12,0.875,0.0,-0.125,0.42791748046875,-0.54827880859375,-0.4910888671875,-0.5245361328125,6.375,15.1875,-1.6875,9.76,0.45,-0.81,stop,1
8.52,608313.142893214,21,1,1,0,0,9.71,0.57,-0.89,-0.04,0.12,-0.07,0.0,-0.0625,0.125,0.4278564453125,-0.54827880859375,-0.49114990234375,-0.5245361328125,6.375,15.1875,-1.6875,9.76,0.45,-0.82,stop,1
8.53,608313.172459539,21,1,1,0,0,9.73,0.55,-0.86,-0.02,0.1,-0.04,-0.6875,0.6875,0.3125,0.4278564453125,-0.5482177734375,-0.49114990234375,-0.52459716796875,6.375,15.1875,-1.6875,9.76,0.45,-0.81,stop,1
8.54,608313.172459539,21,1,1,0,0,9.73,0.52,-0.84,-0.02,0.06,-0.03,-1.3125,1.6875,0.5,0.4278564453125,-0.5482177734375,-0.49102783203125,-0.52471923828125,4.5625,17.0,-2.375,9.76,0.45,-0.81,stop,1
8.56,608313.187767359,21,1,1,0,0,9.71,0.49,-0.87,-0.04,0.04,-0.05,-1.8125,2.4375,0.75,0.4278564453125,-0.5482177734375,-0.4908447265625,-0.52490234375,4.5625,17.0,-2.375,9.76,0.45,-0.81,stop,1
8.56,608313.187767359,21,1,1,0,0,9.66,0.47,-0.86,-0.09,0.02,-0.05,-1.75,2.375,0.8125,0.42791748046875,-0.5482177734375,-0.4906005859375,-0.5250244140625,4.5625,17.0,-2.375,9.76,0.45,-0.8,stop,1
8.57,608313.202971461,21,1,1,0,0,9.69,0.57,-0.73,-0.06,0.12,0.07,-2.0625,2.125,1.0,0.42791748046875,-0.5482177734375,-0.49041748046875,-0.52520751953125,4.5625,17.0,-2.375,9.76,0.45,-0.8,stop,1
8.58,608313.202971461,21,1,1,0,0,9.72,0.5,-0.8,-0.04,0.05,0.0,-3.3125,1.25,1.75,0.42791748046875,-0.54833984375,-0.4901123046875,-0.52532958984375,4.5625,17.0,-2.375,9.76,0.44,-0.8,stop,1
8.59,608313.233727442,21,1,1,0,0,9.66,0.48,-0.81,-0.09,0.03,-0.01,-2.0,2.375,1.1875,0.427978515625,-0.54833984375,-0.4898681640625,-0.5255126953125,5.25,17.0,-2.0,9.76,0.44,-0.79,stop,1
8.6,608313.233727442,21,1,1,0,0,9.64,0.5,-0.83,-0.11,0.05,-0.03,-1.0,1.8125,1.0625,0.42803955078125,-0.54833984375,-0.48974609375,-0.52557373046875,5.25,17.0,-2.0,9.76,0.44,-0.79,stop,1
8.61,608313.247714015,21,1,1,0,0,9.69,0.42,-0.77,-0.06,-0.01,0.01,-1.5625,1.0,1.625,0.42803955078125,-0.5484619140625,-0.48956298828125,-0.525634765625,5.25,17.0,-2.0,9.76,0.44,-0.79,stop,1
8.62,608313.247714015,21,1,1,0,0,9.68,0.41,-0.74,-0.07,-0.02,0.04,-0.5,0.25,1.5,0.42816162109375,-0.54852294921875,-0.489501953125,-0.52557373046875,5.25,17.0,-2.0,9.76,0.43,-0.79,stop,1
8.63,608313.26389712,21,1,1,0,0,9.68,0.46,-0.74,-0.08,0.02,0.04,0.875,0.625,1.0625,0.42828369140625,-0.5484619140625,-0.48944091796875,-0.52557373046875,5.25,17.0,-2.0,9.76,0.43,-0.79,stop,1
8.64,608313.26389712,21,1,1,0,0,9.62,0.48,-0.71,-0.14,0.05,0.07,1.875,0.9375,0.5625,0.42840576171875,-0.54840087890625,-0.48944091796875,-0.5255126953125,5.25,16.5625,-1.25,9.76,0.43,-0.79,stop,1
8.65,608313.294699976,21,1,1,0,0,9.61,0.48,-0.72,-0.14,0.05,0.06,1.875,0.25,0.75,0.42852783203125,-0.54833984375,-0.489501953125,-0.525390625,5.25,16.5625,-1.25,9.76,0.43,-0.79,stop,1
8.66,608313.294699976,21,1,1,0,0,9.6,0.49,-0.74,-0.15,0.06,0.04,2.125,0.375,0.5625,0.42864990234375,-0.54827880859375,-0.48956298828125,-0.5252685546875,5.25,16.5625,-1.25,9.76,0.43,-0.79,stop,1
8.67,608313.308120143,21,1,1,0,0,9.57,0.5,-0.77,-0.19,0.06,0.01,2.625,0.4375,0.5,0.42877197265625,-0.54815673828125,-0.48968505859375,-0.52520751953125,5.25,16.5625,-1.25,9.76,0.43,-0.79,stop,1
8.68,608313.308120143,21,1,1,0,0,9.64,0.53,-0.8,-0.12,0.09,-0.01,2.6875,0.0,0.625,0.428955078125,-0.548095703125,-0.48980712890625,-0.5250244140625,5.25,16.5625,-1.25,9.76,0.43,-0.79,stop,1
8.69,608313.322660182,21,1,1,0,0,9.75,0.55,-0.83,-0.01,0.11,-0.04,2.875,-0.5625,0.75,0.4290771484375,-0.54803466796875,-0.48992919921875,-0.52484130859375,6.0625,16.1875,-2.75,9.76,0.43,-0.79,stop,1
8.7,608313.322660182,21,1,1,0,0,9.78,0.56,-0.89,0.01,0.13,-0.09,3.3125,-0.375,0.8125,0.42926025390625,-0.5479736328125,-0.49005126953125,-0.52471923828125,6.0625,16.1875,-2.75,9.76,0.43,-0.79,stop,1
8.71,608313.352666814,21,1,1,0,0,9.77,0.59,-0.95,0.01,0.16,-0.16,3.375,0.375,0.6875,0.42938232421875,-0.5478515625,-0.490234375,-0.5245361328125,6.0625,16.1875,-2.75,9.76,0.42,-0.79,stop,1
8.72,608313.352666814,21,1,1,0,0,9.82,0.56,-0.95,0.05,0.13,-0.15,2.25,0.4375,1.125,0.42950439453125,-0.54779052734375,-0.4903564453125,-0.5244140625,6.0625,16.1875,-2.75,9.76,0.42,-0.79,stop,1
8.73,608313.367357366,21,1,1,0,0,9.8,0.49,-0.91,0.04,0.07,-0.12,0.6875,1.0625,1.6875,0.42962646484375,-0.54779052734375,-0.49029541015625,-0.52435302734375,6.0625,16.1875,-2.75,9.76,0.42,-0.79,stop,1
8.74,608313.367357366,21,1,1,0,0,9.73,0.46,-0.86,-0.02,0.04,-0.07,-0.125,1.5625,2.0,0.42974853515625,-0.5478515625,-0.49017333984375,-0.52435302734375,6.375,16.5625,-2.75,9.76,0.42,-0.79,stop,1
8.75,608313.387352076,21,1,1,0,0,9.67,0.44,-0.7,-0.08,0.02,0.08,-0.4375,1.25,1.875,0.429931640625,-0.5478515625,-0.489990234375,-0.52435302734375,6.375,16.5625,-2.75,9.76,0.41,-0.78,stop,1
8.76,608313.387352076,21,1,1,0,0,9.71,0.5,-0.59,-0.05,0.08,0.18,-1.3125,1.375,1.75,0.42999267578125,-0.54791259765625,-0.48980712890625,-0.5244140625,6.375,16.5625,-2.75,9.76,0.41,-0.78,stop,1
8.77,608313.414208318,21,1,1,0,0,9.74,0.48,-0.57,-0.01,0.06,0.2,-2.875,0.625,2.3125,0.42999267578125,-0.548095703125,-0.48956298828125,-0.52447509765625,6.375,16.5625,-2.75,9.76,0.41,-0.78,stop,1
8.78,608313.414208318,21,1,1,0,0,9.72,0.27,-0.81,-0.04,-0.13,-0.03,-0.8125,0.0,1.3125,0.42999267578125,-0.54815673828125,-0.48944091796875,-0.52447509765625,6.375,16.5625,-2.75,9.76,0.41,-0.78,stop,1
8.79,608313.427621526,21,1,1,0,0,9.42,0.41,-0.86,-0.33,0.0,-0.08,3.875,2.4375,-1.0,0.43023681640625,-0.5478515625,-0.48956298828125,-0.52447509765625,5.25,16.1875,-2.375,9.76,0.41,-0.78,stop,1
8.8,608313.427621526,21,1,1,0,0,9.46,0.37,-0.86,-0.29,-0.03,-0.07,3.0625,0.125,-0.5625,0.43035888671875,-0.5477294921875,-0.48974609375,-0.52435302734375,5.25,16.1875,-2.375,9.76,0.41,-0.78,stop,1
8.81,608313.443018539,21,1,1,0,0,9.61,0.48,-0.68,-0.15,0.06,0.09,0.4375,-0.4375,0.4375,0.43035888671875,-0.5477294921875,-0.48974609375,-0.52435302734375,5.25,16.1875,-2.375,9.76,0.41,-0.78,stop,1
8.82,608313.443018539,21,1,1,0,0,9.85,0.41,-0.57,0.09,0.0,0.21,-1.9375,-2.625,2.125,0.43023681640625,-0.5479736328125,-0.48968505859375,-0.52423095703125,5.25,16.1875,-2.375,9.76,0.41,-0.78,stop,1
8.83,608313.473544744,21,1,1,0,0,9.74,0.35,-0.65,-0.02,-0.05,0.13,0.0625,-1.875,1.3125,0.43023681640625,-0.54815673828125,-0.48968505859375,-0.52410888671875,5.25,16.1875,-2.375,9.76,0.4,-0.78,stop,1
8.84,608313.473544744,21,1,1,0,0,9.71,0.44,-0.63,-0.05,0.03,0.15,3.4375,-0.125,0.0,0.430419921875,-0.5479736328125,-0.48980712890625,-0.52398681640625,5.0,17.6875,-1.25,9.76,0.4,-0.78,stop,1
8.85,608313.487329168,21,1,1,0,0,9.69,0.51,-0.7,-0.06,0.1,0.08,3.25,-1.375,0.125,0.43048095703125,-0.54791259765625,-0.49005126953125,-0.5238037109375,5.0,17.6875,-1.25,9.76,0.4,-0.79,stop,1
8.86,608313.487329168,21,1,1,0,0,9.69,0.51,-0.83,-0.06,0.1,-0.04,2.625,-2.1875,0.4375,0.4305419921875,-0.54791259765625,-0.490234375,-0.5235595703125,5.0,17.6875,-1.25,9.76,0.4,-0.79,stop,1
8.87,608313.503206894,21,1,1,0,0,9.69,0.47,-0.87,-0.06,0.07,-0.07,2.625,-1.625,0.125,0.43060302734375,-0.5478515625,-0.49041748046875,-0.52337646484375,5.0,17.6875,-1.25,9.76,0.4,-0.79,stop,1
8.88,608313.503206894,21,1,1,0,0,9.71,0.47,-0.9,-0.04,0.06,-0.1,3.0625,-1.8125,-0.0625,0.4306640625,-0.5478515625,-0.49066162109375,-0.523193359375,5.0,17.6875,-1.25,9.76,0.4,-0.8,stop,1
8.89,608313.53470905,21,1,1,0,0,9.76,0.57,-0.83,0.0,0.16,-0.02,3.0,-1.3125,-0.1875,0.43072509765625,-0.54779052734375,-0.4908447265625,-0.52294921875,5.6875,16.1875,-2.375,9.76,0.4,-0.8,stop,1
8.9,608313.53470905,21,1,1,0,0,9.75,0.58,-0.84,0.0,0.18,-0.04,2.0,-0.625,-0.25,0.43072509765625,-0.5477294921875,-0.490966796875,-0.52288818359375,5.6875,16.1875,-2.375,9.76,0.4,-0.8,stop,1
8.91,608313.549310572,21,1,1,0,0,9.74,0.54,-0.85,-0.02,0.13,-0.05,0.5625,-0.5,0.0,0.43072509765625,-0.54766845703125,-0.49102783203125,-0.5228271484375,5.6875,16.1875,-2.375,9.76,0.4,-0.8,stop,1
8.92,608313.549310572,21,1,1,0,0,9.73,0.5,-0.81,-0.03,0.09,-0.01,-0.4375,-0.125,0.375,0.43072509765625,-0.54766845703125,-0.4910888671875,-0.52288818359375,5.6875,16.1875,-2.375,9.76,0.4,-0.8,stop,1
8.93,608313.562211004,21,1,1,0,0,9.7,0.45,-0.78,-0.05,0.04,0.02,-0.75,0.0,0.5,0.4306640625,-0.54766845703125,-0.49102783203125,-0.52288818359375,5.6875,16.1875,-2.375,9.76,0.4,-0.8,stop,1
8.94,608313.562211004,21,1,1,0,0,9.69,0.38,-0.82,-0.06,-0.02,-0.02,-0.75,-0.125,0.625,0.4306640625,-0.5477294921875,-0.490966796875,-0.52288818359375,6.0625,16.5625,-2.0,9.76,0.4,-0.8,stop,1
8.95,608313.592962509,21,1,1,0,0,9.67,0.34,-0.9,-0.08,-0.06,-0.09,-0.5625,-0.25,0.625,0.4306640625,-0.54779052734375,-0.49090576171875,-0.52288818359375,6.0625,16.5625,-2.0,9.76,0.4,-0.8,stop,1
8.96,608313.592962509,21,1,1,0,0,9.69,0.43,-0.8,-0.07,0.02,0.0,0.3125,-0.1875,0.3125,0.4306640625,-0.54779052734375,-0.49090576171875,-0.52288818359375,6.0625,16.5625,-2.0,9.76,0.4,-0.8,stop,1
8.97,608313.607082382,21,1,1,0,0,9.81,0.47,-0.74,0.04,0.07,0.06,-0.625,-0.9375,1.125,0.43060302734375,-0.54791259765625,-0.49090576171875,-0.52288818359375,6.0625,16.5625,-2.0,9.76,0.4,-0.8,stop,1
8.98,608313.607082382,21,1,1,0,0,9.77,0.46,-0.73,0.0,0.06,0.07,-0.8125,-0.1875,1.25,0.4306640625,-0.5479736328125,-0.49078369140625,-0.5228271484375,6.0625,16.5625,-2.0,9.76,0.4,-0.8,stop,1
8.99,608313.622882065,21,1,1,0,0,9.73,0.45,-0.7,-0.03,0.05,0.1,0.125,0.75,0.8125,0.43072509765625,-0.5479736328125,-0.49072265625,-0.52288818359375,5.25,16.5625,-1.25,9.76,0.4,-0.8,stop,1
9.0,608313.622882065,21,1,1,0,0,9.67,0.38,-0.77,-0.09,-0.01,0.03,-0.0625,0.0625,1.25,0.4307861328125,-0.54803466796875,-0.49066162109375,-0.5228271484375,5.25,16.5625,-1.25,9.76,0.4,-0.8,stop,1
9.01,608313.652534531,21,1,1,0,0,9.63,0.38,-0.77,-0.13,-0.01,0.03,0.25,0.1875,1.0,0.43084716796875,-0.548095703125,-0.4906005859375,-0.52276611328125,5.25,16.5625,-1.25,9.76,0.39,-0.8,stop,1
9.02,608313.652534531,21,1,1,0,0,9.61,0.42,-0.81,-0.15,0.02,-0.01,1.625,0.1875,0.375,0.430908203125,-0.54803466796875,-0.49066162109375,-0.522705078125,5.25,16.5625,-1.25,9.76,0.39,-0.8,stop,1
9.03,608313.667831813,21,1,1,0,0,9.59,0.47,-0.87,-0.17,0.07,-0.07,2.3125,-0.125,0.375,0.43096923828125,-0.54791259765625,-0.49078369140625,-0.52264404296875,5.25,16.5625,-1.25,9.76,0.39,-0.8,stop,1
9.04,608313.667831813,21,1,1,0,0,9.63,0.53,-0.82,-0.12,0.13,-0.01,2.5625,-0.6875,0.25,0.43109130859375,-0.5478515625,-0.490966796875,-0.5224609375,5.6875,16.5625,-2.375,9.76,0.39,-0.8,stop,1
9.06,608313.683271306,21,1,1,0,0,9.66,0.53,-0.81,-0.1,0.13,0.0,1.9375,-0.75,0.5,0.43109130859375,-0.54779052734375,-0.4910888671875,-0.52239990234375,5.6875,16.5625,-2.375,9.76,0.39,-0.8,stop,1
9.06,608313.683271306,21,1,1,0,0,9.68,0.51,-0.8,-0.07,0.11,0.0,1.3125,-0.4375,0.625,0.43121337890625,-0.54779052734375,-0.49114990234375,-0.52227783203125,5.6875,16.5625,-2.375,9.76,0.39,-0.8,stop,1
9.07,608313.711867823,21,1,1,0,0,9.73,0.5,-0.84,-0.03,0.1,-0.03,0.5,-0.75,0.5625,0.43115234375,-0.5478515625,-0.49114990234375,-0.52227783203125,5.6875,16.5625,-2.375,9.76,0.39,-0.81,stop,1
9.08,608313.711867823,21,1,1,0,0,9.72,0.48,-0.9,-0.04,0.08,-0.09,0.5625,-0.5625,0.3125,0.43115234375,-0.5478515625,-0.4912109375,-0.522216796875,5.6875,16.5625,-2.375,9.76,0.39,-0.81,stop,1
9.09,608313.72759052,21,1,1,0,0,9.71,0.49,-0.89,-0.04,0.09,-0.08,0.75,-0.1875,0.0625,0.43115234375,-0.54779052734375,-0.49127197265625,-0.52215576171875,6.0625,16.5625,-1.25,9.76,0.39,-0.81,stop,1
9.1,608313.72759052,21,1,1,0,0,9.72,0.53,-0.85,-0.04,0.13,-0.03,0.375,-0.4375,0.1875,0.43115234375,-0.54779052734375,-0.49127197265625,-0.52215576171875,6.0625,16.5625,-1.25,9.76,0.39,-0.81,stop,1
9.11,608313.743214381,21,1,1,0,0,9.72,0.45,-0.83,-0.04,0.05,-0.02,-0.6875,-0.0625,0.625,0.43115234375,-0.5478515625,-0.4912109375,-0.52215576171875,6.0625,16.5625,-1.25,9.76,0.39,-0.81,stop,1
9.12,608313.743214381,21,1,1,0,0,9.7,0.42,-0.81,-0.05,0.02,0.0,-1.5,-0.125,1.125,0.43109130859375,-0.5479736328125,-0.49114990234375,-0.522216796875,6.0625,16.5625,-1.25,9.76,0.39,-0.81,stop,1
9.13,608313.773085068,21,1,1,0,0,9.71,0.38,-0.81,-0.04,0.0,0.0,-1.375,0.0,1.125,0.43109130859375,-0.54803466796875,-0.49102783203125,-0.522216796875,6.0625,16.5625,-1.25,9.76,0.39,-0.81,stop,1
9.14,608313.773085068,21,1,1,0,0,9.68,0.45,-0.76,-0.07,0.06,0.04,-0.5625,0.0,0.9375,0.43109130859375,-0.548095703125,-0.49090576171875,-0.522216796875,6.0625,15.875,-1.6875,9.76,0.39,-0.81,stop,1
9.15,608313.78661347,21,1,1,0,0,9.67,0.5,-0.68,-0.08,0.11,0.12,-0.625,-0.5,0.8125,0.43109130859375,-0.54815673828125,-0.4908447265625,-0.522216796875,6.0625,15.875,-1.6875,9.76,0.39,-0.81,stop,1
9.16,608313.78661347,21,1,1,0,0,9.63,0.56,-0.65,-0.12,0.17,0.15,-1.1875,-0.3125,1.0,0.43109130859375,-0.5482177734375,-0.49078369140625,-0.52227783203125,6.0625,15.875,-1.6875,9.76,0.39,-0.81,stop,1
9.17,608313.802134954,21,1,1,0,0,9.66,0.58,-0.62,-0.1,0.19,0.18,-2.25,0.0,1.0,0.4310302734375,-0.54827880859375,-0.4906005859375,-0.52239990234375,6.0625,15.875,-1.6875,9.76,0.39,-0.81,stop,1
9.18,608313.802134954,21,1,1,0,0,9.49,0.35,-0.91,-0.27,-0.03,-0.1,-2.1875,-0.5,0.875,0.430908203125,-0.54840087890625,-0.490478515625,-0.5224609375,6.0625,15.875,-1.6875,9.76,0.39,-0.81,stop,1
9.19,608313.837584783,21,1,1,0,0,9.43,0.42,-0.96,-0.33,0.02,-0.15,1.125,0.1875,-0.9375,0.430908203125,-0.54833984375,-0.4906005859375,-0.5224609375,5.25,16.1875,-2.75,9.76,0.39,-0.81,stop,1
9.2,608313.837584783,21,1,1,0,0,9.37,0.38,-1.01,-0.38,-0.01,-0.19,1.375,-1.25,-1.375,0.43084716796875,-0.54827880859375,-0.49078369140625,-0.5223388671875,5.25,16.1875,-2.75,9.76,0.39,-0.81,stop,1
9.21,608313.848183212,21,1,1,0,0,9.51,0.52,-0.79,-0.24,0.12,0.02,0.1875,-2.625,-0.625,0.4306640625,-0.54840087890625,-0.490966796875,-0.52227783203125,5.25,16.1875,-2.75,9.76,0.39,-0.81,stop,1
9.22,608313.848183212,21,1,1,0,0,9.86,0.47,-0.64,0.1,0.08,0.18,-3.5625,-4.125,0.75,0.43035888671875,-0.5487060546875,-0.49090576171875,-0.522216796875,5.25,16.1875,-2.75,9.76,0.39,-0.82,stop,1
9.23,608313.864097967,21,1,1,0,0,9.87,0.41,-0.67,0.11,0.01,0.15,-4.25,-4.3125,1.125,0.4300537109375,-0.54913330078125,-0.4908447265625,-0.52215576171875,5.25,16.1875,-2.75,9.76,0.39,-0.83,stop,1
9.24,608313.864097967,21,1,1,0,0,9.76,0.45,-0.69,0.0,0.05,0.13,-1.875,-1.8125,0.0,0.42987060546875,-0.54925537109375,-0.49078369140625,-0.52215576171875,5.0,16.5625,-1.6875,9.76,0.39,-0.83,stop,1
9.25,608313.898514511,21,1,1,0,0,9.7,0.49,-0.8,-0.06,0.09,0.02,-2.0,-1.3125,-0.125,0.4296875,-0.54937744140625,-0.49078369140625,-0.52215576171875,5.0,16.5625,-1.6875,9.76,0.39,-0.83,stop,1
9.26,608313.898514511,21,1,1,0,0,9.71,0.49,-0.79,-0.04,0.09,0.04,-3.5625,-1.8125,0.3125,0.429443359375,-0.54962158203125,-0.49066162109375,-0.522216796875,5.0,16.5625,-1.6875,9.76,0.39,-0.84,stop,1
9.27,608313.908540431,21,1,1,0,0,9.74,0.47,-0.77,-0.01,0.08,0.07,-3.9375,-2.1875,0.3125,0.42913818359375,-0.54986572265625,-0.4906005859375,-0.5223388671875,5.0,16.5625,-1.6875,9.76,0.39,-0.84,stop,1
9.28,608313.908540431,21,1,1,0,0,9.77,0.45,-0.75,0.01,0.05,0.09,-3.0625,-2.625,0.0,0.42889404296875,-0.550048828125,-0.49053955078125,-0.5223388671875,5.0,16.5625,-1.6875,9.76,0.39,-0.84,stop,1
9.29,608313.922363999,21,1,1,0,0,9.78,0.49,-0.76,0.02,0.09,0.08,-2.375,-1.8125,-0.5625,0.42864990234375,-0.55023193359375,-0.49053955078125,-0.52239990234375,6.375,16.1875,-1.25,9.76,0.39,-0.85,stop,1
9.3,608313.922363999,21,1,1,0,0,9.78,0.48,-0.81,0.02,0.08,0.03,-2.625,-0.75,-0.8125,0.428466796875,-0.55029296875,-0.490478515625,-0.52252197265625,6.375,16.1875,-1.25,9.76,0.4,-0.85,stop,1
9.31,608313.953066351,21,1,1,0,0,9.77,0.45,-0.84,0.01,0.05,0.0,-3.125,0.0,-0.875,0.42828369140625,-0.55035400390625,-0.4903564453125,-0.522705078125,6.375,16.1875,-1.25,9.76,0.4,-0.85,stop,1
9.32,608313.953066351,21,1,1,0,0,9.6,0.39,-0.7,-0.15,0.0,0.14,-3.8125,1.1875,-0.6875,0.4281005859375,-0.5504150390625,-0.49017333984375,-0.52294921875,6.375,16.1875,-1.25,9.76,0.4,-0.84,stop,1
9.33,608313.96806456,21,1,1,0,0,9.5,0.36,-0.76,-0.25,-0.03,0.08,-4.4375,2.0,-0.5625,0.427978515625,-0.55047607421875,-0.48992919921875,-0.52325439453125,6.375,16.1875,-1.25,9.76,0.4,-0.84,stop,1
9.34,608313.96806456,21,1,1,0,0,9.49,0.33,-0.78,-0.26,-0.07,0.05,-4.1875,2.3125,-0.375,0.4278564453125,-0.55047607421875,-0.48968505859375,-0.5235595703125,5.6875,16.1875,-2.0,9.76,0.4,-0.83,stop,1
9.35,608313.983083969,21,1,1,0,0,9.5,0.31,-0.79,-0.26,-0.09,0.04,-3.3125,2.0,-0.3125,0.42779541015625,-0.550537109375,-0.48944091796875,-0.5238037109375,5.6875,16.1875,-2.0,9.76,0.4,-0.83,stop,1
9.36,608313.983083969,21,1,1,0,0,9.52,0.45,-0.64,-0.23,0.04,0.18,-3.375,1.6875,0.0,0.42767333984375,-0.55059814453125,-0.48919677734375,-0.5240478515625,5.6875,16.1875,-2.0,9.76,0.4,-0.83,stop,1
9.37,608314.012787949,21,1,1,0,0,9.58,0.39,-0.74,-0.18,-0.01,0.08,-4.9375,0.1875,0.8125,0.427490234375,-0.55078125,-0.48895263671875,-0.52423095703125,5.6875,16.1875,-2.0,9.76,0.4,-0.83,stop,1
9.38,608314.012787949,21,1,1,0,0,9.55,0.36,-0.81,-0.2,-0.03,0.01,-4.375,1.3125,0.5625,0.4273681640625,-0.5509033203125,-0.4886474609375,-0.52447509765625,5.6875,16.1875,-2.0,9.76,0.4,-0.82,stop,1
9.39,608314.027367701,21,1,1,0,0,9.49,0.44,-0.79,-0.26,0.03,0.02,-3.0625,1.9375,0.3125,0.42730712890625,-0.55096435546875,-0.48846435546875,-0.52471923828125,5.25,16.5625,-1.6875,9.76,0.4,-0.82,stop,1
9.4,608314.027367701,21,1,1,0,0,9.5,0.41,-0.81,-0.25,0.0,0.0,-3.625,2.0,0.5625,0.42724609375,-0.551025390625,-0.4881591796875,-0.52490234375,5.25,16.5625,-1.6875,9.76,0.4,-0.82,stop,1
9.41,608314.044770411,21,1,1,0,0,9.56,0.4,-0.88,-0.19,0.0,-0.06,-3.625,1.625,0.625,0.42718505859375,-0.55108642578125,-0.4879150390625,-0.525146484375,5.25,16.5625,-1.6875,9.76,0.4,-0.81,stop,1
9.42,608314.044770411,21,1,1,0,0,9.63,0.47,-0.84,-0.12,0.07,-0.03,-2.875,0.875,0.4375,0.42706298828125,-0.5511474609375,-0.48773193359375,-0.52532958984375,5.25,16.5625,-1.6875,9.76,0.4,-0.81,stop,1
9.43,608314.073295721,21,1,1,0,0,9.77,0.61,-0.67,0.0,0.2,0.13,-2.3125,0.125,0.25,0.42694091796875,-0.55120849609375,-0.4876708984375,-0.525390625,5.25,16.5625,-1.6875,9.76,0.4,-0.81,stop,1
9.44,608314.073295721,21,1,1,0,0,9.76,0.62,-0.74,0.0,0.21,0.07,-2.4375,-0.3125,0.125,0.42681884765625,-0.55126953125,-0.487548828125,-0.52557373046875,5.6875,16.5625,-2.0,9.76,0.41,-0.81,stop,1
9.45,608314.091118312,21,1,1,0,0,9.68,0.58,-0.8,-0.07,0.17,0.0,-2.625,0.75,-0.125,0.42669677734375,-0.55133056640625,-0.4874267578125,-0.52569580078125,5.6875,16.5625,-2.0,9.76,0.41,-0.81,stop,1
9.46,608314.091118312,21,1,1,0,0,9.6,0.57,-0.88,-0.15,0.16,-0.06,-2.625,1.9375,-0.6875,0.42657470703125,-0.55126953125,-0.4873046875,-0.5260009765625,5.6875,16.5625,-2.0,9.76,0.41,-0.81,stop,1
9.47,608314.102194524,21,1,1,0,0,9.57,0.52,-0.81,-0.18,0.1,-0.01,-3.375,1.75,-0.625,0.42645263671875,-0.55126953125,-0.48712158203125,-0.5262451171875,5.6875,16.5625,-2.0,9.76,0.41,-0.8,stop,1
9.48,608314.102194524,21,1,1,0,0,9.57,0.51,-0.73,-0.19,0.09,0.07,-3.5625,0.75,-0.625,0.42626953125,-0.55133056640625,-0.48699951171875,-0.5264892578125,5.6875,16.5625,-2.0,9.76,0.41,-0.8,stop,1
9.49,608314.13311229,21,1,1,0,0,9.51,0.53,-0.66,-0.24,0.11,0.14,-3.6875,-0.125,-0.4375,0.42608642578125,-0.55145263671875,-0.48681640625,-0.52667236328125,5.6875,17.0,-1.6875,9.76,0.42,-0.8,stop,1
9.5,608314.13311229,21,1,1,0,0,9.48,0.49,-0.62,-0.27,0.07,0.17,-4.5,-0.3125,-0.0625,0.42584228515625,-0.5516357421875,-0.48663330078125,-0.52691650390625,5.6875,17.0,-1.6875,9.76,0.42,-0.8,stop,1
9.51,608314.14746841,21,1,1,0,0,9.54,0.46,-0.58,-0.21,0.04,0.22,-5.5,-0.5,0.5625,0.42559814453125,-0.55181884765625,-0.486328125,-0.527099609375,5.6875,17.0,-1.6875,9.76,0.42,-0.8,stop,1
9.52,608314.14746841,21,1,1,0,0,9.57,0.42,-0.57,-0.19,0.0,0.22,-6.125,-0.5625,1.1875,0.42535400390625,-0.5521240234375,-0.48602294921875,-0.52728271484375,5.6875,17.0,-1.6875,9.76,0.42,-0.8,stop,1
9.53,608314.162761622,21,1,1,0,0,9.61,0.39,-0.6,-0.14,-0.02,0.19,-6.25,-0.3125,1.5625,0.42510986328125,-0.55242919921875,-0.48565673828125,-0.52752685546875,5.6875,17.0,-1.6875,9.76,0.41,-0.8,stop,1
9.54,608314.162761622,21,1,1,0,0,9.71,0.48,-0.57,-0.05,0.06,0.22,-5.3125,-0.5,1.75,0.4249267578125,-0.552734375,-0.48529052734375,-0.52764892578125,5.25,17.0,-2.75,9.76,0.41,-0.8,stop,1
9.55,608314.19308458,21,1,1,0,0,9.89,0.45,-0.57,0.12,0.03,0.22,-4.8125,-1.6875,2.4375,0.42474365234375,-0.55303955078125,-0.4849853515625,-0.52777099609375,5.25,17.0,-2.75,9.76,0.41,-0.8,stop,1
9.56,608314.19308458,21,1,1,0,0,9.89,0.45,-0.57,0.12,0.03,0.22,-4.8125,-1.6875,2.4375,0.42474365234375,-0.55303955078125,-0.4849853515625,-0.52777099609375,5.25,17.0,-2.75,9.76,0.41,-0.8,stop,1
9.57,608314.198652288,21,1,1,0,0,10.05,0.43,-0.65,0.28,0.02,0.15,-4.4375,-3.1875,2.875,0.424560546875,-0.553466796875,-0.48480224609375,-0.52764892578125,5.25,17.0,-2.75,9.76,0.4,-0.81,stop,1
9.57,608314.198652288,21,1,1,0,0,10.61,0.42,-0.78,0.84,0.01,0.03,-3.375,-3.6875,2.9375,0.42431640625,-0.55389404296875,-0.484619140625,-0.52752685546875,5.25,17.0,-2.75,9.76,0.4,-0.81,stop,1
9.58,608314.222671697,21,1,1,0,0,11.08,0.32,-0.88,1.31,-0.07,-0.05,-3.5,-5.3125,3.8125,0.42413330078125,-0.554443359375,-0.48443603515625,-0.52728271484375,5.25,17.0,-2.75,9.76,0.39,-0.82,stop,1
9.59,608314.222671697,21,1,1,0,0,11.56,0.33,-0.76,1.8,-0.06,0.07,-2.6875,-9.1875,4.5625,0.423828125,-0.55511474609375,-0.48443603515625,-0.52679443359375,5.6875,16.5625,-2.375,9.76,0.39,-0.84,stop,1
9.6,608314.236940049,21,1,1,0,0,12.02,0.4,-0.89,2.26,0.01,-0.02,0.0625,-11.5625,4.125,0.42352294921875,-0.55584716796875,-0.48468017578125,-0.52606201171875,5.6875,16.5625,-2.375,9.76,0.38,-0.86,stop,1
9.61,608314.236940049,21,1,1,0,0,12.86,0.62,-0.87,3.1,0.24,0.0,3.5,-12.25,3.25,0.42333984375,-0.556396484375,-0.48516845703125,-0.52520751953125,5.6875,16.5625,-2.375,9.75,0.37,-0.88,stop,1
9.62,608314.252456732,21,1,1,0,0,13.19,0.67,-0.64,3.43,0.3,0.26,3.125,-12.0,4.0,0.42315673828125,-0.5570068359375,-0.48553466796875,-0.52435302734375,5.6875,16.5625,-2.375,9.75,0.37,-0.9,stop,1
9.63,608314.252456732,21,1,1,0,0,13.55,0.54,-0.82,3.79,0.17,0.09,-0.8125,-13.25,5.375,0.42279052734375,-0.557861328125,-0.4857177734375,-0.5235595703125,5.6875,16.5625,-2.375,9.75,0.36,-0.92,stop,1
9.64,608314.283226426,21,1,1,0,0,13.58,0.45,-1.4,3.82,0.1,-0.46,1.0625,-8.625,3.875,0.42266845703125,-0.55841064453125,-0.48590087890625,-0.52294921875,6.75,16.5625,-2.375,9.75,0.35,-0.93,stop,1
9.65,608314.283226426,21,1,1,0,0,13.43,0.61,-1.43,3.68,0.25,-0.48,6.6875,-3.9375,0.4375,0.42279052734375,-0.558349609375,-0.486328125,-0.5224609375,6.75,16.5625,-2.375,9.75,0.35,-0.94,stop,1
9.66,608314.299201035,21,1,1,0,0,13.23,0.71,-1.42,3.47,0.35,-0.47,8.375,-0.875,-1.0625,0.42315673828125,-0.5579833984375,-0.48681640625,-0.5220947265625,6.75,16.5625,-2.375,9.75,0.35,-0.94,stop,1
9.67,608314.299201035,21,1,1,0,0,12.93,0.8,-1.38,3.18,0.45,-0.44,5.875,0.625,-1.375,0.42340087890625,-0.55767822265625,-0.48712158203125,-0.52191162109375,6.75,16.5625,-2.375,9.75,0.35,-0.94,stop,1
9.68,608314.313200506,21,1,1,0,0,11.93,0.78,-0.92,2.17,0.42,0.01,5.25,3.6875,-2.25,0.4237060546875,-0.5572509765625,-0.48736572265625,-0.52197265625,6.75,16.5625,-2.375,9.75,0.35,-0.94,stop,1
9.69,608314.313200506,21,1,1,0,0,11.07,0.8,-0.62,1.31,0.44,0.3,7.1875,10.0,-4.1875,0.42425537109375,-0.55633544921875,-0.48748779296875,-0.5223388671875,5.6875,17.0,-1.6875,9.75,0.36,-0.92,stop,1
9.7,608314.343777614,21,1,1,0,0,9.99,0.84,-0.45,0.23,0.46,0.43,12.3125,18.6875,-8.3125,0.42529296875,-0.5546875,-0.48779296875,-0.52301025390625,5.6875,17.0,-1.6875,9.75,0.37,-0.89,stop,1
9.71,608314.343777614,21,1,1,0,0,8.83,0.92,-0.55,-0.92,0.52,0.3,16.0,24.5,-11.75,0.42657470703125,-0.55242919921875,-0.4881591796875,-0.52398681640625,5.6875,17.0,-1.6875,9.76,0.39,-0.85,stop,1
9.72,608314.356961614,21,1,1,0,0,6.61,0.9,-0.88,-3.15,0.48,-0.07,15.25,27.6875,-13.1875,0.4278564453125,-0.550048828125,-0.48846435546875,-0.525146484375,5.6875,17.0,-1.6875,9.76,0.41,-0.8,stop,1
9.73,608314.356961614,21,1,1,0,0,5.74,0.79,-0.99,-4.02,0.35,-0.23,12.5625,31.6875,-13.375,0.42919921875,-0.54754638671875,-0.488525390625,-0.526611328125,5.6875,17.0,-1.6875,9.76,0.43,-0.75,stop,1
9.74,608314.371809026,21,1,1,0,0,4.93,0.57,-1.05,-4.83,0.11,-0.36,12.0625,35.8125,-13.625,0.4306640625,-0.54486083984375,-0.4884033203125,-0.5283203125,5.0,17.0,-1.25,9.77,0.45,-0.69,stop,1
9.75,608314.371809026,21,1,1,0,0,3.5,0.04,-1.18,-6.26,-0.43,-0.55,15.5,36.9375,-13.3125,0.432373046875,-0.5419921875,-0.48834228515625,-0.5299072265625,5.0,17.0,-1.25,9.77,0.47,-0.63,stop,1
9.76,608314.403815333,21,1,1,0,0,2.98,-0.1,-1.2,-6.78,-0.6,-0.63,20.25,37.5625,-13.625,0.434326171875,-0.53887939453125,-0.488525390625,-0.5313720703125,5.0,17.0,-1.25,9.77,0.5,-0.56,stop,1
9.77,608314.403815333,21,1,1,0,0,2.73,-0.17,-1.23,-7.04,-0.69,-0.72,21.9375,37.75,-13.5625,0.436279296875,-0.53570556640625,-0.48870849609375,-0.53271484375,5.0,17.0,-1.25,9.77,0.52,-0.5,stop,1
9.78,608314.417936061,21,1,1,0,0,2.67,-0.33,-1.15,-7.1,-0.87,-0.69,20.25,31.125,-12.5,0.43798828125,-0.532958984375,-0.48907470703125,-0.5338134765625,5.0,17.0,-1.25,9.78,0.54,-0.45,stop,1
9.79,608314.417936061,21,1,1,0,0,2.97,-0.09,-0.63,-6.8,-0.65,-0.2,16.1875,16.9375,-9.625,0.43902587890625,-0.5311279296875,-0.4896240234375,-0.53424072265625,4.5625,16.5625,-2.375,9.78,0.55,-0.42,stop,1
9.8,608314.43265359,21,1,1,0,0,3.23,0.21,-0.25,-6.54,-0.35,0.16,9.875,1.375,-4.75,0.4393310546875,-0.53045654296875,-0.490234375,-0.5340576171875,4.5625,16.5625,-2.375,9.78,0.56,-0.42,stop,1
9.81,608314.43265359,21,1,1,0,0,3.63,0.25,0.13,-6.14,-0.3,0.57,-2.3125,-10.8125,0.625,0.43878173828125,-0.5311279296875,-0.49053955078125,-0.53363037109375,4.5625,16.5625,-2.375,9.78,0.56,-0.44,stop,1
9.82,608314.452087469,21,1,1,0,0,3.63,0.25,0.13,-6.14,-0.3,0.57,-2.3125,-10.8125,0.625,0.43878173828125,-0.5311279296875,-0.49053955078125,-0.53363037109375,4.5625,16.5625,-2.375,9.78,0.56,-0.44,stop,1
9.83,608314.452087469,21,1,1,0,0,4.61,-0.06,0.27,-5.16,-0.61,0.75,-17.9375,-20.875,6.5625,0.43731689453125,-0.53302001953125,-0.49017333984375,-0.533203125,4.5625,16.5625,-2.375,9.77,0.55,-0.47,stop,1
9.83,608314.462715521,21,1,1,0,0,5.12,-0.38,0.11,-4.64,-0.92,0.64,-26.875,-30.0625,11.1875,0.435302734375,-0.53594970703125,-0.48956298828125,-0.53253173828125,4.5625,16.5625,-2.375,9.77,0.53,-0.52,stop,1
9.84,608314.462715521,21,1,1,0,0,5.56,-0.63,-0.14,-4.21,-1.15,0.43,-25.5,-33.6875,12.625,0.43328857421875,-0.53900146484375,-0.48907470703125,-0.53155517578125,5.0,16.1875,-2.0,9.77,0.51,-0.58,stop,1
9.85,608314.49364533,21,1,1,0,0,6.09,-0.57,-0.51,-3.68,-1.06,0.12,-21.0625,-35.75,15.1875,0.43145751953125,-0.5421142578125,-0.48870849609375,-0.5301513671875,5.0,16.1875,-2.0,9.77,0.49,-0.64,stop,1
9.86,608314.49364533,21,1,1,0,0,8.12,-0.11,-1.31,-1.64,-0.57,-0.58,-23.125,-52.3125,20.875,0.4290771484375,-0.54632568359375,-0.4886474609375,-0.52789306640625,5.0,16.1875,-2.0,9.76,0.46,-0.72,stop,1
9.87,608314.507318874,21,1,1,0,0,10.05,0.25,-0.44,0.29,-0.16,0.41,-27.625,-77.4375,28.125,0.42572021484375,-0.55206298828125,-0.4888916015625,-0.5242919921875,5.0,16.1875,-2.0,9.75,0.41,-0.85,stop,1
9.88,608314.507318874,21,1,1,0,0,12.33,0.29,0.01,2.59,-0.06,1.02,-43.5,-88.0,38.0625,0.421630859375,-0.559326171875,-0.48834228515625,-0.5205078125,5.0,16.1875,-2.0,9.74,0.35,-1.0,stop,1
9.89,608314.523812363,21,1,1,0,0,17.07,-0.98,-2.96,7.34,-1.27,-1.81,-59.75,-87.8125,47.9375,0.4171142578125,-0.5675048828125,-0.48651123046875,-0.5169677734375,5.25,17.0,-1.6875,9.73,0.28,-1.15,stop,1
9.9,608314.523812363,21,1,1,0,0,20.61,-0.82,-4.14,10.9,-1.04,-2.83,-32.4375,-93.0625,43.5625,0.41351318359375,-0.57470703125,-0.4862060546875,-0.51214599609375,5.25,17.0,-1.6875,9.71,0.22,-1.3,moving,1
9.91,608314.552987982,21,1,1,0,0,22.25,0.15,-5.94,12.55,-0.02,-4.52,28.1875,-68.4375,23.75,0.4130859375,-0.5777587890625,-0.48876953125,-0.50665283203125,5.25,17.0,-1.6875,9.7,0.17,-1.42,moving,1
9.92,608314.552987982,21,1,1,0,0,21.8,1.84,-2.35,12.11,1.69,-0.85,75.5,-42.0,4.0,0.415283203125,-0.57708740234375,-0.493408203125,-0.50115966796875,5.25,17.0,-1.6875,9.69,0.14,-1.49,moving,1
9.93,608314.568820989,21,1,1,0,0,21.26,1.42,-3.74,11.58,1.28,-2.18,63.875,-36.5625,-7.5,0.41656494140625,-0.57598876953125,-0.49786376953125,-0.496826171875,5.25,17.0,-1.6875,9.68,0.14,-1.56,moving,1
9.94,608314.568820989,21,1,1,0,0,19.38,-0.04,-3.26,9.71,-0.19,-1.64,36.125,-34.5625,-9.4375,0.41644287109375,-0.5758056640625,-0.50115966796875,-0.49383544921875,6.0625,16.5625,-1.25,9.67,0.15,-1.62,moving,1
9.95,608314.584577337,21,1,1,0,0,18.29,0.31,-1.48,8.62,0.14,0.13,25.4375,1.875,-15.5,0.41717529296875,-0.5740966796875,-0.50299072265625,-0.49334716796875,6.0625,16.5625,-1.25,9.67,0.17,-1.61,moving,1
9.97,608314.584577337,21,1,1,0,0,14.23,2.03,-1.97,4.55,1.83,-0.39,31.6875,23.8125,-20.5625,0.41888427734375,-0.57098388671875,-0.5045166015625,-0.493896484375,6.0625,16.5625,-1.25,9.67,0.19,-1.58,moving,1
9.97,608314.612743556,21,1,1,0,0,12.33,1.95,-1.86,2.64,1.71,-0.31,49.6875,21.9375,-32.1875,0.42095947265625,-0.56683349609375,-0.5074462890625,-0.4940185546875,6.0625,16.5625,-1.25,9.68,0.23,-1.54,moving,1
9.98,608314.612743556,21,1,1,0,0,10.41,1.75,-2.25,0.72,1.47,-0.75,41.875,31.625,-33.6875,0.4229736328125,-0.56243896484375,-0.509765625,-0.49493408203125,6.0625,16.5625,-1.25,9.68,0.28,-1.49,moving,1
9.99,608314.629118922,21,1,1,0,0,7.63,1.16,-2.89,-2.06,0.84,-1.5,2.3125,60.25,-23.125,0.42474365234375,-0.5587158203125,-0.50872802734375,-0.4986572265625,6.6875,16.5625,-2.0,9.7,0.32,-1.39,moving,1
10.0,608314.629118922,21,1,1,0,0,5.47,-0.01,-1.69,-4.24,-0.36,-0.4,-24.125,60.625,-12.3125,0.42572021484375,-0.556396484375,-0.50604248046875,-0.50311279296875,6.6875,16.5625,-2.0,9.71,0.34,-1.28,moving,1
10.01,608314.642519191,21,1,1,0,0,4.76,-0.15,-1.43,-4.95,-0.51,-0.23,-35.875,50.25,-4.75,0.42596435546875,-0.5552978515625,-0.5028076171875,-0.50732421875,6.6875,16.5625,-2.0,9.72,0.36,-1.2,moving,1
10.02,608314.642519191,21,1,1,0,0,4.17,-0.24,-0.89,-5.56,-0.62,0.21,-39.25,52.875,-5.5,0.42608642578125,-0.55419921875,-0.4993896484375,-0.51177978515625,6.6875,16.5625,-2.0,9.73,0.38,-1.1,moving,1
10.03,608314.675152248,21,1,1,0,0,3.64,-0.28,-0.38,-6.1,-0.68,0.62,-37.5,57.625,-9.6875,0.42633056640625,-0.55255126953125,-0.49603271484375,-0.51654052734375,6.6875,16.5625,-2.0,9.74,0.4,-1.0,moving,1
10.04,608314.675152248,21,1,1,0,0,2.97,-0.43,0.33,-6.77,-0.86,1.25,-37.375,51.9375,-12.8125,0.42620849609375,-0.551025390625,-0.4930419921875,-0.5211181640625,6.0,16.5625,-2.75,9.75,0.43,-0.91,moving,1
10.05,608314.6875775,21,1,1,0,0,2.65,-0.79,0.12,-7.1,-1.24,0.97,-39.375,38.8125,-10.0,0.425537109375,-0.55029296875,-0.49029541015625,-0.52508544921875,6.0,16.5625,-2.75,9.75,0.45,-0.84,moving,1
10.06,608314.6875775,21,1,1,0,0,2.6,-0.9,0.25,-7.15,-1.38,1.05,-38.8125,26.875,-7.8125,0.4244384765625,-0.5501708984375,-0.48785400390625,-0.5283203125,6.0,16.5625,-2.75,9.76,0.47,-0.79,moving,1
10.07,608314.704240749,21,1,1,0,0,2.46,-0.84,-0.06,-7.3,-1.33,0.68,-35.6875,25.9375,-5.625,0.423583984375,-0.550048828125,-0.48553466796875,-0.53125,6.0,16.5625,-2.75,9.76,0.48,-0.75,moving,1
10.08,608314.704240749,21,1,1,0,0,2.46,-0.84,-0.06,-7.3,-1.33,0.68,-35.6875,25.9375,-5.625,0.423583984375,-0.550048828125,-0.48553466796875,-0.53125,6.0,16.5625,-2.75,9.76,0.48,-0.75,moving,1
10.09,608314.718239976,21,1,1,0,0,2.49,-0.72,-0.56,-7.26,-1.22,0.14,-30.375,22.0625,-3.625,0.4228515625,-0.54998779296875,-0.4835205078125,-0.53375244140625,6.0,16.5625,-2.75,9.76,0.49,-0.71,moving,1
10.09,608314.718239976,21,1,1,0,0,3.02,-0.49,-0.01,-6.74,-0.99,0.67,-26.5,11.875,1.9375,0.42218017578125,-0.550537109375,-0.48175048828125,-0.53533935546875,4.875,17.0,-1.25,9.76,0.49,-0.68,moving,1
10.1,608314.732488348,21,1,1,0,0,3.62,-0.54,-0.08,-6.14,-1.02,0.6,-23.875,-4.375,9.0,0.4212646484375,-0.552001953125,-0.4803466796875,-0.53582763671875,4.875,17.0,-1.25,9.76,0.48,-0.69,moving,1
10.11,608314.732488348,21,1,1,0,0,4.93,-0.8,-0.56,-4.83,-1.27,0.16,-15.5625,-18.625,11.25,0.4202880859375,-0.55389404296875,-0.479736328125,-0.53515625,4.875,17.0,-1.25,9.76,0.46,-0.72,moving,1
10.12,608314.764118068,21,1,1,0,0,5.66,-0.66,-0.9,-4.09,-1.12,-0.14,15.1875,-21.375,6.5,0.42041015625,-0.55462646484375,-0.48095703125,-0.53326416015625,4.875,17.0,-1.25,9.76,0.45,-0.76,moving,1
10.13,608314.764118068,21,1,1,0,0,7.06,-0.23,-1.39,-2.69,-0.68,-0.56,38.8125,-38.6875,1.75,0.4207763671875,-0.5550537109375,-0.48406982421875,-0.5296630859375,4.875,17.0,-1.25,9.76,0.44,-0.83,moving,1
10.14,608314.777445745,21,1,1,0,0,12.31,0.59,-1.57,2.56,0.16,-0.62,46.625,-69.25,5.3125,0.42034912109375,-0.5567626953125,-0.48846435546875,-0.52410888671875,5.1875,16.5625,-0.5,9.75,0.43,-0.95,moving,1
10.15,608314.777445745,21,1,1,0,0,17.43,1.5,-0.45,7.7,1.11,0.68,41.5625,-107.375,17.75,0.4185791015625,-0.5609130859375,-0.49346923828125,-0.5164794921875,5.1875,16.5625,-0.5,9.73,0.39,-1.13,moving,1
10.16,608314.792856512,21,1,1,0,0,21.09,1.77,0.15,11.39,1.43,1.5,13.3125,-127.25,33.8125,0.41522216796875,-0.56756591796875,-0.49700927734375,-0.50836181640625,5.1875,16.5625,-0.5,9.7,0.33,-1.35,moving,1
10.17,608314.792856512,21,1,1,0,0,20.98,1.91,0.4,11.3,1.64,1.94,-10.3125,-108.4375,42.0625,0.411865234375,-0.57452392578125,-0.49835205078125,-0.50189208984375,5.1875,16.5625,-0.5,9.68,0.26,-1.53,moving,1
10.18,608314.824577988,21,1,1,0,0,17.62,1.29,-4.34,7.94,1.04,-2.77,46.0625,-14.1875,5.4375,0.413818359375,-0.57373046875,-0.5006103515625,-0.49896240234375,5.1875,16.5625,-0.5,9.67,0.24,-1.56,moving,1
10.19,608314.824577988,21,1,1,0,0,17.64,1.85,-3.73,7.96,1.57,-2.19,82.8125,14.3125,-37.125,0.41693115234375,-0.5684814453125,-0.50555419921875,-0.4974365234375,6.75,16.5625,-1.6875,9.68,0.28,-1.54,moving,1
10.2,608314.837847682,21,1,1,0,0,16.6,1.06,-5.7,6.92,0.75,-4.19,53.6875,18.8125,-23.125,0.41943359375,-0.564697265625,-0.50830078125,-0.496826171875,6.75,16.5625,-1.6875,9.68,0.3,-1.51,moving,1
10.21,608314.837847682,21,1,1,0,0,17.28,0.96,-4.07,7.6,0.63,-2.53,29.1875,-14.0625,-13.3125,0.419677734375,-0.56365966796875,-0.5107421875,-0.49530029296875,6.75,16.5625,-1.6875,9.67,0.32,-1.54,moving,1
10.22,608314.852949082,21,1,1,0,0,15.95,1.74,-2.36,6.27,1.4,-0.84,25.5,13.3125,-16.3125,0.4207763671875,-0.5614013671875,-0.51220703125,-0.49542236328125,6.75,16.5625,-1.6875,9.68,0.34,-1.51,moving,1
10.23,608314.852949082,21,1,1,0,0,14.74,2.37,-2.54,5.05,1.99,-1.08,31.5625,33.1875,-24.1875,0.42279052734375,-0.55767822265625,-0.51348876953125,-0.49652099609375,6.75,16.5625,-1.6875,9.68,0.37,-1.46,moving,1
10.24,608314.884123968,21,1,1,0,0,12.82,1.71,-2.1,3.12,1.29,-0.7,16.9375,40.5,-26.125,0.42425537109375,-0.55413818359375,-0.5140380859375,-0.49871826171875,6.0625,15.5,-2.75,9.69,0.41,-1.39,moving,1
10.25,608314.884123968,21,1,1,0,0,9.58,0.81,-1.39,-0.12,0.35,-0.08,0.625,52.1875,-23.6875,0.42559814453125,-0.55078125,-0.51324462890625,-0.5020751953125,6.0625,15.5,-2.75,9.7,0.45,-1.31,moving,1
10.26,608314.89773375,21,1,1,0,0,7.7,0.89,-1.23,-2.01,0.4,-0.03,-10.25,62.0,-14.4375,0.42724609375,-0.54779052734375,-0.51116943359375,-0.50604248046875,6.0625,15.5,-2.75,9.72,0.48,-1.2,moving,1
10.27,608314.89773375,21,1,1,0,0,6.46,0.72,-1.37,-3.26,0.23,-0.25,-33.5,46.4375,-3.6875,0.42755126953125,-0.54681396484375,-0.5081787109375,-0.5098876953125,6.0625,15.5,-2.75,9.72,0.49,-1.12,moving,1
10.28,608314.91221312,21,1,1,0,0,5.17,0.47,-1.52,-4.55,-0.02,-0.43,-46.625,21.0625,1.625,0.42633056640625,-0.54766845703125,-0.5052490234375,-0.51287841796875,6.0625,15.5,-2.75,9.73,0.5,-1.08,moving,1
10.29,608314.91221312,21,1,1,0,0,4.22,-0.15,-1.12,-5.5,-0.66,-0.02,-53.4375,-7.8125,3.6875,0.423583984375,-0.5501708984375,-0.5029296875,-0.51470947265625,5.25,16.5625,-1.25,9.73,0.5,-1.09,moving,1
10.3,608314.942857041,21,1,1,0,0,4.08,-0.4,-0.46,-5.64,-0.91,0.64,-51.3125,-16.0,2.9375,0.4205322265625,-0.55291748046875,-0.5010986328125,-0.51611328125,5.25,16.5625,-1.25,9.72,0.51,-1.11,moving,1
10.31,608314.942857041,21,1,1,0,0,3.85,-0.14,-0.24,-5.87,-0.66,0.87,-39.1875,-9.125,-0.4375,0.418212890625,-0.55474853515625,-0.4996337890625,-0.517333984375,5.25,16.5625,-1.25,9.72,0.51,-1.12,moving,1
10.32,608314.957402451,21,1,1,0,0,3.57,-0.87,0.83,-6.15,-1.4,1.98,-26.0625,-18.25,-1.625,0.41607666015625,-0.55645751953125,-0.49920654296875,-0.5177001953125,5.25,16.5625,-1.25,9.72,0.52,-1.15,moving,1
10.33,608314.957402451,21,1,1,0,0,3.21,-0.47,-0.9,-6.5,-1.0,0.27,-22.875,-13.5,-1.9375,0.414306640625,-0.55780029296875,-0.498779296875,-0.51806640625,5.25,16.5625,-1.25,9.72,0.53,-1.17,moving,1
10.34,608314.972479315,21,1,1,0,0,3.21,-0.47,-0.9,-6.5,-1.0,0.27,-22.875,-13.5,-1.9375,0.414306640625,-0.55780029296875,-0.498779296875,-0.51806640625,5.25,16.5625,-1.25,9.72,0.53,-1.17,moving,1
10.35,608314.972479315,21,1,1,0,0,2.55,-0.78,-0.29,-7.17,-1.32,0.87,-19.375,5.875,0.5,0.41357421875,-0.55828857421875,-0.4976806640625,-0.51922607421875,4.5625,16.1875,-3.1875,9.72,0.53,-1.16,moving,1
10.35,608314.987452053,21,1,1,0,0,3.08,-0.48,-0.28,-6.63,-1.02,0.86,-1.4375,6.6875,-3.5625,0.41363525390625,-0.557861328125,-0.49755859375,-0.51971435546875,4.5625,16.1875,-3.1875,9.72,0.54,-1.15,moving,1
10.36,608314.987452053,21,1,1,0,0,3.03,-0.01,0.24,-6.68,-0.57,1.38,10.75,13.3125,-7.0,0.4144287109375,-0.55657958984375,-0.4979248046875,-0.5201416015625,4.5625,16.1875,-3.1875,9.72,0.55,-1.13,moving,1
10.37,608315.002469549,21,1,1,0,0,2.75,0.01,-0.49,-6.96,-0.54,0.61,8.3125,11.3125,-5.8125,0.4150390625,-0.55548095703125,-0.4981689453125,-0.52056884765625,4.5625,16.1875,-3.1875,9.72,0.56,-1.11,moving,1
10.39,608315.002469549,21,1,1,0,0,3.51,-0.15,-0.12,-6.21,-0.72,0.98,4.3125,3.3125,-2.4375,0.415283203125,-0.5550537109375,-0.49835205078125,-0.5206298828125,4.5625,16.1875,-3.1875,9.72,0.56,-1.1,moving,1
10.39,608315.033984605,21,1,1,0,0,4.75,0.07,-0.17,-4.96,-0.48,0.94,5.125,-6.3125,2.0625,0.41534423828125,-0.55523681640625,-0.49871826171875,-0.52001953125,4.5625,17.0,-1.25,9.72,0.56,-1.11,moving,1
10.4,608315.033984605,21,1,1,0,0,5.65,0.25,-0.01,-4.07,-0.29,1.11,10.0,-8.0625,4.25,0.41571044921875,-0.55548095703125,-0.499267578125,-0.51904296875,4.5625,17.0,-1.25,9.72,0.55,-1.13,moving,1
10.41,608315.048651312,21,1,1,0,0,6.57,0.68,0.44,-3.14,0.14,1.59,17.0625,-8.8125,5.4375,0.4163818359375,-0.55548095703125,-0.5001220703125,-0.51763916015625,4.5625,17.0,-1.25,9.72,0.54,-1.15,moving,1
10.42,608315.048651312,21,1,1,0,0,7.96,0.77,1.34,-1.75,0.24,2.52,17.75,-17.3125,8.0,0.4168701171875,-0.55596923828125,-0.50115966796875,-0.5157470703125,4.5625,17.0,-1.25,9.72,0.52,-1.18,moving,1
10.43,608315.063051336,21,1,1,0,0,10.52,1.0,0.48,0.8,0.5,1.71,6.5,-26.375,12.9375,0.41656494140625,-0.5574951171875,-0.50177001953125,-0.51373291015625,4.5625,17.0,-1.25,9.71,0.5,-1.22,moving,1
10.44,608315.063051336,21,1,1,0,0,13.64,-0.33,-3.4,3.93,-0.81,-2.12,-10.125,-36.0625,18.3125,0.41534423828125,-0.56024169921875,-0.501708984375,-0.51171875,6.0,16.1875,-1.6875,9.71,0.47,-1.28,moving,1
10.45,608315.093883612,21,1,1,0,0,20.53,-2.58,-9.33,10.83,-3.0,-7.93,-22.25,-64.5625,30.375,0.41278076171875,-0.56524658203125,-0.5015869140625,-0.5084228515625,6.0,16.1875,-1.6875,9.69,0.42,-1.39,moving,1
10.47,608315.093883612,21,1,1,0,0,26.94,2.78,-1.98,17.28,2.43,-0.34,-9.8125,-145.3125,42.1875,0.40777587890625,-0.5738525390625,-0.5042724609375,-0.5001220703125,6.0,16.1875,-1.6875,9.66,0.35,-1.63,moving,1
10.48,608315.107666774,21,1,1,0,0,25.66,5.53,1.55,16.04,5.23,3.41,73.625,-125.8125,25.1875,0.406982421875,-0.57781982421875,-0.5106201171875,-0.4896240234375,6.0,16.1875,-1.6875,9.62,0.29,-1.85,moving,1
10.48,608315.107666774,21,1,1,0,0,23.76,5.24,-3.16,14.14,4.94,-1.26,123.875,-22.0625,-33.25,0.4107666015625,-0.57281494140625,-0.51837158203125,-0.48419189453125,6.0,16.1875,-1.6875,9.61,0.3,-1.89,moving,1
10.49,608315.123904445,21,1,1,0,0,20.46,1.69,-4.67,10.85,1.33,-2.76,76.4375,-2.9375,-45.1875,0.41253662109375,-0.56817626953125,-0.52392578125,-0.482177734375,5.25,17.0,-1.25,9.61,0.35,-1.9,moving,1
10.5,608315.123904445,21,1,1,0,0,19.94,3.01,-1.51,10.32,2.62,0.36,33.8125,16.4375,-23.125,0.41400146484375,-0.565185546875,-0.52593994140625,-0.4822998046875,5.25,17.0,-1.25,9.61,0.38,-1.88,moving,1
10.51,608315.158512925,21,1,1,0,0,14.89,1.79,-3.01,5.26,1.38,-1.22,8.125,52.625,-17.75,0.41607666015625,-0.56182861328125,-0.52520751953125,-0.48516845703125,5.25,17.0,-1.25,9.63,0.41,-1.79,moving,1
10.52,608315.158512925,21,1,1,0,0,15.09,1.82,-0.66,5.44,1.37,1.03,6.5625,57.5625,-24.125,0.41796875,-0.55804443359375,-0.52459716796875,-0.488525390625,5.25,17.0,-1.25,9.64,0.45,-1.69,moving,1
10.53,608315.167638698,21,1,1,0,0,12.75,1.87,-2.54,3.09,1.39,-0.92,-11.875,46.4375,-15.5,0.41888427734375,-0.5557861328125,-0.52313232421875,-0.491943359375,5.25,17.0,-1.25,9.66,0.48,-1.61,moving,1
10.55,608315.167638698,21,1,1,0,0,7.48,0.48,-2.56,-2.19,-0.01,-1.09,-47.125,82.4375,-3.0625,0.420166015625,-0.55377197265625,-0.51824951171875,-0.4981689453125,5.0,16.1875,-2.0,9.68,0.49,-1.47,moving,1
10.56,608315.183927476,21,1,1,0,0,5.98,0.28,-2.23,-3.72,-0.23,-0.94,-46.75,108.0625,-4.25,0.422607421875,-0.550537109375,-0.512451171875,-0.50567626953125,5.0,16.1875,-2.0,9.7,0.51,-1.28,moving,1
10.56,608315.183927476,21,1,1,0,0,5.57,-0.15,-1.27,-4.15,-0.68,-0.13,-44.1875,86.75,-4.375,0.42413330078125,-0.54815673828125,-0.50750732421875,-0.511962890625,5.0,16.1875,-2.0,9.72,0.53,-1.13,moving,1
10.57,608315.212394842,21,1,1,0,0,4.4,0.03,-0.41,-5.33,-0.49,0.62,-50.4375,55.1875,9.9375,0.42462158203125,-0.5479736328125,-0.502685546875,-0.5164794921875,5.0,16.1875,-2.0,9.73,0.52,-1.03,moving,1
10.58,608315.212394842,21,1,1,0,0,4.24,0.03,0.24,-5.49,-0.48,1.2,-40.5625,41.25,11.625,0.42498779296875,-0.548095703125,-0.498779296875,-0.519775390625,5.0,16.1875,-2.0,9.74,0.51,-0.96,moving,1
10.59,608315.22833694,21,1,1,0,0,4.03,0.12,0.31,-5.71,-0.39,1.19,-28.375,49.5625,-0.3125,0.42578125,-0.546875,-0.49566650390625,-0.52337646484375,5.1875,16.1875,-1.6875,9.75,0.52,-0.87,moving,1
10.6,608315.22833694,21,1,1,0,0,4.03,0.12,0.31,-5.71,-0.39,1.19,-28.375,49.5625,-0.3125,0.42578125,-0.546875,-0.49566650390625,-0.52337646484375,5.1875,16.1875,-1.6875,9.75,0.52,-0.87,moving,1
10.61,608315.24412112,21,1,1,0,0,3.5,0.25,0.79,-6.25,-0.27,1.59,-34.4375,44.9375,-2.125,0.42596435546875,-0.5460205078125,-0.49249267578125,-0.527099609375,5.1875,16.1875,-1.6875,9.75,0.52,-0.79,moving,1
10.61,608315.24412112,21,1,1,0,0,2.95,-0.32,-0.45,-6.8,-0.85,0.28,-52.0,34.875,2.5625,0.42510986328125,-0.54644775390625,-0.48870849609375,-0.5308837890625,5.1875,16.1875,-1.6875,9.76,0.53,-0.73,moving,1
10.62,608315.257203517,21,1,1,0,0,2.94,-0.51,-0.93,-6.82,-1.05,-0.23,-45.5,13.4375,-0.625,0.4234619140625,-0.54742431640625,-0.48614501953125,-0.53350830078125,5.1875,16.1875,-1.6875,9.76,0.53,-0.7,moving,1
10.64,608315.257203517,21,1,1,0,0,3.04,-0.33,-0.55,-6.72,-0.88,0.17,-14.25,-10.6875,-2.75,0.42218017578125,-0.54833984375,-0.48602294921875,-0.53369140625,5.1875,16.1875,-1.6875,9.76,0.54,-0.72,moving,1
10.64,608315.27270014,21,1,1,0,0,3.67,0.63,0.21,-6.08,0.07,0.98,12.25,-27.5625,-5.75,0.42132568359375,-0.5489501953125,-0.48785400390625,-0.5321044921875,6.0,16.5625,-0.5,9.76,0.55,-0.77,moving,1
10.65,608315.27270014,21,1,1,0,0,3.5,0.51,0.26,-6.24,-0.04,1.08,6.625,-28.9375,-2.625,0.4202880859375,-0.5499267578125,-0.4893798828125,-0.530517578125,6.0,16.5625,-0.5,9.75,0.55,-0.82,moving,1
10.66,608315.304203192,21,1,1,0,0,3.11,0.25,0.18,-6.64,-0.29,1.04,-1.4375,-22.1875,4.375,0.41949462890625,-0.5511474609375,-0.4898681640625,-0.52935791015625,6.0,16.5625,-0.5,9.75,0.55,-0.85,moving,1
10.67,608315.304203192,21,1,1,0,0,3.34,0.09,0.21,-6.4,-0.45,1.1,7.875,-17.9375,0.6875,0.41912841796875,-0.5517578125,-0.49090576171875,-0.52813720703125,6.0,16.5625,-0.5,9.75,0.54,-0.89,moving,1
10.68,608315.317621201,21,1,1,0,0,4.09,-0.18,-1.0,-5.65,-0.73,-0.06,22.625,-25.9375,-2.1875,0.41900634765625,-0.552001953125,-0.49298095703125,-0.5260009765625,6.0,16.5625,-0.5,9.74,0.54,-0.93,moving,1
10.69,608315.317621201,21,1,1,0,0,5.86,-0.08,-0.69,-3.87,-0.63,0.31,29.25,-38.4375,-2.6875,0.41864013671875,-0.55255126953125,-0.495849609375,-0.52301025390625,4.875,15.875,-0.5,9.73,0.54,-1.0,moving,1
10.7,608315.33201614,21,1,1,0,0,6.21,-0.21,-2.67,-3.51,-0.74,-1.61,18.6875,-34.25,5.75,0.4183349609375,-0.5537109375,-0.4976806640625,-0.52032470703125,4.875,15.875,-0.5,9.73,0.53,-1.06,moving,1
10.71,608315.33201614,21,1,1,0,0,12.13,-0.91,-4.23,2.41,-1.43,-3.08,16.125,-49.625,9.0625,0.4173583984375,-0.55572509765625,-0.499755859375,-0.51690673828125,4.875,15.875,-0.5,9.72,0.51,-1.14,moving,1
10.73,608315.363725246,21,1,1,0,0,15.81,-0.14,-5.08,6.1,-0.63,-3.8,17.375,-77.5625,10.75,0.415283203125,-0.55908203125,-0.50286865234375,-0.511962890625,4.875,15.875,-0.5,9.7,0.49,-1.28,moving,1
10.73,608315.363725246,21,1,1,0,0,20.68,1.2,-2.38,10.99,0.74,-0.92,9.0625,-106.5625,21.0625,0.4119873046875,-0.56439208984375,-0.506103515625,-0.505615234375,4.875,15.875,-0.5,9.68,0.45,-1.46,moving,1
10.74,608315.378487779,21,1,1,0,0,22.5,2.87,2.35,12.84,2.47,3.99,-20.0625,-105.6875,37.75,0.407958984375,-0.5714111328125,-0.507080078125,-0.49993896484375,5.5625,16.1875,-0.1875,9.66,0.4,-1.64,moving,1
10.75,608315.378487779,21,1,1,0,0,20.09,0.61,-5.27,10.44,0.26,-3.53,-21.4375,-61.3125,35.625,0.40570068359375,-0.576416015625,-0.506591796875,-0.49652099609375,5.5625,16.1875,-0.1875,9.64,0.34,-1.74,moving,1
10.76,608315.392231431,21,1,1,0,0,18.49,1.52,-5.08,8.85,1.18,-3.34,38.125,4.0,0.5625,0.4078369140625,-0.57489013671875,-0.508056640625,-0.49505615234375,5.5625,16.1875,-0.1875,9.64,0.33,-1.73,moving,1
10.77,608315.392231431,21,1,1,0,0,17.95,0.95,-3.96,8.3,0.6,-2.21,72.1875,-5.8125,-22.9375,0.41021728515625,-0.571533203125,-0.51251220703125,-0.49237060546875,5.5625,16.1875,-0.1875,9.64,0.35,-1.75,moving,1
10.78,608315.423444159,21,1,1,0,0,17.81,1.41,-4.27,8.18,1.06,-2.43,35.3125,-46.375,-7.625,0.4095458984375,-0.5718994140625,-0.51605224609375,-0.48870849609375,5.5625,16.1875,-0.1875,9.62,0.35,-1.83,moving,1
10.79,608315.423444159,21,1,1,0,0,14.87,0.51,-4.11,5.26,0.17,-2.22,-13.0,-38.1875,6.125,0.40740966796875,-0.57427978515625,-0.5166015625,-0.4871826171875,6.25,16.5625,-1.25,9.61,0.34,-1.89,moving,1
10.81,608315.43744656,21,1,1,0,0,15.2,1.42,-1.73,5.58,1.07,0.14,-9.4375,11.4375,-3.625,0.40728759765625,-0.573974609375,-0.51593017578125,-0.48828125,6.25,16.5625,-1.25,9.61,0.35,-1.87,moving,1
10.81,608315.43744656,21,1,1,0,0,13.2,1.47,-2.56,3.58,1.09,-0.69,20.3125,9.125,-17.9375,0.407958984375,-0.572021484375,-0.51739501953125,-0.48846435546875,6.25,16.5625,-1.25,9.62,0.37,-1.86,moving,1
10.82,608315.452075181,21,1,1,0,0,9.49,0.71,-1.91,-0.13,0.3,-0.09,19.625,27.1875,-21.1875,0.40924072265625,-0.5692138671875,-0.518310546875,-0.48974609375,6.25,16.5625,-1.25,9.62,0.4,-1.81,moving,1
10.83,608315.452075181,21,1,1,0,0,7.7,0.63,-1.76,-1.93,0.19,-0.02,8.0,47.0,-19.3125,0.41094970703125,-0.5660400390625,-0.5179443359375,-0.49237060546875,6.25,16.5625,-1.25,9.64,0.43,-1.73,moving,1
10.84,608315.468209377,21,1,1,0,0,6.81,0.26,-1.11,-2.84,-0.2,0.54,2.25,50.375,-17.25,0.41259765625,-0.56298828125,-0.51708984375,-0.495361328125,6.25,15.5,-2.75,9.65,0.46,-1.65,moving,1
10.85,608315.468209377,21,1,1,0,0,6.81,0.26,-1.11,-2.84,-0.2,0.54,2.25,50.375,-17.25,0.41259765625,-0.56298828125,-0.51708984375,-0.495361328125,6.25,15.5,-2.75,9.65,0.46,-1.65,moving,1
10.86,608315.483086289,21,1,1,0,0,5.78,0.21,-1.16,-3.87,-0.27,0.41,-2.75,44.0625,-12.375,0.41387939453125,-0.5606689453125,-0.5159912109375,-0.49810791015625,6.25,15.5,-2.75,9.66,0.48,-1.58,moving,1
10.87,608315.483086289,21,1,1,0,0,4.39,0.2,-0.79,-5.27,-0.3,0.71,-6.125,38.125,-7.6875,0.41497802734375,-0.558837890625,-0.51470947265625,-0.50054931640625,6.25,15.5,-2.75,9.67,0.5,-1.51,moving,1
10.87,608315.512289414,21,1,1,0,0,3.5,0.04,-0.81,-6.17,-0.47,0.63,-8.6875,39.3125,-8.3125,0.41595458984375,-0.55706787109375,-0.5133056640625,-0.503173828125,6.25,15.5,-2.75,9.68,0.52,-1.44,moving,1
10.89,608315.512289414,21,1,1,0,0,3.16,-0.25,-0.59,-6.53,-0.79,0.79,-20.8125,33.125,-3.8125,0.416259765625,-0.55621337890625,-0.51141357421875,-0.505859375,6.25,15.5,-2.75,9.69,0.53,-1.39,moving,1
10.89,608315.526734483,21,1,1,0,0,2.64,-0.71,-0.65,-7.05,-1.25,0.68,-28.9375,28.875,1.5,0.41619873046875,-0.5560302734375,-0.50897216796875,-0.50848388671875,5.5625,16.1875,0.1875,9.69,0.53,-1.33,moving,1
10.9,608315.526734483,21,1,1,0,0,2.15,-0.87,-0.73,-7.54,-1.4,0.56,-25.0625,22.5625,5.625,0.41619873046875,-0.55621337890625,-0.50677490234375,-0.510498046875,5.5625,16.1875,0.1875,9.7,0.53,-1.29,moving,1
10.91,608315.543649644,21,1,1,0,0,2.26,-0.89,-0.97,-7.45,-1.42,0.27,-14.3125,25.3125,3.125,0.416748046875,-0.55572509765625,-0.50506591796875,-0.51220703125,5.5625,16.1875,0.1875,9.71,0.53,-1.25,moving,1
10.92,608315.543649644,21,1,1,0,0,2.24,-1.01,-1.19,-7.47,-1.55,0.02,-5.5,23.875,-3.4375,0.41741943359375,-0.5546875,-0.504150390625,-0.51373291015625,5.5625,16.1875,0.1875,9.71,0.53,-1.21,moving,1
10.93,608315.572879177,21,1,1,0,0,2.23,-0.67,-1.52,-7.48,-1.21,-0.34,1.375,19.6875,-2.3125,0.418212890625,-0.55364990234375,-0.50360107421875,-0.51470947265625,5.5625,16.1875,0.1875,9.72,0.54,-1.17,moving,1
10.95,608315.572879177,21,1,1,0,0,2.61,-0.72,-1.32,-7.1,-1.26,-0.16,3.6875,8.75,-1.9375,0.418701171875,-0.55303955078125,-0.5035400390625,-0.51507568359375,5.5625,16.1875,-1.25,9.72,0.54,-1.16,moving,1
10.96,608315.604449815,21,1,1,0,0,3.34,-0.42,-1.01,-6.37,-0.96,0.15,10.6875,-3.625,1.75,0.41912841796875,-0.55291748046875,-0.50408935546875,-0.51434326171875,5.5625,16.1875,-1.25,9.72,0.54,-1.17,moving,1
10.96,608315.604449815,21,1,1,0,0,4.7,-0.34,-0.72,-5.01,-0.87,0.46,15.4375,-12.625,5.6875,0.4195556640625,-0.55316162109375,-0.50494384765625,-0.5128173828125,5.5625,16.1875,-1.25,9.71,0.52,-1.19,moving,1
10.98,608315.60901321,21,1,1,0,0,5.45,-0.19,-1.03,-4.26,-0.71,0.16,14.5,-2.625,5.5625,0.42041015625,-0.552978515625,-0.50543212890625,-0.5118408203125,5.5625,16.1875,-1.25,9.71,0.51,-1.2,moving,1
10.98,608315.60901321,21,1,1,0,0,6.59,0.0,-1.17,-3.12,-0.48,0.01,12.8125,4.625,9.4375,0.421630859375,-0.552734375,-0.50537109375,-0.51116943359375,5.5625,16.1875,-1.25,9.72,0.49,-1.19,moving,1
