timestamp,android_nano_timestamp,temperature,calib_mag,calib_accel,calib_gyro,calib_sys,acc_x,acc_y,acc_z,lacc_x,lacc_y,lacc_z,gyro_x,gyro_y,gyro_z,quat_w,quat_x,quat_y,quat_z,mag_x,mag_y,mag_z,gravity_x,gravity_y,gravity_z,label,person
5.49,27763.621374192,22,3,3,3,3,9.54,-0.21,-0.04,-0.25,0.29,0.0,2.1875,-3.3125,0.5625,0.31341552734375,-0.650634765625,-0.28204345703125,-0.631591796875,-30.1875,-17.0625,20.875,9.79,-0.5,-0.05,moving,10
5.5,27763.621374192,22,3,3,3,3,9.36,-0.36,0.04,-0.42,0.13,0.1,0.4375,-4.0625,0.25,0.3133544921875,-0.65087890625,-0.2821044921875,-0.63134765625,-30.1875,-17.0625,20.875,9.79,-0.5,-0.06,moving,10
5.51,27763.649783616,22,3,3,3,3,9.27,-0.43,0.13,-0.51,0.07,0.2,-1.0,-5.625,0.0,0.3131103515625,-0.65118408203125,-0.2822265625,-0.63104248046875,-30.1875,-17.0625,20.875,9.79,-0.5,-0.07,moving,10
5.52,27763.649783616,22,3,3,3,3,9.19,-0.44,0.13,-0.6,0.06,0.22,-2.125,-8.625,-0.125,0.31280517578125,-0.6517333984375,-0.2823486328125,-0.630615234375,-30.1875,-17.0625,20.875,9.79,-0.5,-0.08,moving,10
5.53,27763.664477301,22,3,3,3,3,9.24,-0.35,-0.06,-0.55,0.15,0.04,-3.6875,-14.0625,-0.625,0.31219482421875,-0.652587890625,-0.2825927734375,-0.62994384765625,-30.1875,-17.0625,20.875,9.79,-0.5,-0.11,moving,10
5.54,27763.664477301,22,3,3,3,3,9.28,-0.28,-0.31,-0.5,0.22,-0.16,-5.6875,-21.0,-1.3125,0.311279296875,-0.65386962890625,-0.28289794921875,-0.62890625,-30.1875,-17.0625,21.25,9.79,-0.5,-0.14,moving,10
5.55,27763.678378139,22,3,3,3,3,9.3,-0.16,-0.63,-0.48,0.33,-0.44,-8.5,-25.1875,-2.375,0.31005859375,-0.6553955078125,-0.28326416015625,-0.62774658203125,-30.1875,-17.0625,21.25,9.79,-0.49,-0.19,moving,10
5.56,27763.678378139,22,3,3,3,3,9.31,-0.17,-0.88,-0.47,0.32,-0.63,-11.0625,-28.5625,-3.3125,0.30853271484375,-0.65716552734375,-0.28363037109375,-0.62646484375,-30.1875,-17.0625,21.25,9.79,-0.49,-0.24,moving,10
5.57,27763.704193894,22,3,3,3,3,9.47,-0.14,-1.31,-0.32,0.33,-1.01,-13.0625,-32.0625,-4.625,0.30670166015625,-0.6591796875,-0.2840576171875,-0.62506103515625,-30.1875,-17.0625,21.25,9.79,-0.48,-0.29,moving,10
5.58,27763.704193894,22,3,3,3,3,9.72,-0.07,-1.4,-0.06,0.39,-1.04,-14.125,-35.6875,-6.375,0.30462646484375,-0.66131591796875,-0.28460693359375,-0.62353515625,-30.1875,-17.0625,21.25,9.78,-0.47,-0.36,moving,10
5.59,27763.718608648,22,3,3,3,3,10.03,-0.09,-1.43,0.24,0.35,-1.0,-13.5,-38.8125,-10.625,0.30230712890625,-0.66357421875,-0.2855224609375,-0.6219482421875,-29.875,-17.0625,22.375,9.78,-0.45,-0.42,moving,10
5.6,27763.718608648,22,3,3,3,3,10.71,-0.06,-1.26,0.93,0.37,-0.77,-13.5,-38.8125,-10.625,0.29998779296875,-0.665771484375,-0.286376953125,-0.62030029296875,-29.875,-17.0625,22.375,9.78,-0.43,-0.49,moving,10
5.61,27763.735197638,22,3,3,3,3,10.89,-0.1,-1.03,1.11,0.3,-0.48,-15.3125,-32.4375,-13.3125,0.29754638671875,-0.66754150390625,-0.28717041015625,-0.619140625,-29.875,-17.0625,22.375,9.78,-0.4,-0.55,moving,10
5.62,27763.735197638,22,3,3,3,3,10.78,-0.24,-0.72,1.0,0.13,-0.14,-17.9375,-19.8125,-16.3125,0.29510498046875,-0.668701171875,-0.2877197265625,-0.61883544921875,-29.875,-17.0625,22.375,9.78,-0.37,-0.58,moving,10
5.63,27763.753860886,22,3,3,3,3,10.55,-0.36,-0.5,0.77,-0.02,0.08,-17.625,-4.75,-20.0625,0.29290771484375,-0.66888427734375,-0.28802490234375,-0.6195068359375,-29.875,-17.0625,22.375,9.78,-0.34,-0.59,moving,10
5.64,27763.753860886,22,3,3,3,3,10.27,-0.43,-0.29,0.49,-0.14,0.3,0.9375,0.0625,-29.8125,0.291259765625,-0.66815185546875,-0.289794921875,-0.62030029296875,-28.75,-17.0625,22.0,9.78,-0.29,-0.59,moving,10
5.65,27763.779309128,22,3,3,3,3,10.26,-0.4,-0.2,0.47,-0.16,0.39,0.9375,0.0625,-29.8125,0.2896728515625,-0.6673583984375,-0.29156494140625,-0.62103271484375,-28.75,-17.0625,22.0,9.78,-0.24,-0.59,moving,10
5.66,27763.779309128,22,3,3,3,3,10.28,-0.31,-0.27,0.5,-0.13,0.33,13.75,-8.25,-34.5,0.28839111328125,-0.6666259765625,-0.2945556640625,-0.62103271484375,-28.75,-17.0625,22.0,9.78,-0.18,-0.61,moving,10
5.67,27763.793984096,22,3,3,3,3,10.18,-0.17,-0.3,0.39,-0.06,0.32,19.75,-7.625,-40.75,0.28717041015625,-0.66546630859375,-0.29815673828125,-0.62115478515625,-28.75,-17.0625,22.0,9.78,-0.11,-0.62,moving,10
5.68,27763.793984096,22,3,3,3,3,9.65,0.02,-0.45,-0.13,0.06,0.17,16.5,0.3125,-43.1875,0.2857666015625,-0.6639404296875,-0.30157470703125,-0.62176513671875,-28.75,-17.0625,22.0,9.78,-0.04,-0.62,moving,10
5.69,27763.824710699,22,3,3,3,3,9.31,0.15,-0.49,-0.47,0.12,0.11,14.0625,2.75,-44.875,0.28424072265625,-0.6622314453125,-0.30487060546875,-0.6226806640625,-28.0625,-17.75,23.0625,9.78,0.03,-0.61,moving,10
5.7,27763.824710699,22,3,3,3,3,9.08,0.24,-0.55,-0.69,0.13,0.06,12.4375,-2.375,-46.6875,0.2823486328125,-0.6607666015625,-0.308349609375,-0.62335205078125,-28.0625,-17.75,23.0625,9.78,0.11,-0.62,moving,10
5.71,27763.844826015,22,3,3,3,3,8.95,0.47,-0.56,-0.82,0.28,0.07,9.875,-10.875,-47.9375,0.280029296875,-0.65985107421875,-0.3118896484375,-0.6236572265625,-28.0625,-17.75,23.0625,9.78,0.19,-0.64,moving,10
5.72,27763.844826015,22,3,3,3,3,8.95,0.48,-0.54,-0.82,0.21,0.12,5.1875,-16.8125,-49.75,0.27716064453125,-0.6593017578125,-0.3154296875,-0.62371826171875,-28.0625,-17.75,23.0625,9.77,0.27,-0.66,moving,10
5.73,27763.853657843,22,3,3,3,3,8.88,0.4,-0.63,-0.88,0.04,0.06,0.625,-18.0625,-51.3125,0.27386474609375,-0.6588134765625,-0.31890869140625,-0.6239013671875,-28.0625,-17.75,23.0625,9.77,0.36,-0.7,moving,10
5.74,27763.853657843,22,3,3,3,3,8.71,0.36,-0.79,-1.05,-0.08,-0.06,-2.625,-17.125,-52.75,0.27032470703125,-0.65838623046875,-0.3221435546875,-0.624267578125,-27.6875,-18.5625,22.75,9.76,0.45,-0.72,moving,10
5.75,27763.884158372,22,3,3,3,3,8.14,0.49,-1.08,-1.61,-0.05,-0.32,-3.875,-18.3125,-54.1875,0.2666015625,-0.65789794921875,-0.325439453125,-0.62457275390625,-27.6875,-18.5625,22.75,9.76,0.54,-0.76,moving,10
5.76,27763.884158372,22,3,3,3,3,7.98,0.51,-1.1,-1.77,-0.12,-0.3,-3.5,-23.8125,-56.125,0.2626953125,-0.65771484375,-0.32904052734375,-0.6246337890625,-27.6875,-18.5625,22.75,9.75,0.64,-0.8,moving,10
5.77,27763.898373175,22,3,3,3,3,8.0,0.43,-1.04,-1.73,-0.3,-0.19,-1.1875,-30.75,-57.5,0.25860595703125,-0.65777587890625,-0.3330078125,-0.62420654296875,-27.6875,-18.5625,22.75,9.74,0.74,-0.85,moving,10
5.78,27763.898373175,22,3,3,3,3,8.57,0.54,-0.94,-1.15,-0.29,-0.02,2.75,-35.5,-58.5625,0.2545166015625,-0.65789794921875,-0.3372802734375,-0.6234130859375,-27.6875,-18.5625,22.75,9.72,0.83,-0.91,moving,10
5.79,27763.91519544,22,3,3,3,3,8.9,0.66,-0.94,-0.8,-0.27,0.03,6.625,-37.5625,-58.9375,0.25042724609375,-0.65814208984375,-0.34173583984375,-0.62237548828125,-25.875,-20.6875,23.875,9.71,0.93,-0.97,moving,10
5.8,27763.91519544,22,3,3,3,3,9.13,0.82,-0.96,-0.56,-0.2,0.08,6.875,-37.75,-58.0,0.24652099609375,-0.6583251953125,-0.34625244140625,-0.62127685546875,-25.875,-20.6875,23.875,9.69,1.03,-1.04,moving,10
5.81,27763.944080003,22,3,3,3,3,9.35,0.96,-1.06,-0.32,-0.16,0.04,3.4375,-36.9375,-56.125,0.2425537109375,-0.65850830078125,-0.3504638671875,-0.6202392578125,-25.875,-20.6875,23.875,9.67,1.13,-1.1,moving,10
5.82,27763.944080003,22,3,3,3,3,9.92,1.09,-1.18,0.26,-0.12,-0.02,-2.875,-35.4375,-53.4375,0.2384033203125,-0.65887451171875,-0.3541259765625,-0.619384765625,-25.875,-20.6875,23.875,9.66,1.22,-1.16,moving,10
5.83,27763.959115729,22,3,3,3,3,10.17,1.13,-1.17,0.53,-0.17,0.04,-8.5,-32.0625,-50.6875,0.23419189453125,-0.6591796875,-0.35723876953125,-0.618896484375,-25.875,-20.6875,23.875,9.64,1.3,-1.21,moving,10
5.84,27763.959115729,22,3,3,3,3,10.44,1.19,-0.98,0.82,-0.19,0.27,-11.625,-25.0625,-48.375,0.2301025390625,-0.6593017578125,-0.35986328125,-0.6187744140625,-24.375,-21.5,24.5625,9.62,1.39,-1.25,moving,10
5.85,27763.973792039,22,3,3,3,3,10.53,1.31,-0.72,0.92,-0.15,0.55,-13.5,-15.0,-45.9375,0.22637939453125,-0.658935546875,-0.362060546875,-0.6192626953125,-24.375,-21.5,24.5625,9.61,1.47,-1.28,moving,10
5.86,27763.973792039,22,3,3,3,3,10.59,1.51,-0.5,0.99,-0.02,0.78,-14.625,-7.9375,-43.4375,0.222900390625,-0.65826416015625,-0.36395263671875,-0.6201171875,-24.375,-21.5,24.5625,9.59,1.54,-1.28,moving,10
5.87,27764.011157232,22,3,3,3,3,10.73,1.59,-0.63,1.14,-0.02,0.65,-13.0625,-4.4375,-40.75,0.2198486328125,-0.657470703125,-0.36566162109375,-0.62109375,-24.375,-21.5,24.5625,9.58,1.61,-1.29,moving,10
5.88,27764.011157232,22,3,3,3,3,10.7,1.53,-0.98,1.12,-0.15,0.32,-4.5625,-5.9375,-38.9375,0.21722412109375,-0.6566162109375,-0.36773681640625,-0.62164306640625,-24.375,-21.5,24.5625,9.57,1.68,-1.3,moving,10
5.89,27764.019669114,22,3,3,3,3,10.72,1.73,-1.77,1.17,-0.01,-0.45,4.625,-11.9375,-36.6875,0.21441650390625,-0.65643310546875,-0.36962890625,-0.6217041015625,-23.25,-22.875,23.875,9.55,1.74,-1.32,moving,10
5.9,27764.019669114,22,3,3,3,3,10.71,1.74,-2.13,1.17,-0.05,-0.78,6.25,-16.0,-33.0625,0.21246337890625,-0.65606689453125,-0.37213134765625,-0.6212158203125,-23.25,-22.875,23.875,9.54,1.79,-1.35,moving,10
5.91,27764.033681199,22,3,3,3,3,10.83,1.65,-2.27,1.3,-0.18,-0.89,-0.625,-14.75,-28.125,0.21044921875,-0.656005859375,-0.37396240234375,-0.62091064453125,-23.25,-22.875,23.875,9.53,1.84,-1.37,moving,10
5.92,27764.033681199,22,3,3,3,3,10.9,1.54,-2.08,1.38,-0.34,-0.7,-10.25,-3.125,-23.4375,0.20849609375,-0.65557861328125,-0.37481689453125,-0.6214599609375,-23.25,-22.875,23.875,9.52,1.88,-1.37,moving,10
5.93,27764.064504645,22,3,3,3,3,10.56,1.38,-1.56,1.04,-0.54,-0.21,-18.25,10.25,-18.8125,0.20672607421875,-0.65472412109375,-0.374755859375,-0.62298583984375,-23.25,-22.875,23.875,9.52,1.92,-1.35,moving,10
5.94,27764.064504645,22,3,3,3,3,10.37,1.18,-1.36,0.85,-0.76,-0.04,-23.1875,10.75,-13.125,0.2047119140625,-0.65435791015625,-0.3736572265625,-0.624755859375,-21.875,-24.375,25.0,9.51,1.95,-1.32,moving,10
5.95,27764.079329067,22,3,3,3,3,10.32,1.11,-1.18,0.81,-0.85,0.13,-22.5625,1.75,-8.0,0.20306396484375,-0.6544189453125,-0.37286376953125,-0.625732421875,-21.875,-24.375,25.0,9.51,1.96,-1.31,moving,10
5.96,27764.079329067,22,3,3,3,3,10.35,1.07,-1.07,0.83,-0.9,0.24,-17.625,-3.875,-4.125,0.20172119140625,-0.65478515625,-0.3721923828125,-0.62615966796875,-21.875,-24.375,25.0,9.51,1.98,-1.31,moving,10
5.97,27764.093957363,22,3,3,3,3,10.29,0.95,-1.3,0.78,-1.02,0.02,-13.25,-6.875,-0.1875,0.20074462890625,-0.6553955078125,-0.37158203125,-0.62615966796875,-21.875,-24.375,25.0,9.51,1.98,-1.32,moving,10
5.98,27764.093957363,22,3,3,3,3,10.32,0.9,-1.39,0.81,-1.07,-0.06,-11.0625,-6.875,4.0625,0.2000732421875,-0.6561279296875,-0.370849609375,-0.62603759765625,-21.875,-24.375,25.0,9.51,1.97,-1.33,moving,10
5.99,27764.112699794,22,3,3,3,3,10.4,0.91,-1.43,0.89,-1.05,-0.1,-8.8125,-1.0,7.625,0.20001220703125,-0.65655517578125,-0.3699951171875,-0.62615966796875,-21.5,-24.375,25.75,9.51,1.96,-1.33,moving,10
6.0,27764.112699794,22,3,3,3,3,10.4,0.85,-1.47,0.88,-1.09,-0.15,-6.75,5.6875,11.3125,0.200439453125,-0.65673828125,-0.368896484375,-0.62646484375,-21.5,-24.375,25.75,9.51,1.95,-1.32,moving,10
6.01,27764.139435105,22,3,3,3,3,10.3,0.85,-1.46,0.78,-1.07,-0.15,-3.25,5.6875,15.6875,0.2012939453125,-0.656982421875,-0.36767578125,-0.62664794921875,-21.5,-24.375,25.75,9.52,1.92,-1.31,moving,10
6.02,27764.139435105,22,3,3,3,3,10.34,0.9,-1.46,0.81,-0.99,-0.15,-0.0625,1.125,19.875,0.202392578125,-0.65753173828125,-0.36651611328125,-0.6263427734375,-21.5,-24.375,25.75,9.53,1.89,-1.3,moving,10
6.03,27764.15418832,22,3,3,3,3,10.38,0.94,-1.5,0.83,-0.87,-0.19,-0.375,-1.75,24.0,0.20477294921875,-0.65899658203125,-0.36431884765625,-0.6253662109375,-21.5,-24.375,25.75,9.54,1.82,-1.31,moving,10
6.05,27764.15418832,22,3,3,3,3,10.29,0.95,-1.6,0.73,-0.78,-0.28,-2.8125,-2.125,28.75,0.20697021484375,-0.66064453125,-0.36175537109375,-0.6243896484375,-22.1875,-25.0625,25.0,9.55,1.74,-1.31,moving,10
6.05,27764.183800299,22,3,3,3,3,10.26,0.92,-1.65,0.69,-0.75,-0.33,-4.3125,-1.1875,32.1875,0.209228515625,-0.66229248046875,-0.35906982421875,-0.6234130859375,-22.1875,-25.0625,25.0,9.57,1.67,-1.32,moving,10
6.06,27764.183800299,22,3,3,3,3,10.06,0.88,-1.73,0.48,-0.71,-0.4,-4.3125,-0.125,35.125,0.21142578125,-0.6639404296875,-0.35638427734375,-0.62249755859375,-22.1875,-25.0625,25.0,9.58,1.59,-1.32,moving,10
6.07,27764.199817592,22,3,3,3,3,10.17,0.7,-1.44,0.57,-0.81,-0.1,-2.625,-2.9375,37.875,0.2138671875,-0.66571044921875,-0.3536376953125,-0.621337890625,-22.1875,-25.0625,25.0,9.59,1.51,-1.33,moving,10
6.08,27764.199817592,22,3,3,3,3,10.34,0.69,-1.17,0.73,-0.74,0.16,1.8125,-1.25,39.8125,0.21673583984375,-0.667236328125,-0.35089111328125,-0.6202392578125,-22.1875,-25.0625,25.0,9.6,1.43,-1.33,moving,10
6.09,27764.213366868,22,3,3,3,3,10.21,0.62,-1.03,0.59,-0.73,0.29,4.9375,4.75,41.6875,0.21942138671875,-0.66815185546875,-0.3486328125,-0.61956787109375,-22.1875,-24.375,25.0,9.61,1.36,-1.33,moving,10
6.1,27764.213366868,22,3,3,3,3,10.17,0.54,-0.97,0.54,-0.73,0.35,5.1875,5.5,44.6875,0.2222900390625,-0.66912841796875,-0.34619140625,-0.618896484375,-22.1875,-24.375,25.0,9.63,1.28,-1.32,moving,10
6.11,27764.228571499,22,3,3,3,3,10.02,0.18,-1.04,0.37,-1.01,0.26,5.4375,7.3125,46.8125,0.22540283203125,-0.6700439453125,-0.3436279296875,-0.61822509765625,-22.1875,-24.375,25.0,9.64,1.2,-1.31,moving,10
6.12,27764.228571499,22,3,3,3,3,9.86,0.06,-1.18,0.21,-1.05,0.11,7.0,10.25,49.4375,0.228759765625,-0.67083740234375,-0.34088134765625,-0.61761474609375,-22.1875,-24.375,25.0,9.65,1.11,-1.29,moving,10
6.13,27764.259678473,22,3,3,3,3,9.75,-0.01,-1.33,0.08,-1.04,-0.05,8.9375,11.0625,52.3125,0.23248291015625,-0.67156982421875,-0.33807373046875,-0.616943359375,-22.1875,-24.375,25.0,9.66,1.02,-1.28,moving,10
6.14,27764.259678473,22,3,3,3,3,9.72,-0.08,-1.41,0.04,-1.02,-0.15,10.875,13.3125,55.1875,0.2359619140625,-0.67254638671875,-0.3345947265625,-0.616455078125,-22.875,-24.0625,24.25,9.68,0.93,-1.26,moving,10
6.15,27764.274143927,22,3,3,3,3,9.47,-0.11,-1.46,-0.22,-0.95,-0.21,11.75,12.375,57.9375,0.24017333984375,-0.67333984375,-0.33154296875,-0.61566162109375,-22.875,-24.0625,24.25,9.69,0.83,-1.24,moving,10
6.16,27764.274143927,22,3,3,3,3,9.44,-0.12,-1.37,-0.25,-0.84,-0.15,12.25,8.375,60.625,0.244384765625,-0.67437744140625,-0.32843017578125,-0.614501953125,-22.875,-24.0625,24.25,9.7,0.72,-1.22,moving,10
6.17,27764.304239264,22,3,3,3,3,9.38,-0.16,-1.26,-0.32,-0.78,-0.05,13.125,6.9375,63.4375,0.248779296875,-0.675537109375,-0.32525634765625,-0.6131591796875,-22.875,-24.0625,24.25,9.71,0.61,-1.21,moving,10
6.18,27764.304239264,22,3,3,3,3,9.36,-0.04,-0.88,-0.34,-0.54,0.32,15.875,5.125,65.5625,0.25335693359375,-0.6767578125,-0.3221435546875,-0.611572265625,-22.875,-24.0625,24.25,9.71,0.5,-1.21,moving,10
6.19,27764.319672166,22,3,3,3,3,9.24,0.09,-0.74,-0.47,-0.28,0.46,17.3125,5.125,67.5,0.258056640625,-0.67803955078125,-0.31878662109375,-0.60992431640625,-23.6875,-21.5,23.5,9.72,0.38,-1.2,moving,10
6.2,27764.319672166,22,3,3,3,3,9.29,0.32,-0.68,-0.43,0.06,0.5,12.0,9.1875,71.0,0.2628173828125,-0.67926025390625,-0.31500244140625,-0.6085205078125,-23.6875,-21.5,23.5,9.73,0.25,-1.18,moving,10
6.21,27764.336286017,22,3,3,3,3,9.0,0.23,-0.74,-0.73,0.09,0.4,3.625,19.0625,73.125,0.2674560546875,-0.68017578125,-0.3104248046875,-0.60784912109375,-23.6875,-21.5,23.5,9.73,0.13,-1.15,moving,10
6.22,27764.336286017,22,3,3,3,3,8.56,0.33,-0.54,-1.17,0.32,0.57,2.3125,25.25,72.8125,0.2720947265625,-0.68072509765625,-0.30560302734375,-0.60760498046875,-23.6875,-21.5,23.5,9.74,0.0,-1.11,moving,10
6.23,27764.364616787,22,3,3,3,3,8.34,0.48,-0.63,-1.39,0.6,0.44,5.625,19.125,73.375,0.27685546875,-0.6815185546875,-0.30108642578125,-0.6068115234375,-23.6875,-21.5,23.5,9.74,-0.11,-1.08,moving,10
6.24,27764.364616787,22,3,3,3,3,8.36,0.65,-0.53,-1.37,0.9,0.55,6.8125,-2.5,75.4375,0.2811279296875,-0.6834716796875,-0.29693603515625,-0.60467529296875,-25.0625,-20.0,23.875,9.74,-0.24,-1.08,moving,10
6.25,27764.378737677,22,3,3,3,3,9.08,0.41,-0.79,-0.65,0.79,0.3,3.6875,-8.3125,77.3125,0.28521728515625,-0.68585205078125,-0.29266357421875,-0.6021728515625,-25.0625,-20.0,23.875,9.73,-0.37,-1.09,moving,10
6.26,27764.378737677,22,3,3,3,3,8.97,0.31,-1.17,-0.75,0.82,-0.08,-2.9375,5.375,78.8125,0.289306640625,-0.6876220703125,-0.28765869140625,-0.6005859375,-25.0625,-20.0,23.875,9.73,-0.51,-1.08,moving,10
6.27,27764.393844814,22,3,3,3,3,8.77,0.12,-1.5,-0.95,0.76,-0.44,-10.3125,21.5625,80.6875,0.29345703125,-0.68878173828125,-0.28173828125,-0.60009765625,-25.0625,-20.0,23.875,9.72,-0.64,-1.05,moving,10
6.28,27764.393844814,22,3,3,3,3,8.55,-0.03,-1.81,-1.17,0.75,-0.81,-10.375,32.0625,80.8125,0.2978515625,-0.6893310546875,-0.2755126953125,-0.6002197265625,-25.0625,-20.0,23.875,9.72,-0.78,-1.0,moving,10
6.3,27764.423993862,22,3,3,3,3,7.98,-0.18,-1.73,-1.73,0.73,-0.79,-2.625,34.375,80.125,0.302978515625,-0.68939208984375,-0.2698974609375,-0.60009765625,-26.5625,-17.0625,24.25,9.71,-0.91,-0.94,moving,10
6.31,27764.423993862,22,3,3,3,3,8.05,-0.2,-1.48,-1.65,0.84,-0.59,7.5625,31.0,78.875,0.30828857421875,-0.68939208984375,-0.26470947265625,-0.59967041015625,-26.5625,-17.0625,24.25,9.7,-1.05,-0.88,moving,10
6.31,27764.454377854,22,3,3,3,3,8.15,-0.32,-1.27,-1.53,0.86,-0.43,18.125,28.3125,77.9375,0.3140869140625,-0.689208984375,-0.26019287109375,-0.59881591796875,-26.5625,-17.0625,24.25,9.69,-1.19,-0.83,moving,10
6.32,27764.454377854,22,3,3,3,3,8.32,-0.53,-1.04,-1.35,0.78,-0.25,26.9375,27.25,77.3125,0.32037353515625,-0.68878173828125,-0.2562255859375,-0.59771728515625,-26.5625,-17.0625,24.25,9.68,-1.32,-0.78,moving,10
6.33,27764.466347866,22,3,3,3,3,8.66,-0.8,-0.46,-1.0,0.65,0.25,32.75,31.0625,77.8125,0.32708740234375,-0.68798828125,-0.2523193359375,-0.5966796875,-26.5625,-17.0625,24.25,9.67,-1.46,-0.72,moving,10
6.34,27764.466347866,22,3,3,3,3,8.72,-0.8,-0.36,-0.92,0.79,0.29,31.5,33.6875,79.125,0.3333740234375,-0.687255859375,-0.2476806640625,-0.59600830078125,-28.0625,-17.0625,22.75,9.65,-1.59,-0.66,moving,10
6.35,27764.485795335,22,3,3,3,3,8.84,-0.81,-0.31,-0.79,0.91,0.28,24.5625,32.125,80.25,0.3397216796875,-0.68658447265625,-0.24322509765625,-0.59503173828125,-28.0625,-17.0625,22.75,9.63,-1.73,-0.59,moving,10
6.36,27764.485795335,22,3,3,3,3,9.1,-0.99,-0.29,-0.5,0.87,0.25,16.6875,25.5,80.4375,0.34539794921875,-0.68646240234375,-0.23846435546875,-0.59381103515625,-28.0625,-17.0625,22.75,9.61,-1.87,-0.55,moving,10
6.37,27764.503108201,22,3,3,3,3,9.08,-1.02,-0.28,-0.49,0.97,0.22,12.3125,22.0625,78.5625,0.35064697265625,-0.6865234375,-0.2337646484375,-0.59246826171875,-28.0625,-17.0625,22.75,9.58,-2.0,-0.5,moving,10
6.39,27764.503108201,22,3,3,3,3,9.09,-0.98,-0.49,-0.46,1.14,-0.02,13.0625,23.5625,76.625,0.35589599609375,-0.68646240234375,-0.2291259765625,-0.59124755859375,-28.0625,-17.0625,22.75,9.56,-2.13,-0.46,moving,10
6.39,27764.513175991,22,3,3,3,3,9.05,-1.05,-0.55,-0.47,1.2,-0.12,13.3125,20.75,75.25,0.36090087890625,-0.6865234375,-0.22454833984375,-0.58990478515625,-30.5625,-13.75,22.75,9.53,-2.26,-0.42,moving,10
6.4,27764.513175991,22,3,3,3,3,9.64,-1.22,-0.57,0.13,1.15,-0.18,10.9375,17.3125,71.8125,0.3656005859375,-0.6866455078125,-0.22027587890625,-0.5885009765625,-30.5625,-13.75,22.75,9.5,-2.38,-0.39,moving,10
6.41,27764.544545579,22,3,3,3,3,9.88,-1.63,-0.4,0.4,0.85,-0.05,11.4375,18.75,66.25,0.37005615234375,-0.68658447265625,-0.21630859375,-0.5872802734375,-30.5625,-13.75,22.75,9.47,-2.49,-0.35,moving,10
6.42,27764.544545579,22,3,3,3,3,9.99,-2.04,-0.2,0.53,0.54,0.08,24.375,33.625,58.125,0.3751220703125,-0.6851806640625,-0.2130126953125,-0.5869140625,-30.5625,-13.75,22.75,9.45,-2.58,-0.29,moving,10
6.43,27764.558706753,22,3,3,3,3,9.53,-2.05,-0.5,0.09,0.61,-0.31,42.75,48.125,50.25,0.38116455078125,-0.68218994140625,-0.2105712890625,-0.58734130859375,-30.5625,-13.75,22.75,9.43,-2.67,-0.19,moving,10
6.45,27764.558706753,22,3,3,3,3,9.47,-2.11,-0.4,0.06,0.62,-0.3,52.375,41.8125,42.5,0.38720703125,-0.6790771484375,-0.2093505859375,-0.58740234375,-32.0625,-10.875,22.75,9.41,-2.74,-0.09,moving,10
6.45,27764.574735927,22,3,3,3,3,9.72,-2.3,-0.15,0.33,0.5,-0.12,52.3125,26.0,37.0625,0.3927001953125,-0.6766357421875,-0.208984375,-0.58673095703125,-32.0625,-10.875,22.75,9.39,-2.8,-0.02,moving,10
6.47,27764.574735927,22,3,3,3,3,10.09,-2.33,-0.05,0.71,0.52,-0.07,45.875,16.25,32.625,0.3973388671875,-0.6748046875,-0.2088623046875,-0.58575439453125,-32.0625,-10.875,22.75,9.38,-2.85,0.01,moving,10
6.47,27764.603911302,22,3,3,3,3,10.67,-2.88,0.19,1.3,0.02,0.12,39.25,17.6875,28.625,0.40142822265625,-0.673095703125,-0.20855712890625,-0.5850830078125,-32.0625,-10.875,22.75,9.36,-2.9,0.06,moving,10
6.48,27764.603911302,22,3,3,3,3,10.75,-2.92,0.24,1.4,0.01,0.13,32.625,18.0625,25.5625,0.40496826171875,-0.67144775390625,-0.20806884765625,-0.58465576171875,-32.0625,-10.875,22.75,9.35,-2.94,0.11,moving,10
6.49,27764.618915493,22,3,3,3,3,10.88,-3.04,0.41,1.54,-0.06,0.27,23.625,11.25,22.3125,0.40771484375,-0.67047119140625,-0.20758056640625,-0.5841064453125,-32.375,-9.375,22.0,9.34,-2.98,0.14,moving,10
6.5,27764.618915493,22,3,3,3,3,10.92,-2.99,0.38,1.59,0.01,0.22,10.875,2.9375,19.375,0.40936279296875,-0.6702880859375,-0.2069091796875,-0.5833740234375,-32.375,-9.375,22.0,9.33,-3.01,0.15,moving,10
6.51,27764.640192877,22,3,3,3,3,10.99,-3.13,-0.07,1.67,-0.08,-0.22,-3.4375,-6.375,16.5,0.409912109375,-0.6710205078125,-0.20599365234375,-0.58245849609375,-32.375,-9.375,22.0,9.32,-3.04,0.14,moving,10
6.52,27764.640192877,22,3,3,3,3,11.06,-3.18,-0.44,1.74,-0.12,-0.55,-15.1875,-18.125,13.125,0.40936279296875,-0.6727294921875,-0.205078125,-0.58123779296875,-32.375,-9.375,22.0,9.31,-3.06,0.1,moving,10
6.54,27764.664893032,22,3,3,3,3,11.13,-3.26,-0.77,1.82,-0.18,-0.82,-22.4375,-25.9375,8.3125,0.407958984375,-0.67498779296875,-0.20440673828125,-0.57977294921875,-32.375,-9.375,22.0,9.31,-3.07,0.05,moving,10
6.55,27764.664893032,22,3,3,3,3,10.95,-2.98,-1.13,1.64,0.09,-1.13,-20.9375,-26.75,2.5,0.4063720703125,-0.6771240234375,-0.20416259765625,-0.5784912109375,-33.5625,-7.1875,21.25,9.31,-3.08,0.0,moving,10
6.56,27764.67877263,22,3,3,3,3,10.82,-2.86,-0.94,1.51,0.2,-0.89,-13.875,-26.5,-5.3125,0.40478515625,-0.67889404296875,-0.2047119140625,-0.577392578125,-33.5625,-7.1875,21.25,9.31,-3.07,-0.05,moving,10
6.56,27764.67877263,22,3,3,3,3,10.73,-2.71,-0.65,1.41,0.33,-0.54,-7.125,-27.0,-12.3125,0.40325927734375,-0.68023681640625,-0.20599365234375,-0.57635498046875,-33.5625,-7.1875,21.25,9.31,-3.05,-0.1,moving,10
6.57,27764.694739712,22,3,3,3,3,10.72,-2.55,-0.25,1.4,0.46,-0.11,-2.3125,-25.875,-20.125,0.40167236328125,-0.6812744140625,-0.2080078125,-0.5755615234375,-33.5625,-7.1875,21.25,9.32,-3.01,-0.14,moving,10
6.58,27764.694739712,22,3,3,3,3,10.6,-2.27,0.21,1.26,0.7,0.39,-0.5625,-20.125,-27.4375,0.39984130859375,-0.68182373046875,-0.2103271484375,-0.5753173828125,-33.5625,-7.1875,21.25,9.34,-2.97,-0.17,moving,10
6.59,27764.723954922,22,3,3,3,3,10.5,-2.22,0.33,1.14,0.69,0.53,-2.5625,-12.3125,-34.375,0.39764404296875,-0.68194580078125,-0.21258544921875,-0.57586669921875,-32.75,-7.5625,21.5625,9.36,-2.91,-0.2,moving,10
6.6,27764.723954922,22,3,3,3,3,10.36,-2.14,0.21,0.97,0.7,0.42,-5.3125,-4.5,-40.9375,0.39520263671875,-0.68157958984375,-0.21490478515625,-0.5771484375,-32.75,-7.5625,21.5625,9.38,-2.85,-0.21,moving,10
6.62,27764.758503628,22,3,3,3,3,10.25,-2.1,0.1,0.84,0.66,0.31,-6.8125,0.75,-47.6875,0.39239501953125,-0.68084716796875,-0.2174072265625,-0.5789794921875,-32.75,-7.5625,21.5625,9.4,-2.77,-0.21,moving,10
6.63,27764.758503628,22,3,3,3,3,9.97,-1.96,-0.25,0.54,0.71,-0.05,-6.5,4.0625,-54.3125,0.38934326171875,-0.67987060546875,-0.22015380859375,-0.5811767578125,-32.75,-7.5625,21.5625,9.43,-2.68,-0.2,moving,10
6.64,27764.769882127,22,3,3,3,3,9.87,-1.89,-0.34,0.41,0.69,-0.13,-5.0,5.875,-60.6875,0.38604736328125,-0.67852783203125,-0.22332763671875,-0.58367919921875,-32.75,-7.5625,21.5625,9.45,-2.58,-0.2,moving,10
6.64,27764.769882127,22,3,3,3,3,9.67,-1.79,-0.41,0.18,0.67,-0.22,-3.0,8.8125,-67.0625,0.38238525390625,-0.67694091796875,-0.2265625,-0.586669921875,-32.75,-8.375,22.0,9.48,-2.47,-0.18,moving,10
6.65,27764.788153205,22,3,3,3,3,9.24,-1.72,-0.43,-0.26,0.62,-0.26,-1.125,11.375,-72.75,0.3787841796875,-0.67498779296875,-0.23040771484375,-0.58978271484375,-32.75,-8.375,22.0,9.51,-2.34,-0.16,moving,10
6.66,27764.788153205,22,3,3,3,3,9.0,-1.73,-0.41,-0.54,0.48,-0.26,0.25,13.25,-77.9375,0.375,-0.67266845703125,-0.23455810546875,-0.5931396484375,-32.75,-8.375,22.0,9.55,-2.21,-0.14,moving,10
6.67,27764.798313646,22,3,3,3,3,8.81,-1.74,-0.33,-0.76,0.33,-0.2,1.375,12.8125,-82.5625,0.37109375,-0.6702880859375,-0.23907470703125,-0.5965576171875,-32.75,-8.375,22.0,9.58,-2.08,-0.12,moving,10
6.69,27764.798313646,22,3,3,3,3,8.67,-1.76,-0.29,-0.94,0.17,-0.19,2.625,10.9375,-86.6875,0.366943359375,-0.66778564453125,-0.243896484375,-0.59991455078125,-32.75,-8.375,22.0,9.61,-1.93,-0.1,moving,10
6.7,27764.813630784,22,3,3,3,3,8.46,-1.74,-0.09,-1.17,0.04,0.0,3.125,7.8125,-89.8125,0.3621826171875,-0.66552734375,-0.2486572265625,-0.6033935546875,-32.0625,-10.875,22.375,9.64,-1.78,-0.09,moving,10
6.71,27764.813630784,22,3,3,3,3,8.33,-1.84,-0.04,-1.33,-0.21,0.03,2.875,4.4375,-91.9375,0.35760498046875,-0.66314697265625,-0.2540283203125,-0.60650634765625,-32.0625,-10.875,22.375,9.66,-1.62,-0.08,moving,10
6.72,27764.849440721,22,3,3,3,3,8.26,-1.62,0.0,-1.42,-0.15,0.08,2.5,-0.6875,-93.5,0.352783203125,-0.6610107421875,-0.25958251953125,-0.6092529296875,-32.0625,-10.875,22.375,9.69,-1.47,-0.08,moving,10
6.72,27764.849440721,22,3,3,3,3,8.16,-1.5,0.12,-1.55,-0.19,0.22,-0.125,-7.625,-94.375,0.3475341796875,-0.65924072265625,-0.2652587890625,-0.61175537109375,-32.0625,-10.875,22.375,9.71,-1.31,-0.09,moving,10
6.73,27764.859207729,22,3,3,3,3,8.29,-1.39,0.06,-1.44,-0.24,0.19,-5.3125,-15.1875,-94.0,0.34185791015625,-0.65802001953125,-0.2708740234375,-0.61383056640625,-32.0625,-10.875,22.375,9.73,-1.15,-0.12,moving,10
6.74,27764.859207729,22,3,3,3,3,8.34,-1.43,-0.04,-1.41,-0.44,0.11,-10.375,-24.0625,-93.125,0.33526611328125,-0.6575927734375,-0.27587890625,-0.61566162109375,-31.375,-12.6875,21.25,9.75,-0.99,-0.16,moving,10
6.75,27764.874340298,22,3,3,3,3,8.39,-1.44,-0.26,-1.37,-0.6,-0.04,-13.8125,-31.0,-91.625,0.3287353515625,-0.657470703125,-0.28131103515625,-0.61688232421875,-31.375,-12.6875,21.25,9.76,-0.83,-0.22,moving,10
6.76,27764.874340298,22,3,3,3,3,8.24,-1.25,-0.73,-1.53,-0.57,-0.44,-14.0625,-36.0625,-90.8125,0.3221435546875,-0.65753173828125,-0.28680419921875,-0.61773681640625,-31.375,-12.6875,21.25,9.77,-0.68,-0.28,moving,10
6.78,27764.904368903,22,3,3,3,3,8.11,-1.03,-0.89,-1.67,-0.51,-0.54,-10.125,-38.875,-90.6875,0.315673828125,-0.65765380859375,-0.29254150390625,-0.6182861328125,-31.375,-12.6875,21.25,9.78,-0.52,-0.35,moving,10
6.79,27764.904368903,22,3,3,3,3,7.99,-0.73,-1.0,-1.79,-0.36,-0.57,-3.5625,-42.5625,-90.6875,0.30950927734375,-0.65771484375,-0.2987060546875,-0.618408203125,-31.375,-12.6875,21.25,9.79,-0.36,-0.42,moving,10
6.8,27764.919020677,22,3,3,3,3,7.91,-0.38,-1.02,-1.87,-0.16,-0.5,2.625,-51.3125,-90.9375,0.3033447265625,-0.65802001953125,-0.305419921875,-0.61785888671875,-30.1875,-15.25,22.75,9.79,-0.21,-0.51,moving,10
6.81,27764.919020677,22,3,3,3,3,7.97,0.16,-0.77,-1.81,0.22,-0.14,7.5,-65.1875,-90.875,0.297119140625,-0.65887451171875,-0.312744140625,-0.61627197265625,-30.1875,-15.25,22.75,9.78,-0.05,-0.62,moving,10
6.81,27764.933827887,22,3,3,3,3,8.23,0.29,-0.49,-1.53,0.2,0.26,10.375,-79.5,-89.6875,0.29071044921875,-0.660400390625,-0.32049560546875,-0.61370849609375,-30.1875,-15.25,22.75,9.77,0.09,-0.76,moving,10
6.82,27764.933827887,22,3,3,3,3,8.26,0.56,-0.26,-1.49,0.32,0.64,11.6875,-84.1875,-85.375,0.284423828125,-0.66217041015625,-0.32818603515625,-0.61065673828125,-30.1875,-15.25,22.75,9.76,0.23,-0.9,moving,10
6.83,27764.96452853,22,3,3,3,3,8.05,1.62,-0.66,-1.69,1.25,0.38,9.5625,-85.9375,-78.375,0.2783203125,-0.66424560546875,-0.3353271484375,-0.60736083984375,-30.1875,-15.25,22.75,9.74,0.36,-1.05,moving,10
6.85,27764.96452853,22,3,3,3,3,8.45,1.85,-1.02,-1.26,1.36,0.18,-5.125,-96.375,-71.6875,0.27142333984375,-0.6673583984375,-0.341552734375,-0.6036376953125,-28.0625,-17.75,24.25,9.71,0.49,-1.21,moving,10
6.86,27764.979173753,22,3,3,3,3,9.15,1.84,-1.4,-0.53,1.22,-0.02,-26.125,-98.5625,-67.25,0.26336669921875,-0.671142578125,-0.34637451171875,-0.6002197265625,-28.0625,-17.75,24.25,9.68,0.61,-1.38,moving,10
6.87,27764.979173753,22,3,3,3,3,9.49,1.69,-1.65,-0.16,0.96,-0.15,-34.375,-74.0625,-64.125,0.2557373046875,-0.673828125,-0.35003662109375,-0.598388671875,-28.0625,-17.75,24.25,9.66,0.72,-1.5,moving,10
6.88,27764.999462775,22,3,3,3,3,9.45,1.01,-1.57,-0.19,0.16,-0.01,-29.6875,-36.375,-62.875,0.24957275390625,-0.6744384765625,-0.35302734375,-0.5985107421875,-28.0625,-17.75,24.25,9.64,0.84,-1.55,moving,10
6.89,27764.999462775,22,3,3,3,3,9.4,0.92,-1.38,-0.22,-0.03,0.18,-22.75,-7.8125,-61.5625,0.24481201171875,-0.6734619140625,-0.3555908203125,-0.60009765625,-28.0625,-17.75,24.25,9.63,0.95,-1.56,moving,10
6.89,27765.026270392,22,3,3,3,3,9.41,0.92,-1.02,-0.2,-0.13,0.52,-15.875,5.6875,-58.3125,0.24078369140625,-0.6717529296875,-0.35784912109375,-0.60223388671875,-24.0625,-20.375,26.0625,9.62,1.05,-1.55,moving,10
6.9,27765.026270392,22,3,3,3,3,9.82,1.15,-0.59,0.2,0.0,0.93,-10.3125,10.5,-54.0,0.2376708984375,-0.66973876953125,-0.36029052734375,-0.60430908203125,-24.0625,-20.375,26.0625,9.61,1.14,-1.53,moving,10
6.91,27765.03922665,22,3,3,3,3,10.12,1.43,-0.66,0.51,0.2,0.84,-10.8125,14.3125,-48.5625,0.23492431640625,-0.66766357421875,-0.36224365234375,-0.60650634765625,-24.0625,-20.375,26.0625,9.61,1.23,-1.51,moving,10
6.93,27765.03922665,22,3,3,3,3,10.31,1.61,-1.02,0.71,0.3,0.44,-18.375,19.3125,-43.0625,0.23211669921875,-0.6656494140625,-0.3634033203125,-0.60906982421875,-24.0625,-20.375,26.0625,9.6,1.31,-1.47,moving,10
6.94,27765.059920946,22,3,3,3,3,10.64,1.63,-1.4,1.04,0.25,0.02,-24.25,22.5625,-37.4375,0.22943115234375,-0.66375732421875,-0.36383056640625,-0.6119384765625,-24.0625,-20.375,26.0625,9.6,1.37,-1.43,moving,10
6.95,27765.059920946,22,3,3,3,3,11.0,1.72,-2.09,1.39,0.28,-0.72,-23.0,34.1875,-32.8125,0.22735595703125,-0.661376953125,-0.36376953125,-0.61529541015625,-22.1875,-22.1875,26.875,9.6,1.44,-1.36,moving,10
6.96,27765.084491909,22,3,3,3,3,10.77,1.58,-2.27,1.16,0.09,-0.97,-17.0,40.0625,-29.375,0.22607421875,-0.65863037109375,-0.36370849609375,-0.61871337890625,-22.1875,-22.1875,26.875,9.6,1.49,-1.29,moving,10
6.97,27765.084491909,22,3,3,3,3,10.79,1.47,-2.2,1.18,-0.06,-0.95,-10.0625,24.375,-25.0,0.22491455078125,-0.65667724609375,-0.3641357421875,-0.6209716796875,-22.1875,-22.1875,26.875,9.6,1.53,-1.25,moving,10
6.97,27765.12174785,22,3,3,3,3,11.13,1.37,-2.1,1.53,-0.19,-0.86,-5.5625,10.0,-19.625,0.22381591796875,-0.6556396484375,-0.36480712890625,-0.6220703125,-22.1875,-22.1875,26.875,9.6,1.57,-1.23,moving,10
6.98,27765.12174785,22,3,3,3,3,11.15,1.13,-2.34,1.55,-0.46,-1.12,-6.4375,5.875,-12.75,0.22296142578125,-0.655029296875,-0.36505126953125,-0.62286376953125,-22.1875,-22.1875,26.875,9.59,1.59,-1.22,moving,10
7.0,27765.132932583,22,3,3,3,3,11.3,0.94,-2.44,1.7,-0.66,-1.22,-10.875,3.1875,-5.625,0.22039794921875,-0.6558837890625,-0.3629150390625,-0.6241455078125,-22.5625,-23.25,23.5,9.59,1.6,-1.21,moving,10
7.01,27765.132932583,22,3,3,3,3,11.31,0.71,-2.43,1.71,-0.88,-1.22,-14.6875,2.625,1.5,0.2197265625,-0.65606689453125,-0.36199951171875,-0.62469482421875,-22.5625,-23.25,23.5,9.59,1.6,-1.2,moving,10
7.02,27765.144779954,22,3,3,3,3,11.22,0.41,-2.15,1.62,-1.18,-0.95,-16.625,0.375,8.8125,0.21923828125,-0.65667724609375,-0.360595703125,-0.62506103515625,-22.5625,-23.25,23.5,9.6,1.59,-1.2,moving,10
7.03,27765.144779954,22,3,3,3,3,11.32,0.31,-2.0,1.71,-1.26,-0.8,-16.0,-4.6875,16.0,0.21905517578125,-0.65771484375,-0.35888671875,-0.625,-22.5625,-23.25,23.5,9.6,1.57,-1.2,moving,10
7.04,27765.159762905,22,3,3,3,3,11.49,0.33,-1.87,1.88,-1.2,-0.65,-12.6875,-10.125,21.875,0.21923828125,-0.6591796875,-0.35711669921875,-0.6243896484375,-22.5625,-23.25,23.5,9.6,1.53,-1.21,moving,10
7.05,27765.159762905,22,3,3,3,3,11.53,0.37,-1.63,1.92,-1.12,-0.39,-6.3125,-12.875,25.8125,0.21966552734375,-0.66094970703125,-0.3553466796875,-0.6234130859375,-22.5625,-23.6875,24.5625,9.61,1.49,-1.23,moving,10
7.06,27765.174266364,22,3,3,3,3,11.79,0.66,-1.1,2.18,-0.78,0.16,-0.25,-14.4375,29.25,0.2208251953125,-0.66265869140625,-0.35394287109375,-0.62200927734375,-22.5625,-23.6875,24.5625,9.61,1.44,-1.26,moving,10
7.06,27765.174266364,22,3,3,3,3,11.59,0.77,-0.88,1.97,-0.61,0.4,3.75,-10.8125,31.75,0.222412109375,-0.66412353515625,-0.3525390625,-0.62060546875,-22.5625,-23.6875,24.5625,9.62,1.39,-1.28,moving,10
7.07,27765.204632697,22,3,3,3,3,11.43,0.81,-0.84,1.8,-0.51,0.44,7.125,-7.5625,34.6875,0.2244873046875,-0.66546630859375,-0.35107421875,-0.6192626953125,-22.5625,-23.6875,24.5625,9.62,1.33,-1.29,moving,10
7.09,27765.204632697,22,3,3,3,3,10.95,0.71,-1.06,1.32,-0.55,0.23,9.8125,-4.5625,37.625,0.2269287109375,-0.66668701171875,-0.3494873046875,-0.61798095703125,-22.5625,-23.6875,24.5625,9.63,1.26,-1.3,moving,10
7.1,27765.219114793,22,3,3,3,3,10.7,0.65,-1.29,1.05,-0.54,0.01,12.6875,0.3125,41.0,0.22991943359375,-0.66766357421875,-0.3477783203125,-0.61676025390625,-22.875,-22.875,24.5625,9.64,1.19,-1.3,moving,10
7.11,27765.219114793,22,3,3,3,3,10.49,0.59,-1.39,0.83,-0.51,-0.09,13.6875,6.8125,44.3125,0.2332763671875,-0.66839599609375,-0.3458251953125,-0.6158447265625,-22.875,-22.875,24.5625,9.65,1.11,-1.3,moving,10
7.12,27765.233566209,22,3,3,3,3,10.25,0.46,-1.34,0.58,-0.57,-0.06,11.5625,13.625,48.0625,0.2369384765625,-0.66888427734375,-0.34332275390625,-0.61529541015625,-22.875,-22.875,24.5625,9.66,1.03,-1.27,moving,10
7.13,27765.233566209,22,3,3,3,3,9.83,0.36,-1.11,0.15,-0.58,0.14,9.0,15.3125,52.0625,0.24072265625,-0.66937255859375,-0.3404541015625,-0.6148681640625,-22.875,-22.875,24.5625,9.67,0.94,-1.25,moving,10
7.14,27765.269626187,22,3,3,3,3,9.77,0.29,-1.0,0.08,-0.55,0.23,6.75,10.625,56.3125,0.2445068359375,-0.67034912109375,-0.3372802734375,-0.61407470703125,-22.875,-22.875,24.5625,9.69,0.84,-1.23,moving,10
7.15,27765.269626187,22,3,3,3,3,9.78,0.24,-1.02,0.08,-0.49,0.2,5.875,7.9375,60.0,0.2476806640625,-0.671875,-0.333251953125,-0.61334228515625,-23.6875,-22.1875,23.0625,9.7,0.74,-1.22,moving,10
7.15,27765.279132331,22,3,3,3,3,9.56,0.25,-1.08,-0.14,-0.38,0.12,6.0,9.5625,63.1875,0.251708984375,-0.673095703125,-0.32965087890625,-0.6123046875,-23.6875,-22.1875,23.0625,9.71,0.63,-1.21,moving,10
7.17,27765.279132331,22,3,3,3,3,9.3,0.19,-1.0,-0.41,-0.32,0.19,7.9375,9.875,65.5,0.25592041015625,-0.67425537109375,-0.32598876953125,-0.6112060546875,-23.6875,-22.1875,23.0625,9.71,0.52,-1.19,moving,10
7.18,27765.293316494,22,3,3,3,3,9.12,0.17,-0.93,-0.6,-0.23,0.23,9.75,12.875,67.4375,0.260498046875,-0.67529296875,-0.322265625,-0.61016845703125,-23.6875,-22.1875,23.0625,9.72,0.4,-1.17,moving,10
7.19,27765.293316494,22,3,3,3,3,9.01,0.18,-0.85,-0.72,-0.1,0.29,11.0625,16.0625,68.5625,0.2652587890625,-0.67608642578125,-0.31842041015625,-0.6092529296875,-23.6875,-22.1875,23.0625,9.73,0.28,-1.14,moving,10
7.2,27765.326928433,22,3,3,3,3,8.46,0.05,-0.74,-1.27,-0.11,0.37,12.75,19.3125,69.875,0.270263671875,-0.67669677734375,-0.3145751953125,-0.6083984375,-25.5,-20.375,24.5625,9.74,0.16,-1.11,moving,10
7.21,27765.326928433,22,3,3,3,3,8.47,0.06,-0.72,-1.26,0.02,0.36,14.125,16.375,71.625,0.27532958984375,-0.67742919921875,-0.3106689453125,-0.60723876953125,-25.5,-20.375,24.5625,9.74,0.04,-1.08,moving,10
7.22,27765.3458628,22,3,3,3,3,8.62,-0.05,-0.6,-1.12,0.02,0.45,15.4375,15.8125,71.25,0.28045654296875,-0.6781005859375,-0.306884765625,-0.6060791015625,-25.5,-20.375,24.5625,9.74,-0.08,-1.06,moving,10
7.22,27765.3458628,22,3,3,3,3,8.43,-0.12,-0.73,-1.31,0.08,0.28,17.5625,24.0,70.6875,0.285888671875,-0.67828369140625,-0.30303955078125,-0.605224609375,-25.5,-20.375,24.5625,9.75,-0.2,-1.01,moving,10
7.24,27765.355701829,22,3,3,3,3,7.98,-0.16,-1.18,-1.77,0.16,-0.2,15.625,21.0,71.9375,0.2911376953125,-0.6787109375,-0.299072265625,-0.604248046875,-25.5,-20.375,24.5625,9.75,-0.33,-0.98,moving,10
7.25,27765.355701829,22,3,3,3,3,8.6,-0.43,-0.86,-1.13,0.02,0.11,11.25,2.375,73.3125,0.2957763671875,-0.68017578125,-0.2952880859375,-0.60223388671875,-25.5,-19.25,24.5625,9.74,-0.45,-0.97,moving,10
7.26,27765.38420777,22,3,3,3,3,8.75,-0.68,-0.58,-0.98,-0.1,0.37,12.3125,7.8125,73.3125,0.300537109375,-0.68133544921875,-0.29132080078125,-0.6004638671875,-25.5,-19.25,24.5625,9.74,-0.58,-0.96,moving,10
7.27,27765.38420777,22,3,3,3,3,8.53,-0.67,-0.55,-1.2,0.03,0.35,15.625,27.875,74.3125,0.3060302734375,-0.68133544921875,-0.2869873046875,-0.59979248046875,-25.5,-19.25,24.5625,9.73,-0.71,-0.91,moving,10
7.28,27765.398904141,22,3,3,3,3,8.1,-0.69,-0.28,-1.63,0.14,0.56,14.3125,32.0,74.625,0.31158447265625,-0.68115234375,-0.282470703125,-0.59930419921875,-25.5,-19.25,24.5625,9.73,-0.84,-0.85,moving,10
7.29,27765.398904141,22,3,3,3,3,8.05,-0.79,-0.03,-1.67,0.17,0.77,11.9375,25.625,75.6875,0.31689453125,-0.68133544921875,-0.27789306640625,-0.59844970703125,-25.5,-19.25,24.5625,9.72,-0.97,-0.81,moving,10
7.3,27765.41431507,22,3,3,3,3,8.1,-0.87,0.18,-1.6,0.22,0.95,10.0,21.8125,76.125,0.322265625,-0.68157958984375,-0.2735595703125,-0.59722900390625,-28.0625,-16.375,25.0,9.71,-1.1,-0.77,moving,10
7.31,27765.41431507,22,3,3,3,3,7.78,-1.09,0.36,-1.91,0.13,1.09,10.0625,26.125,75.3125,0.32745361328125,-0.6817626953125,-0.26885986328125,-0.596435546875,-28.0625,-16.375,25.0,9.7,-1.23,-0.72,moving,10
7.32,27765.446798835,22,3,3,3,3,7.66,-1.1,0.44,-2.02,0.25,1.12,8.4375,30.1875,75.625,0.33258056640625,-0.68170166015625,-0.263916015625,-0.5958251953125,-28.0625,-16.375,25.0,9.68,-1.36,-0.67,moving,10
7.33,27765.446798835,22,3,3,3,3,7.62,-1.23,0.55,-2.04,0.25,1.17,5.75,29.8125,74.875,0.33746337890625,-0.68170166015625,-0.2589111328125,-0.59527587890625,-28.0625,-16.375,25.0,9.67,-1.48,-0.62,moving,10
7.34,27765.458883429,22,3,3,3,3,7.64,-1.32,0.64,-2.01,0.28,1.21,5.375,29.0,73.3125,0.34228515625,-0.681640625,-0.25396728515625,-0.5947265625,-28.0625,-16.375,25.0,9.65,-1.61,-0.57,moving,10
7.35,27765.458883429,22,3,3,3,3,7.46,-1.42,0.63,-2.17,0.31,1.15,8.375,31.0,70.5,0.34722900390625,-0.6812744140625,-0.2493896484375,-0.59417724609375,-29.5,-14.5625,24.5625,9.63,-1.73,-0.51,moving,10
7.36,27765.473357917,22,3,3,3,3,7.31,-1.4,0.35,-2.3,0.44,0.8,13.4375,33.5625,68.375,0.352294921875,-0.68060302734375,-0.2449951171875,-0.59381103515625,-29.5,-14.5625,24.5625,9.61,-1.84,-0.45,moving,10
7.37,27765.473357917,22,3,3,3,3,7.36,-1.56,-0.02,-2.23,0.39,0.36,18.0,32.375,66.0625,0.35748291015625,-0.67974853515625,-0.24102783203125,-0.59332275390625,-29.5,-14.5625,24.5625,9.6,-1.96,-0.39,moving,10
7.38,27765.506353156,22,3,3,3,3,7.89,-1.99,-1.03,-1.68,0.07,-0.69,20.125,27.5,63.5,0.362548828125,-0.67901611328125,-0.2374267578125,-0.592529296875,-29.5,-14.5625,24.5625,9.57,-2.06,-0.34,moving,10
7.39,27765.506353156,22,3,3,3,3,8.3,-2.2,-1.46,-1.25,-0.03,-1.16,19.8125,22.9375,60.1875,0.3673095703125,-0.678466796875,-0.234130859375,-0.591552734375,-29.5,-14.5625,24.5625,9.55,-2.17,-0.29,moving,10
7.4,27765.5246423,22,3,3,3,3,8.79,-2.35,-1.71,-0.74,-0.08,-1.46,16.0,21.25,57.0625,0.37139892578125,-0.6781005859375,-0.2305908203125,-0.5908203125,-31.0,-13.0625,22.375,9.53,-2.26,-0.25,moving,10
7.41,27765.5246423,22,3,3,3,3,9.29,-2.57,-1.71,-0.21,-0.22,-1.5,10.9375,20.9375,53.8125,0.375244140625,-0.677734375,-0.227294921875,-0.590087890625,-31.0,-13.0625,22.375,9.51,-2.35,-0.21,moving,10
7.42,27765.534562507,22,3,3,3,3,10.46,-2.99,-0.98,0.96,-0.55,-0.8,9.4375,20.5625,50.375,0.3787841796875,-0.6773681640625,-0.22412109375,-0.5894775390625,-31.0,-13.0625,22.375,9.49,-2.44,-0.17,moving,10
7.43,27765.534562507,22,3,3,3,3,10.99,-3.02,-0.51,1.51,-0.51,-0.37,10.9375,15.8125,47.25,0.38214111328125,-0.6771240234375,-0.22137451171875,-0.588623046875,-31.0,-13.0625,22.375,9.47,-2.51,-0.14,moving,10
7.44,27765.567765265,22,3,3,3,3,11.32,-2.93,-0.08,1.86,-0.34,0.05,12.9375,0.5,44.625,0.38525390625,-0.67755126953125,-0.2193603515625,-0.5869140625,-31.0,-13.0625,22.375,9.45,-2.59,-0.14,moving,10
7.45,27765.567765265,22,3,3,3,3,11.6,-2.68,0.22,2.16,-0.01,0.39,14.3125,-16.9375,41.8125,0.3875732421875,-0.6788330078125,-0.21783447265625,-0.58441162109375,-32.375,-10.875,21.5625,9.43,-2.66,-0.16,moving,10
7.46,27765.579209072,22,3,3,3,3,11.95,-2.34,-0.1,2.53,0.38,0.09,14.125,-30.25,39.375,0.38983154296875,-0.6806640625,-0.21722412109375,-0.58099365234375,-32.375,-10.875,21.5625,9.41,-2.72,-0.2,moving,10
7.47,27765.579209072,22,3,3,3,3,12.18,-2.35,-0.46,2.78,0.43,-0.2,12.6875,-37.4375,36.6875,0.3917236328125,-0.68280029296875,-0.21697998046875,-0.5772705078125,-32.375,-10.875,21.5625,9.39,-2.78,-0.26,moving,10
7.48,27765.595040371,22,3,3,3,3,12.33,-2.36,-0.7,2.95,0.47,-0.39,12.1875,-35.0625,32.8125,0.3934326171875,-0.68475341796875,-0.216796875,-0.5738525390625,-32.375,-10.875,21.5625,9.38,-2.84,-0.31,moving,10
7.49,27765.595040371,22,3,3,3,3,12.0,-2.1,-0.71,2.63,0.78,-0.36,11.0625,-27.3125,26.875,0.3948974609375,-0.686279296875,-0.2166748046875,-0.57110595703125,-32.375,-10.875,21.5625,9.36,-2.88,-0.35,moving,10
7.5,27765.628234626,22,3,3,3,3,11.71,-1.94,-0.61,2.36,0.97,-0.23,5.375,-20.125,21.3125,0.39654541015625,-0.687255859375,-0.21710205078125,-0.568603515625,-31.6875,-8.0,22.75,9.35,-2.92,-0.38,moving,10
7.51,27765.628234626,22,3,3,3,3,11.53,-1.98,-0.54,2.19,0.96,-0.12,-5.625,-21.0625,16.5625,0.3966064453125,-0.68878173828125,-0.216552734375,-0.56689453125,-31.6875,-8.0,22.75,9.34,-2.95,-0.41,moving,10
7.52,27765.63995183,22,3,3,3,3,11.5,-2.11,-0.46,2.17,0.84,0.0,-15.125,-25.5625,11.0625,0.395751953125,-0.6907958984375,-0.216064453125,-0.56524658203125,-31.6875,-8.0,22.75,9.33,-2.96,-0.46,moving,10
7.53,27765.63995183,22,3,3,3,3,11.35,-2.37,0.01,2.02,0.59,0.52,-17.8125,-23.5625,4.0,0.39447021484375,-0.692626953125,-0.2156982421875,-0.56402587890625,-31.6875,-8.0,22.75,9.33,-2.97,-0.51,moving,10
7.54,27765.653977709,22,3,3,3,3,11.05,-2.44,0.1,1.72,0.51,0.64,-16.1875,-14.5625,-3.625,0.39300537109375,-0.69384765625,-0.21563720703125,-0.5635986328125,-31.6875,-8.0,22.75,9.33,-2.96,-0.54,moving,10
7.55,27765.653977709,22,3,3,3,3,10.72,-2.55,0.11,1.38,0.38,0.68,-12.4375,-7.1875,-11.4375,0.39154052734375,-0.69439697265625,-0.21600341796875,-0.56378173828125,-31.6875,-8.0,23.0625,9.33,-2.94,-0.56,moving,10
7.56,27765.684760098,22,3,3,3,3,10.19,-2.59,-0.1,0.84,0.31,0.47,-7.0625,-5.375,-18.875,0.39007568359375,-0.694580078125,-0.21697998046875,-0.564208984375,-31.6875,-8.0,23.0625,9.34,-2.91,-0.57,moving,10
7.57,27765.684760098,22,3,3,3,3,10.0,-2.49,-0.27,0.64,0.37,0.31,-1.0,-6.375,-25.375,0.38861083984375,-0.69439697265625,-0.21868896484375,-0.564697265625,-31.6875,-8.0,23.0625,9.35,-2.87,-0.58,moving,10
7.58,27765.699407884,22,3,3,3,3,9.87,-2.43,-0.39,0.49,0.38,0.2,1.6875,-6.25,-31.4375,0.3870849609375,-0.694091796875,-0.22088623046875,-0.56536865234375,-31.6875,-8.0,23.0625,9.37,-2.81,-0.59,moving,10
7.59,27765.699407884,22,3,3,3,3,9.7,-2.34,-0.51,0.31,0.41,0.08,0.8125,-1.6875,-36.6875,0.38525390625,-0.69342041015625,-0.22320556640625,-0.5665283203125,-31.6875,-8.0,23.0625,9.39,-2.75,-0.6,moving,10
7.6,27765.721078132,22,3,3,3,3,9.54,-2.03,-0.72,0.13,0.65,-0.13,-0.6875,4.0625,-41.75,0.38323974609375,-0.6923828125,-0.2255859375,-0.56817626953125,-31.6875,-8.375,24.5625,9.41,-2.69,-0.59,moving,10
7.61,27765.721078132,22,3,3,3,3,9.55,-1.86,-0.71,0.11,0.75,-0.13,-3.5,6.875,-46.375,0.380859375,-0.6912841796875,-0.22802734375,-0.5701904296875,-31.6875,-8.375,24.5625,9.43,-2.61,-0.58,moving,10
7.62,27765.74486162,22,3,3,3,3,9.55,-1.67,-0.75,0.09,0.85,-0.18,-7.6875,9.5625,-50.3125,0.37811279296875,-0.69000244140625,-0.2303466796875,-0.57257080078125,-31.6875,-8.375,24.5625,9.45,-2.53,-0.57,moving,10
7.63,27765.74486162,22,3,3,3,3,9.6,-1.55,-0.82,0.12,0.88,-0.26,-12.4375,9.75,-54.125,0.37481689453125,-0.6888427734375,-0.232666015625,-0.5751953125,-31.6875,-8.375,24.5625,9.48,-2.43,-0.56,moving,10
7.64,27765.776142219,22,3,3,3,3,9.67,-1.5,-0.9,0.16,0.84,-0.35,-16.0625,8.5625,-57.3125,0.37115478515625,-0.687744140625,-0.23504638671875,-0.57794189453125,-31.6875,-8.375,24.5625,9.5,-2.34,-0.55,moving,10
7.65,27765.776142219,22,3,3,3,3,9.68,-1.61,-0.91,0.14,0.62,-0.36,-17.3125,8.6875,-60.75,0.3671875,-0.6866455078125,-0.23748779296875,-0.580810546875,-31.375,-9.0625,23.5,9.53,-2.23,-0.54,moving,10
7.66,27765.78932097,22,3,3,3,3,9.71,-1.69,-1.01,0.16,0.43,-0.48,-15.625,13.125,-64.1875,0.36322021484375,-0.68511962890625,-0.2401123046875,-0.583984375,-31.375,-9.0625,23.5,9.55,-2.13,-0.53,moving,10
7.67,27765.78932097,22,3,3,3,3,9.47,-1.73,-1.21,-0.1,0.28,-0.7,-10.8125,16.25,-66.875,0.3594970703125,-0.6832275390625,-0.2430419921875,-0.5872802734375,-31.375,-9.0625,23.5,9.58,-2.01,-0.5,moving,10
7.68,27765.80653793,22,3,3,3,3,9.42,-1.77,-1.16,-0.18,0.13,-0.67,-6.3125,10.375,-69.5,0.35577392578125,-0.681396484375,-0.24652099609375,-0.5902099609375,-31.375,-9.0625,23.5,9.6,-1.9,-0.49,moving,10
7.69,27765.80653793,22,3,3,3,3,9.37,-1.77,-1.12,-0.25,0.0,-0.63,-3.0,3.0,-71.125,0.35198974609375,-0.6798095703125,-0.25048828125,-0.5926513671875,-31.375,-9.0625,23.5,9.63,-1.78,-0.48,moving,10
7.7,27765.826961473,22,3,3,3,3,9.29,-1.74,-1.0,-0.36,-0.08,-0.51,-1.9375,0.6875,-72.125,0.34796142578125,-0.67828369140625,-0.2545166015625,-0.59503173828125,-31.0,-11.1875,23.0625,9.65,-1.65,-0.48,moving,10
7.71,27765.826961473,22,3,3,3,3,9.08,-1.39,-0.43,-0.58,0.13,0.05,-2.375,-0.0625,-72.5625,0.34405517578125,-0.6767578125,-0.2586669921875,-0.5972900390625,-31.0,-11.1875,23.0625,9.67,-1.53,-0.48,moving,10
7.72,27765.843253791,22,3,3,3,3,8.89,-1.15,-0.17,-0.79,0.25,0.31,-4.5,-2.0625,-72.6875,0.3399658203125,-0.67529296875,-0.2628173828125,-0.59942626953125,-31.0,-11.1875,23.0625,9.69,-1.41,-0.49,moving,10
7.73,27765.843253791,22,3,3,3,3,8.74,-0.9,0.04,-0.96,0.38,0.55,-8.375,-6.0625,-72.25,0.33551025390625,-0.6741943359375,-0.26678466796875,-0.60137939453125,-31.0,-11.1875,23.0625,9.7,-1.28,-0.5,moving,10
7.74,27765.872321703,22,3,3,3,3,8.49,-0.6,0.01,-1.22,0.56,0.54,-14.4375,-13.0,-71.625,0.33056640625,-0.67364501953125,-0.2706298828125,-0.60302734375,-31.0,-11.1875,23.0625,9.72,-1.16,-0.53,moving,10
7.75,27765.872321703,22,3,3,3,3,8.4,-0.51,-0.12,-1.33,0.52,0.43,-18.6875,-18.1875,-71.0,0.324462890625,-0.673828125,-0.27337646484375,-0.60491943359375,-30.5625,-13.0625,21.25,9.73,-1.04,-0.56,moving,10
7.76,27765.878432827,22,3,3,3,3,8.25,-0.38,-0.3,-1.48,0.53,0.3,-18.6875,-20.875,-71.375,0.31903076171875,-0.67376708984375,-0.27716064453125,-0.60614013671875,-30.5625,-13.0625,21.25,9.74,-0.92,-0.6,moving,10
7.77,27765.878432827,22,3,3,3,3,8.12,-0.25,-0.46,-1.62,0.54,0.18,-14.9375,-22.75,-71.9375,0.31378173828125,-0.673583984375,-0.28125,-0.607177734375,-30.5625,-13.0625,21.25,9.75,-0.79,-0.64,moving,10
7.78,27765.894503913,22,3,3,3,3,8.05,-0.03,-0.61,-1.7,0.63,0.07,-9.875,-25.1875,-72.5,0.30877685546875,-0.67340087890625,-0.28564453125,-0.60791015625,-30.5625,-13.0625,21.25,9.75,-0.67,-0.68,moving,10
7.79,27765.894503913,22,3,3,3,3,8.05,0.08,-0.62,-1.7,0.62,0.1,-5.3125,-25.25,-73.3125,0.30389404296875,-0.67303466796875,-0.2904052734375,-0.6085205078125,-30.5625,-13.0625,21.25,9.76,-0.54,-0.73,moving,10
7.8,27765.923954312,22,3,3,3,3,8.04,0.16,-0.61,-1.71,0.58,0.14,-2.25,-20.6875,-73.1875,0.2991943359375,-0.67242431640625,-0.294921875,-0.609375,-29.5625,-15.5625,23.0625,9.76,-0.42,-0.76,moving,10
7.81,27765.923954312,22,3,3,3,3,7.89,0.25,-0.68,-1.87,0.54,0.1,-2.25,-15.1875,-72.4375,0.2947998046875,-0.67138671875,-0.2994384765625,-0.61041259765625,-29.5625,-15.5625,23.0625,9.76,-0.29,-0.79,moving,10
7.82,27765.939893155,22,3,3,3,3,7.89,0.22,-0.77,-1.87,0.4,0.04,-5.3125,-13.375,-71.25,0.29034423828125,-0.67034912109375,-0.3037109375,-0.61163330078125,-29.5625,-15.5625,23.0625,9.77,-0.17,-0.81,moving,10
7.83,27765.939893155,22,3,3,3,3,7.96,0.17,-0.72,-1.8,0.23,0.11,-7.1875,-12.1875,-69.1875,0.285888671875,-0.66937255859375,-0.30767822265625,-0.61285400390625,-29.5625,-15.5625,23.0625,9.77,-0.05,-0.83,moving,10
7.84,27765.953708788,22,3,3,3,3,8.02,0.19,-0.68,-1.74,0.13,0.17,-7.8125,-10.875,-67.25,0.281494140625,-0.6683349609375,-0.31146240234375,-0.61407470703125,-29.5625,-15.5625,23.0625,9.76,0.06,-0.85,moving,10
7.85,27765.953708788,22,3,3,3,3,8.41,0.25,-0.72,-1.34,0.08,0.15,-9.625,-11.5625,-64.4375,0.27716064453125,-0.66741943359375,-0.31494140625,-0.615234375,-27.6875,-17.5,23.875,9.76,0.17,-0.87,moving,10
7.86,27765.987358812,22,3,3,3,3,8.68,0.26,-0.76,-1.07,0.0,0.13,-12.25,-14.125,-61.3125,0.272705078125,-0.66680908203125,-0.3182373046875,-0.61627197265625,-27.6875,-17.5,23.875,9.76,0.27,-0.89,moving,10
7.87,27765.987358812,22,3,3,3,3,8.99,0.38,-0.8,-0.75,0.0,0.11,-13.6875,-16.3125,-57.125,0.26837158203125,-0.6663818359375,-0.3211669921875,-0.61700439453125,-27.6875,-17.5,23.875,9.75,0.37,-0.92,moving,10
7.88,27766.003419929,22,3,3,3,3,9.28,0.51,-0.84,-0.46,0.04,0.1,-14.375,-16.0,-52.9375,0.26422119140625,-0.66607666015625,-0.3238525390625,-0.61773681640625,-27.6875,-17.5,23.875,9.74,0.47,-0.95,moving,10
7.89,27766.003419929,22,3,3,3,3,10.08,0.78,-0.93,0.34,0.22,0.03,-16.0,-12.375,-48.8125,0.26031494140625,-0.66571044921875,-0.32611083984375,-0.61859130859375,-27.6875,-17.5,23.875,9.74,0.55,-0.97,stop,10
7.9,27766.013051643,22,3,3,3,3,9.86,0.82,-1.06,0.12,0.19,-0.1,-17.75,2.125,-45.375,0.25653076171875,-0.6649169921875,-0.327392578125,-0.62042236328125,-26.1875,-19.25,23.0625,9.73,0.63,-0.96,stop,10
7.91,27766.013051643,22,3,3,3,3,9.95,0.82,-0.98,0.21,0.11,-0.02,-17.0,5.1875,-42.5,0.25335693359375,-0.663818359375,-0.32879638671875,-0.62213134765625,-26.1875,-19.25,23.0625,9.73,0.71,-0.95,stop,10
7.92,27766.043636481,22,3,3,3,3,10.27,0.92,-0.78,0.55,0.14,0.18,-13.3125,-8.9375,-38.5,0.250244140625,-0.6634521484375,-0.33050537109375,-0.62286376953125,-26.1875,-19.25,23.0625,9.72,0.78,-0.96,stop,10
7.93,27766.043636481,22,3,3,3,3,11.45,1.17,-0.79,1.73,0.33,0.2,-12.875,-13.4375,-35.75,0.2471923828125,-0.6634521484375,-0.33221435546875,-0.62322998046875,-26.1875,-19.25,23.0625,9.71,0.84,-0.99,stop,10
7.94,27766.062318488,22,3,3,3,3,11.53,1.2,-1.05,1.81,0.3,-0.06,-16.375,-2.8125,-32.0,0.244384765625,-0.66302490234375,-0.33319091796875,-0.62420654296875,-26.1875,-19.25,23.0625,9.71,0.9,-0.99,stop,10
7.95,27766.062318488,22,3,3,3,3,11.65,1.25,-1.09,1.94,0.3,-0.09,-20.75,-2.8125,-28.375,0.24139404296875,-0.662841796875,-0.3336181640625,-0.62530517578125,-25.0625,-21.0625,23.875,9.7,0.95,-0.99,stop,10
7.95,27766.073648363,22,3,3,3,3,11.65,1.25,-1.09,1.94,0.3,-0.09,-20.75,-2.8125,-28.375,0.24139404296875,-0.662841796875,-0.3336181640625,-0.62530517578125,-25.0625,-21.0625,23.875,9.7,0.95,-0.99,stop,10
7.96,27766.073648363,22,3,3,3,3,12.18,1.47,-0.97,2.48,0.47,0.03,-22.625,-10.4375,-24.5,0.2384033203125,-0.6632080078125,-0.33404541015625,-0.62591552734375,-25.0625,-21.0625,23.875,9.7,0.99,-1.0,stop,10
7.97,27766.088546312,22,3,3,3,3,12.39,1.45,-0.94,2.69,0.41,0.07,-23.75,-10.625,-20.625,0.235595703125,-0.66363525390625,-0.33416748046875,-0.62640380859375,-25.0625,-21.0625,23.875,9.69,1.03,-1.02,stop,10
7.98,27766.088546312,22,3,3,3,3,12.34,1.27,-1.04,2.64,0.19,-0.02,-23.5625,1.0625,-18.0625,0.2332763671875,-0.66351318359375,-0.33392333984375,-0.6275634765625,-25.0625,-21.0625,23.875,9.69,1.07,-1.01,stop,10
7.99,27766.103316291,22,3,3,3,3,12.09,1.07,-1.02,2.39,-0.03,-0.04,-21.375,17.125,-15.8125,0.231689453125,-0.66259765625,-0.33331298828125,-0.62945556640625,-25.0625,-21.0625,23.875,9.69,1.1,-0.98,stop,10
8.0,27766.103316291,22,3,3,3,3,11.51,0.62,-0.76,1.81,-0.5,0.17,-16.875,24.625,-13.0,0.23028564453125,-0.661376953125,-0.33221435546875,-0.6318359375,-24.0625,-22.1875,23.0625,9.69,1.12,-0.93,stop,10
8.01,27766.138928636,22,3,3,3,3,11.17,0.47,-0.81,1.48,-0.67,0.08,-12.6875,19.0,-8.8125,0.2296142578125,-0.66033935546875,-0.33160400390625,-0.63348388671875,-24.0625,-22.1875,23.0625,9.69,1.14,-0.9,stop,10
8.02,27766.138928636,22,3,3,3,3,11.15,0.33,-0.69,1.45,-0.81,0.18,-11.5625,7.375,-3.6875,0.22894287109375,-0.6600341796875,-0.3310546875,-0.63427734375,-24.0625,-22.1875,23.0625,9.69,1.15,-0.88,stop,10
8.03,27766.148527717,22,3,3,3,3,10.82,0.25,-0.31,1.12,-0.9,0.56,-10.875,7.1875,0.8125,0.228515625,-0.659912109375,-0.33026123046875,-0.635009765625,-24.0625,-22.1875,23.0625,9.69,1.15,-0.87,stop,10
8.04,27766.148527717,22,3,3,3,3,10.43,0.23,-0.07,0.73,-0.91,0.76,-10.4375,15.875,4.5625,0.2286376953125,-0.65936279296875,-0.3291015625,-0.63616943359375,-24.0625,-22.1875,23.0625,9.7,1.14,-0.84,stop,10
8.05,27766.163436937,22,3,3,3,3,10.37,0.24,0.11,0.66,-0.89,0.93,-9.4375,13.5625,8.5625,0.228271484375,-0.65936279296875,-0.32708740234375,-0.63726806640625,-24.75,-23.25,22.375,9.7,1.13,-0.81,stop,10
8.06,27766.163436937,22,3,3,3,3,10.2,0.31,0.1,0.49,-0.79,0.89,-6.8125,17.25,12.375,0.22906494140625,-0.658935546875,-0.32562255859375,-0.63824462890625,-24.75,-23.25,22.375,9.71,1.11,-0.78,stop,10
8.07,27766.193794685,22,3,3,3,3,9.48,0.37,-0.08,-0.22,-0.72,0.66,-4.0,22.375,14.875,0.23028564453125,-0.65814208984375,-0.3240966796875,-0.63934326171875,-24.75,-23.25,22.375,9.71,1.09,-0.74,stop,10
8.08,27766.193794685,22,3,3,3,3,9.21,0.38,-0.27,-0.5,-0.67,0.43,-1.75,22.9375,17.4375,0.2318115234375,-0.65740966796875,-0.322509765625,-0.640380859375,-24.75,-23.25,22.375,9.72,1.06,-0.71,stop,10
8.09,27766.208645759,22,3,3,3,3,9.12,0.42,-0.44,-0.6,-0.6,0.23,-1.0,19.6875,20.375,0.23345947265625,-0.6568603515625,-0.3209228515625,-0.64111328125,-24.75,-23.25,22.375,9.72,1.02,-0.67,stop,10
8.1,27766.208645759,22,3,3,3,3,9.24,0.39,-0.49,-0.49,-0.59,0.14,-1.25,17.75,21.75,0.23486328125,-0.6566162109375,-0.31903076171875,-0.64178466796875,-25.0625,-22.875,22.0,9.73,0.99,-0.64,stop,10
8.11,27766.223616543,22,3,3,3,3,9.39,0.29,-0.75,-0.34,-0.65,-0.15,-2.5,23.5625,24.9375,0.23675537109375,-0.65606689453125,-0.31695556640625,-0.6427001953125,-25.0625,-22.875,22.0,9.74,0.94,-0.6,stop,10
8.12,27766.223616543,22,3,3,3,3,9.44,0.22,-0.84,-0.3,-0.67,-0.29,-4.4375,30.8125,27.1875,0.2388916015625,-0.6551513671875,-0.31451416015625,-0.64404296875,-25.0625,-22.875,22.0,9.74,0.9,-0.55,stop,10
8.13,27766.260660814,22,3,3,3,3,9.38,0.25,-0.84,-0.36,-0.59,-0.35,-5.0,34.5,28.8125,0.2412109375,-0.65411376953125,-0.31182861328125,-0.64556884765625,-25.0625,-22.875,22.0,9.75,0.85,-0.49,stop,10
8.14,27766.260660814,22,3,3,3,3,9.36,0.19,-0.82,-0.39,-0.6,-0.38,-3.5,32.25,30.0625,0.2435302734375,-0.65313720703125,-0.30926513671875,-0.6468505859375,-25.0625,-22.875,22.0,9.76,0.8,-0.43,stop,10
8.15,27766.268300625,22,3,3,3,3,9.5,0.08,-0.66,-0.26,-0.66,-0.27,-2.125,26.25,30.875,0.245849609375,-0.652587890625,-0.3067626953125,-0.64776611328125,-26.1875,-22.5625,22.0,9.77,0.75,-0.39,stop,10
8.16,27766.268300625,22,3,3,3,3,9.62,0.03,-0.56,-0.15,-0.65,-0.21,-0.375,28.5,31.9375,0.2484130859375,-0.65179443359375,-0.3043212890625,-0.648681640625,-26.1875,-22.5625,22.0,9.77,0.69,-0.34,stop,10
8.17,27766.283852261,22,3,3,3,3,9.38,-0.06,-0.59,-0.39,-0.69,-0.3,1.0,37.3125,32.625,0.2515869140625,-0.65087890625,-0.30145263671875,-0.64971923828125,-26.1875,-22.5625,22.0,9.78,0.63,-0.28,stop,10
8.18,27766.283852261,22,3,3,3,3,9.29,-0.36,-0.55,-0.49,-0.93,-0.31,2.4375,25.625,33.25,0.2542724609375,-0.6502685546875,-0.29913330078125,-0.650390625,-26.1875,-22.5625,22.0,9.78,0.57,-0.24,stop,10
8.19,27766.314440274,22,3,3,3,3,9.6,-0.52,-0.36,-0.18,-1.03,-0.13,8.4375,6.0,33.6875,0.2568359375,-0.65057373046875,-0.297607421875,-0.6497802734375,-26.1875,-22.5625,22.0,9.79,0.51,-0.23,stop,10
8.2,27766.314440274,22,3,3,3,3,9.52,-0.39,-0.34,-0.26,-0.84,-0.12,16.6875,6.3125,33.5,0.25958251953125,-0.65087890625,-0.29620361328125,-0.6490478515625,-27.0,-21.875,20.5,9.79,0.45,-0.22,stop,10
8.21,27766.328664354,22,3,3,3,3,9.2,-0.24,-0.21,-0.58,-0.64,0.0,18.25,13.0625,34.375,0.26287841796875,-0.65057373046875,-0.29498291015625,-0.6485595703125,-27.0,-21.875,20.5,9.79,0.39,-0.2,stop,10
8.22,27766.328664354,22,3,3,3,3,9.1,-0.22,-0.19,-0.69,-0.56,-0.01,13.9375,14.25,35.75,0.26611328125,-0.650390625,-0.29339599609375,-0.648193359375,-27.0,-21.875,20.5,9.79,0.33,-0.17,stop,10
8.23,27766.345074836,22,3,3,3,3,9.07,-0.23,-0.14,-0.72,-0.5,0.01,10.0,9.125,37.0625,0.26898193359375,-0.65057373046875,-0.29168701171875,-0.6475830078125,-27.0,-21.875,20.5,9.8,0.27,-0.16,stop,10
8.24,27766.345074836,22,3,3,3,3,9.05,-0.16,-0.14,-0.74,-0.36,0.01,8.5625,1.75,38.1875,0.27166748046875,-0.6512451171875,-0.2899169921875,-0.64654541015625,-27.0,-21.875,20.5,9.8,0.2,-0.16,stop,10
8.25,27766.374089566,22,3,3,3,3,9.09,-0.05,-0.39,-0.7,-0.19,-0.23,9.5,-3.8125,37.6875,0.2742919921875,-0.65216064453125,-0.2884521484375,-0.64520263671875,-27.6875,-20.375,20.875,9.8,0.14,-0.16,stop,10
8.26,27766.374089566,22,3,3,3,3,9.16,0.0,-0.48,-0.63,-0.08,-0.3,9.9375,-8.25,37.375,0.2767333984375,-0.6533203125,-0.28704833984375,-0.6435546875,-27.6875,-20.375,20.875,9.8,0.07,-0.18,stop,10
8.27,27766.390145556,22,3,3,3,3,9.22,0.0,-0.5,-0.58,-0.01,-0.31,8.4375,-9.4375,36.4375,0.279052734375,-0.654541015625,-0.28564453125,-0.64190673828125,-27.6875,-20.375,20.875,9.8,0.01,-0.19,stop,10
8.28,27766.390145556,22,3,3,3,3,9.2,0.03,-0.49,-0.6,0.08,-0.28,5.875,-7.875,35.8125,0.28118896484375,-0.65576171875,-0.28411865234375,-0.64044189453125,-27.6875,-20.375,20.875,9.8,-0.04,-0.21,stop,10
8.29,27766.403476366,22,3,3,3,3,9.21,-0.05,-0.28,-0.58,0.05,-0.06,3.625,-7.0,34.5625,0.28314208984375,-0.65692138671875,-0.28253173828125,-0.63909912109375,-27.6875,-20.375,20.875,9.8,-0.1,-0.22,stop,10
8.3,27766.403476366,22,3,3,3,3,9.24,-0.1,-0.23,-0.55,0.05,0.0,2.375,-8.875,33.375,0.2850341796875,-0.65814208984375,-0.281005859375,-0.6376953125,-28.375,-20.0,22.0,9.8,-0.16,-0.23,stop,10
8.31,27766.435244433,22,3,3,3,3,9.31,-0.19,-0.29,-0.48,0.02,-0.03,2.875,-10.6875,32.0625,0.28668212890625,-0.659423828125,-0.27960205078125,-0.63616943359375,-28.375,-20.0,22.0,9.8,-0.21,-0.25,stop,10
8.32,27766.435244433,22,3,3,3,3,9.6,-0.35,-0.24,-0.18,-0.08,0.03,4.75,-13.8125,30.5625,0.288330078125,-0.66082763671875,-0.27850341796875,-0.634521484375,-28.375,-20.0,22.0,9.79,-0.27,-0.27,stop,10
8.33,27766.450347623,22,3,3,3,3,9.69,-0.41,-0.2,-0.1,-0.09,0.1,6.5,-14.5625,28.5625,0.28997802734375,-0.66217041015625,-0.27752685546875,-0.63275146484375,-28.375,-20.0,22.0,9.79,-0.32,-0.3,stop,10
8.34,27766.450347623,22,3,3,3,3,9.73,-0.41,-0.24,-0.06,-0.04,0.07,7.375,-10.6875,27.5,0.2916259765625,-0.66326904296875,-0.276611328125,-0.63128662109375,-28.375,-20.0,22.0,9.79,-0.36,-0.32,stop,10
8.35,27766.463555346,22,3,3,3,3,9.83,-0.46,-0.3,0.04,-0.04,0.03,6.5625,-8.125,26.5625,0.29327392578125,-0.6641845703125,-0.275634765625,-0.6300048828125,-28.75,-18.875,21.25,9.79,-0.41,-0.33,stop,10
8.36,27766.463555346,22,3,3,3,3,9.93,-0.55,-0.37,0.14,-0.09,-0.03,5.6875,-7.1875,25.6875,0.29486083984375,-0.6650390625,-0.274658203125,-0.6287841796875,-28.75,-18.875,21.25,9.78,-0.45,-0.34,stop,10
8.37,27766.497142178,22,3,3,3,3,9.9,-0.53,-0.45,0.11,-0.02,-0.09,6.5,-5.3125,24.625,0.29644775390625,-0.665771484375,-0.273681640625,-0.627685546875,-28.75,-18.875,21.25,9.78,-0.5,-0.35,stop,10
8.38,27766.497142178,22,3,3,3,3,9.9,-0.6,-0.41,0.11,-0.05,-0.05,8.25,-3.8125,23.5625,0.29815673828125,-0.66632080078125,-0.27288818359375,-0.62664794921875,-28.75,-18.875,21.25,9.78,-0.54,-0.36,stop,10
8.39,27766.509976448,22,3,3,3,3,9.82,-0.53,-0.29,0.04,0.04,0.06,10.6875,-2.625,22.5625,0.2999267578125,-0.666748046875,-0.272216796875,-0.6256103515625,-28.75,-18.875,21.25,9.78,-0.58,-0.36,stop,10
8.4,27766.509976448,22,3,3,3,3,9.81,-0.52,-0.19,0.03,0.09,0.17,12.8125,-2.0,21.125,0.3026123046875,-0.6666259765625,-0.27264404296875,-0.624267578125,-29.5625,-17.5,23.5,9.78,-0.61,-0.36,stop,10
8.41,27766.527911181,22,3,3,3,3,9.78,-0.43,-0.15,0.0,0.21,0.2,13.5,0.25,19.625,0.304443359375,-0.666748046875,-0.272216796875,-0.62347412109375,-29.5625,-17.5,23.5,9.77,-0.65,-0.36,stop,10
8.42,27766.527911181,22,3,3,3,3,9.69,-0.39,-0.15,-0.08,0.28,0.2,12.875,2.1875,18.3125,0.30621337890625,-0.6666259765625,-0.2718505859375,-0.62286376953125,-29.5625,-17.5,23.5,9.77,-0.68,-0.35,stop,10
8.43,27766.554128629,22,3,3,3,3,9.65,-0.39,-0.3,-0.11,0.31,0.05,10.5,0.875,17.6875,0.3077392578125,-0.6666259765625,-0.27142333984375,-0.62225341796875,-29.5625,-17.5,23.5,9.77,-0.71,-0.35,stop,10
8.44,27766.554128629,22,3,3,3,3,9.7,-0.44,-0.35,-0.06,0.28,0.0,7.9375,-3.9375,16.625,0.30889892578125,-0.6669921875,-0.2711181640625,-0.6214599609375,-29.5625,-17.5,23.5,9.77,-0.73,-0.35,stop,10
8.45,27766.568432665,22,3,3,3,3,9.69,-0.43,-0.55,-0.07,0.32,-0.18,5.8125,-7.8125,15.75,0.3101806640625,-0.66741943359375,-0.271240234375,-0.62030029296875,-29.875,-16.375,22.75,9.77,-0.76,-0.37,stop,10
8.46,27766.568432665,22,3,3,3,3,9.81,-0.42,-0.48,0.04,0.36,-0.09,3.9375,-9.6875,14.4375,0.31097412109375,-0.66815185546875,-0.2708740234375,-0.6192626953125,-29.875,-16.375,22.75,9.76,-0.78,-0.38,stop,10
8.47,27766.58446184,22,3,3,3,3,9.74,-0.37,-0.47,-0.01,0.43,-0.08,1.25,-5.125,13.375,0.3116455078125,-0.66876220703125,-0.270263671875,-0.61859130859375,-29.875,-16.375,22.75,9.76,-0.8,-0.39,stop,10
8.48,27766.58446184,22,3,3,3,3,9.6,-0.43,-0.51,-0.15,0.39,-0.12,-3.125,1.3125,12.5,0.3121337890625,-0.6690673828125,-0.26934814453125,-0.618408203125,-29.875,-16.375,22.75,9.76,-0.82,-0.39,stop,10
8.49,27766.619936327,22,3,3,3,3,9.67,-0.51,-0.46,-0.08,0.32,-0.06,-5.6875,-0.625,11.1875,0.312255859375,-0.66949462890625,-0.2685546875,-0.61822509765625,-29.875,-16.375,22.75,9.76,-0.84,-0.39,stop,10
8.5,27766.619936327,22,3,3,3,3,9.69,-0.55,-0.46,-0.07,0.3,-0.05,-4.625,-3.125,9.6875,0.312255859375,-0.66998291015625,-0.26800537109375,-0.617919921875,-29.5625,-16.6875,22.75,9.76,-0.85,-0.4,stop,10
8.51,27766.628718554,22,3,3,3,3,9.82,-0.57,-0.37,0.06,0.29,0.03,-2.4375,-2.9375,8.0625,0.31231689453125,-0.67034912109375,-0.267578125,-0.61761474609375,-29.5625,-16.6875,22.75,9.75,-0.86,-0.41,stop,10
8.52,27766.628718554,22,3,3,3,3,9.84,-0.57,-0.28,0.08,0.29,0.13,-1.375,-1.375,6.6875,0.3125,-0.6705322265625,-0.26727294921875,-0.61749267578125,-29.5625,-16.6875,22.75,9.75,-0.87,-0.41,stop,10
8.53,27766.665997118,22,3,3,3,3,9.82,-0.6,-0.26,0.06,0.27,0.13,-1.625,2.75,5.375,0.31268310546875,-0.67047119140625,-0.26690673828125,-0.61761474609375,-29.5625,-16.6875,22.75,9.75,-0.87,-0.4,stop,10
8.54,27766.665997118,22,3,3,3,3,9.72,-0.73,-0.46,-0.03,0.14,-0.06,-1.0625,6.3125,4.1875,0.31292724609375,-0.67022705078125,-0.2664794921875,-0.617919921875,-29.5625,-16.6875,22.75,9.75,-0.88,-0.39,stop,10
8.55,27766.674250984,22,3,3,3,3,9.69,-0.75,-0.52,-0.05,0.13,-0.13,0.125,6.3125,3.1875,0.3134765625,-0.6697998046875,-0.26654052734375,-0.61810302734375,-29.1875,-16.375,23.875,9.75,-0.88,-0.38,stop,10
8.56,27766.674250984,22,3,3,3,3,9.66,-0.77,-0.46,-0.09,0.11,-0.08,1.4375,4.5625,2.375,0.31378173828125,-0.66961669921875,-0.266357421875,-0.61822509765625,-29.1875,-16.375,23.875,9.75,-0.89,-0.37,stop,10
8.57,27766.689616137,22,3,3,3,3,9.71,-0.68,-0.44,-0.04,0.2,-0.06,2.0,1.375,1.8125,0.31396484375,-0.66949462890625,-0.266357421875,-0.61822509765625,-29.1875,-16.375,23.875,9.75,-0.89,-0.37,stop,10
8.58,27766.689616137,22,3,3,3,3,9.75,-0.67,-0.49,0.0,0.21,-0.12,-0.4375,0.1875,1.5625,0.31402587890625,-0.6695556640625,-0.266357421875,-0.61822509765625,-29.1875,-16.375,23.875,9.75,-0.89,-0.37,stop,10
8.59,27766.720836067,22,3,3,3,3,9.8,-0.78,-0.56,0.04,0.11,-0.18,-4.0,0.6875,1.1875,0.31378173828125,-0.669677734375,-0.26605224609375,-0.6182861328125,-29.1875,-16.375,23.875,9.75,-0.89,-0.37,stop,10
8.6,27766.720836067,22,3,3,3,3,9.62,-0.75,-0.71,-0.13,0.14,-0.34,-5.25,5.0,0.875,0.313720703125,-0.6695556640625,-0.26580810546875,-0.61859130859375,-30.1875,-16.0,23.0625,9.75,-0.89,-0.37,stop,10
8.61,27766.735561083,22,3,3,3,3,9.69,-0.67,-0.6,-0.06,0.21,-0.23,-3.6875,5.3125,0.3125,0.31353759765625,-0.66943359375,-0.2655029296875,-0.61895751953125,-30.1875,-16.0,23.0625,9.75,-0.89,-0.36,stop,10
8.62,27766.735561083,22,3,3,3,3,9.89,-0.64,-0.37,0.13,0.25,-0.01,-2.6875,1.4375,-0.125,0.3133544921875,-0.66943359375,-0.265380859375,-0.61907958984375,-30.1875,-16.0,23.0625,9.75,-0.89,-0.36,stop,10
8.63,27766.74961809,22,3,3,3,3,9.8,-0.67,-0.4,0.04,0.21,-0.04,-3.6875,5.1875,-1.125,0.3131103515625,-0.66925048828125,-0.26519775390625,-0.6195068359375,-30.1875,-16.0,23.0625,9.75,-0.88,-0.35,stop,10
8.64,27766.74961809,22,3,3,3,3,9.69,-0.7,-0.42,-0.06,0.17,-0.08,-5.625,8.4375,-1.3125,0.3128662109375,-0.66888427734375,-0.2647705078125,-0.62017822265625,-30.1875,-16.0,23.0625,9.76,-0.88,-0.34,stop,10
8.65,27766.783254849,22,3,3,3,3,9.7,-0.7,-0.4,-0.05,0.17,-0.06,-5.1875,7.125,-2.0,0.31256103515625,-0.6685791015625,-0.26446533203125,-0.6207275390625,-29.5625,-16.0,22.375,9.76,-0.87,-0.33,stop,10
8.66,27766.783254849,22,3,3,3,3,9.68,-0.66,-0.45,-0.08,0.2,-0.13,-3.75,6.9375,-2.8125,0.312255859375,-0.66827392578125,-0.26434326171875,-0.621337890625,-29.5625,-16.0,22.375,9.76,-0.87,-0.32,stop,10
8.67,27766.794214932,22,3,3,3,3,9.62,-0.67,-0.51,-0.13,0.19,-0.2,-3.375,8.6875,-3.625,0.31201171875,-0.6678466796875,-0.26416015625,-0.62200927734375,-29.5625,-16.0,22.375,9.76,-0.86,-0.3,stop,10
8.68,27766.794214932,22,3,3,3,3,9.54,-0.74,-0.49,-0.21,0.11,-0.2,-2.75,10.3125,-4.4375,0.31182861328125,-0.66729736328125,-0.2640380859375,-0.62274169921875,-29.5625,-16.0,22.375,9.76,-0.85,-0.29,stop,10
8.69,27766.812659024,22,3,3,3,3,9.54,-0.71,-0.49,-0.21,0.12,-0.21,-1.5,10.0,-5.1875,0.31158447265625,-0.66668701171875,-0.2640380859375,-0.62347412109375,-29.5625,-16.0,22.375,9.76,-0.84,-0.27,stop,10
8.7,27766.812659024,22,3,3,3,3,9.58,-0.72,-0.46,-0.18,0.11,-0.2,-0.4375,11.3125,-5.9375,0.3114013671875,-0.666015625,-0.2640380859375,-0.624267578125,-30.1875,-16.0,21.25,9.76,-0.83,-0.26,stop,10
8.71,27766.827032926,22,3,3,3,3,9.6,-0.71,-0.35,-0.16,0.1,-0.11,-0.0625,11.5,-6.5,0.311279296875,-0.665283203125,-0.26416015625,-0.62506103515625,-30.1875,-16.0,21.25,9.76,-0.82,-0.24,stop,10
8.72,27766.827032926,22,3,3,3,3,9.68,-0.7,-0.19,-0.08,0.1,0.03,0.0,9.4375,-6.8125,0.31109619140625,-0.66461181640625,-0.2642822265625,-0.62579345703125,-30.1875,-16.0,21.25,9.77,-0.81,-0.22,stop,10
8.73,27766.855143399,22,3,3,3,3,9.76,-0.68,-0.17,0.0,0.11,0.04,-0.3125,5.0625,-6.6875,0.31085205078125,-0.6641845703125,-0.26458740234375,-0.62628173828125,-30.1875,-16.0,21.25,9.77,-0.79,-0.21,stop,10
8.74,27766.855143399,22,3,3,3,3,9.83,-0.69,-0.15,0.06,0.09,0.06,-0.75,-0.125,-6.625,0.3104248046875,-0.6640625,-0.264892578125,-0.62646484375,-30.1875,-16.0,21.25,9.77,-0.78,-0.21,stop,10
8.75,27766.869247322,22,3,3,3,3,9.93,-0.69,-0.12,0.16,0.08,0.09,-1.3125,-3.5,-6.75,0.3099365234375,-0.6640625,-0.265380859375,-0.62646484375,-29.875,-16.0,22.0,9.77,-0.77,-0.22,stop,10
8.76,27766.869247322,22,3,3,3,3,10.07,-0.61,-0.05,0.29,0.14,0.17,-1.625,-3.3125,-7.0625,0.30938720703125,-0.6641845703125,-0.26580810546875,-0.62652587890625,-29.875,-16.0,22.0,9.77,-0.76,-0.23,stop,10
8.77,27766.90058509,22,3,3,3,3,10.0,-0.52,0.01,0.23,0.23,0.24,-2.625,0.5,-7.125,0.308837890625,-0.6640625,-0.26611328125,-0.62677001953125,-29.875,-16.0,22.0,9.77,-0.75,-0.23,stop,10
8.78,27766.90058509,22,3,3,3,3,9.89,-0.57,-0.03,0.12,0.16,0.18,-4.625,5.375,-6.9375,0.308349609375,-0.66375732421875,-0.26611328125,-0.62738037109375,-29.875,-16.0,22.0,9.77,-0.73,-0.22,stop,10
8.79,27766.914514045,22,3,3,3,3,9.76,-0.6,-0.15,-0.01,0.12,0.05,-5.9375,5.9375,-6.625,0.3077392578125,-0.66339111328125,-0.2659912109375,-0.6280517578125,-29.875,-16.0,22.0,9.77,-0.72,-0.21,stop,10
8.8,27766.914514045,22,3,3,3,3,9.82,-0.61,-0.06,0.04,0.09,0.14,-5.3125,2.375,-6.875,0.30712890625,-0.6632080078125,-0.26605224609375,-0.6285400390625,-29.5,-17.0625,22.0,9.77,-0.71,-0.2,stop,10
8.81,27766.933970914,22,3,3,3,3,9.73,-0.58,-0.11,-0.04,0.11,0.08,-3.8125,5.4375,-7.0625,0.306640625,-0.662841796875,-0.26611328125,-0.629150390625,-29.5,-17.0625,22.0,9.77,-0.7,-0.19,stop,10
8.82,27766.933970914,22,3,3,3,3,9.61,-0.57,-0.09,-0.16,0.11,0.09,-3.4375,9.0,-7.375,0.30621337890625,-0.6622314453125,-0.26611328125,-0.62994384765625,-29.5,-17.0625,22.0,9.78,-0.68,-0.18,stop,10
8.83,27766.959222704,22,3,3,3,3,9.78,-0.62,0.07,0.0,0.05,0.25,-2.75,3.375,-6.9375,0.30572509765625,-0.66192626953125,-0.26629638671875,-0.63043212890625,-29.5,-17.0625,22.0,9.78,-0.67,-0.17,stop,10
8.84,27766.959222704,22,3,3,3,3,9.73,-0.5,-0.05,-0.04,0.16,0.12,-0.5,-2.3125,-6.875,0.3052978515625,-0.661865234375,-0.2667236328125,-0.6304931640625,-29.5,-17.0625,22.0,9.78,-0.66,-0.18,stop,10
8.85,27766.974048388,22,3,3,3,3,9.98,-0.54,-0.02,0.2,0.1,0.15,-2.8125,-4.25,-6.125,0.30474853515625,-0.6619873046875,-0.26715087890625,-0.6304931640625,-29.875,-16.6875,22.0,9.78,-0.65,-0.18,stop,10
8.86,27766.974048388,22,3,3,3,3,9.63,-0.63,-0.24,-0.14,0.01,-0.06,-7.125,3.0625,-6.0,0.3040771484375,-0.661865234375,-0.2669677734375,-0.63104248046875,-29.875,-16.6875,22.0,9.78,-0.64,-0.18,stop,10
8.87,27766.988127652,22,3,3,3,3,9.55,-0.57,-0.26,-0.23,0.05,-0.09,-6.5625,10.5,-5.9375,0.3035888671875,-0.66131591796875,-0.2667236328125,-0.6319580078125,-29.875,-16.6875,22.0,9.78,-0.63,-0.16,stop,10
8.88,27766.988127652,22,3,3,3,3,9.61,-0.52,-0.21,-0.16,0.09,-0.04,-1.9375,2.125,-6.625,0.30316162109375,-0.66107177734375,-0.26690673828125,-0.63232421875,-29.875,-16.6875,22.0,9.78,-0.62,-0.16,stop,10
8.89,27767.019068001,22,3,3,3,3,9.84,-0.4,-0.18,0.06,0.2,0.0,1.5,-6.1875,-6.3125,0.302734375,-0.6612548828125,-0.267578125,-0.632080078125,-29.875,-16.6875,22.0,9.78,-0.6,-0.17,stop,10
8.9,27767.019068001,22,3,3,3,3,9.66,-0.41,-0.27,-0.12,0.18,-0.1,0.625,-1.125,-6.75,0.30230712890625,-0.6611328125,-0.26800537109375,-0.6322021484375,-30.5625,-16.375,20.5,9.78,-0.59,-0.17,stop,10
8.91,27767.033732226,22,3,3,3,3,9.63,-0.49,-0.24,-0.15,0.08,-0.07,-2.0,5.5,-6.5,0.30194091796875,-0.66070556640625,-0.2681884765625,-0.63275146484375,-30.5625,-16.375,20.5,9.78,-0.58,-0.16,stop,10
8.92,27767.033732226,22,3,3,3,3,9.65,-0.53,-0.23,-0.13,0.03,-0.08,-2.875,7.0625,-6.0625,0.30157470703125,-0.6602783203125,-0.2681884765625,-0.63336181640625,-30.5625,-16.375,20.5,9.78,-0.57,-0.15,stop,10
8.93,27767.054891161,22,3,3,3,3,9.63,-0.53,-0.13,-0.15,0.03,0.01,-2.25,4.5,-5.8125,0.30126953125,-0.65997314453125,-0.268310546875,-0.63385009765625,-30.5625,-16.375,20.5,9.78,-0.56,-0.14,stop,10
8.94,27767.054891161,22,3,3,3,3,9.75,-0.56,-0.25,-0.03,0.0,-0.1,-2.375,0.9375,-5.5625,0.30084228515625,-0.65985107421875,-0.2684326171875,-0.63409423828125,-30.5625,-16.375,20.5,9.78,-0.55,-0.14,stop,10
8.95,27767.078672737,22,3,3,3,3,9.54,-0.53,-0.38,-0.24,0.01,-0.23,-2.4375,0.0,-5.3125,0.3004150390625,-0.6597900390625,-0.2686767578125,-0.63421630859375,-29.5,-17.5,22.0,9.79,-0.54,-0.14,stop,10
8.96,27767.078672737,22,3,3,3,3,9.47,-0.42,-0.51,-0.31,0.11,-0.36,-0.9375,-2.1875,-4.8125,0.29998779296875,-0.659912109375,-0.26898193359375,-0.63421630859375,-29.5,-17.5,22.0,9.79,-0.53,-0.15,stop,10
8.97,27767.093712654,22,3,3,3,3,9.94,-0.4,-0.17,0.15,0.12,0.0,0.9375,-9.9375,-5.1875,0.29949951171875,-0.66033935546875,-0.2696533203125,-0.63372802734375,-29.5,-17.5,22.0,9.79,-0.52,-0.17,stop,10
8.98,27767.093712654,22,3,3,3,3,9.91,-0.26,-0.13,0.12,0.25,0.04,3.5625,-7.5625,-6.1875,0.29913330078125,-0.66046142578125,-0.27044677734375,-0.63336181640625,-29.5,-17.5,22.0,9.79,-0.51,-0.18,stop,10
8.99,27767.109210294,22,3,3,3,3,9.75,-0.29,-0.18,-0.03,0.21,0.0,1.6875,3.0625,-6.3125,0.29888916015625,-0.66009521484375,-0.27081298828125,-0.6336669921875,-29.5,-17.5,22.0,9.79,-0.5,-0.17,stop,10
9.0,27767.109210294,22,3,3,3,3,9.77,-0.44,-0.12,-0.02,0.04,0.04,-1.75,3.625,-5.75,0.29827880859375,-0.659912109375,-0.27069091796875,-0.63421630859375,-29.875,-17.75,20.5,9.79,-0.49,-0.17,stop,10
9.01,27767.140238451,22,3,3,3,3,9.96,-0.34,0.16,0.17,0.13,0.33,1.5,0.0625,-6.3125,0.29803466796875,-0.65972900390625,-0.27117919921875,-0.63433837890625,-29.875,-17.75,20.5,9.79,-0.48,-0.17,stop,10
9.02,27767.140238451,22,3,3,3,3,9.98,-0.26,0.06,0.18,0.2,0.23,4.125,0.75,-6.5625,0.29791259765625,-0.659423828125,-0.271728515625,-0.63446044921875,-29.875,-17.75,20.5,9.79,-0.47,-0.17,stop,10
9.03,27767.160547737,22,3,3,3,3,9.77,-0.37,-0.14,-0.01,0.08,0.01,0.0625,6.4375,-5.9375,0.2977294921875,-0.658935546875,-0.27191162109375,-0.635009765625,-29.875,-17.75,20.5,9.79,-0.46,-0.15,stop,10
9.04,27767.160547737,22,3,3,3,3,9.68,-0.48,-0.27,-0.11,-0.03,-0.12,-1.9375,6.5625,-5.6875,0.29742431640625,-0.658447265625,-0.27197265625,-0.63555908203125,-29.875,-17.75,20.5,9.79,-0.45,-0.14,stop,10
9.05,27767.170295214,22,3,3,3,3,9.78,-0.38,-0.19,-0.01,0.05,-0.04,0.625,-0.8125,-6.375,0.2969970703125,-0.65838623046875,-0.2723388671875,-0.6357421875,-29.875,-17.75,20.875,9.79,-0.43,-0.14,stop,10
9.06,27767.170295214,22,3,3,3,3,9.78,-0.34,-0.15,-0.01,0.08,0.0,2.9375,-1.3125,-6.5,0.29681396484375,-0.658203125,-0.27288818359375,-0.6357421875,-29.875,-17.75,20.875,9.79,-0.42,-0.15,stop,10
9.07,27767.187885709,22,3,3,3,3,9.79,-0.31,-0.09,0.0,0.1,0.05,2.125,2.375,-6.0625,0.296630859375,-0.65789794921875,-0.2733154296875,-0.635986328125,-29.875,-17.75,20.875,9.79,-0.41,-0.14,stop,10
9.08,27767.187885709,22,3,3,3,3,9.76,-0.33,-0.03,-0.03,0.07,0.09,0.5,5.875,-5.625,0.29644775390625,-0.65740966796875,-0.27349853515625,-0.636474609375,-29.875,-17.75,20.875,9.79,-0.4,-0.13,stop,10
9.09,27767.21450485,22,3,3,3,3,9.74,-0.35,0.01,-0.05,0.04,0.14,-1.125,6.9375,-5.3125,0.2962646484375,-0.65692138671875,-0.2735595703125,-0.6370849609375,-29.875,-17.75,20.875,9.79,-0.39,-0.12,stop,10
9.1,27767.21450485,22,3,3,3,3,9.83,-0.33,0.07,0.03,0.05,0.19,-0.6875,4.9375,-5.0,0.2958984375,-0.6566162109375,-0.2735595703125,-0.6375732421875,-29.1875,-18.5625,21.25,9.79,-0.38,-0.11,stop,10
9.11,27767.228554451,22,3,3,3,3,9.84,-0.3,0.03,0.04,0.08,0.14,0.5625,3.5,-5.0,0.29571533203125,-0.65625,-0.27374267578125,-0.637939453125,-29.1875,-18.5625,21.25,9.79,-0.38,-0.1,stop,10
9.12,27767.228554451,22,3,3,3,3,9.83,-0.28,-0.12,0.03,0.09,-0.02,0.6875,2.9375,-4.9375,0.2955322265625,-0.65594482421875,-0.27398681640625,-0.63824462890625,-29.1875,-18.5625,21.25,9.79,-0.37,-0.1,stop,10
9.13,27767.243643318,22,3,3,3,3,9.85,-0.29,-0.18,0.05,0.07,-0.08,0.125,1.875,-4.625,0.29534912109375,-0.65570068359375,-0.27423095703125,-0.638427734375,-29.1875,-18.5625,21.25,9.79,-0.36,-0.1,stop,10
9.14,27767.243643318,22,3,3,3,3,9.84,-0.29,-0.23,0.04,0.06,-0.14,-0.75,2.9375,-4.6875,0.29510498046875,-0.65545654296875,-0.2744140625,-0.6387939453125,-29.1875,-18.5625,21.25,9.79,-0.35,-0.09,stop,10
9.15,27767.274059171,22,3,3,3,3,9.73,-0.26,-0.12,-0.06,0.08,-0.03,-1.1875,5.6875,-4.1875,0.294921875,-0.655029296875,-0.2744140625,-0.63922119140625,-29.1875,-17.5,20.875,9.8,-0.34,-0.08,stop,10
9.16,27767.274059171,22,3,3,3,3,9.64,-0.24,-0.03,-0.15,0.09,0.03,-0.5625,7.25,-4.3125,0.2947998046875,-0.654541015625,-0.27447509765625,-0.6397705078125,-29.1875,-17.5,20.875,9.8,-0.34,-0.07,stop,10
9.17,27767.28915524,22,3,3,3,3,9.69,-0.23,0.0,-0.1,0.1,0.05,0.9375,5.625,-4.125,0.29473876953125,-0.65411376953125,-0.274658203125,-0.64019775390625,-29.1875,-17.5,20.875,9.8,-0.33,-0.06,stop,10
9.18,27767.28915524,22,3,3,3,3,9.78,-0.24,0.01,-0.01,0.07,0.07,1.3125,2.625,-4.0625,0.294677734375,-0.65380859375,-0.27490234375,-0.64044189453125,-29.1875,-17.5,20.875,9.8,-0.32,-0.05,stop,10
9.19,27767.320123583,22,3,3,3,3,9.79,-0.25,-0.07,0.0,0.06,-0.01,0.5625,2.375,-3.75,0.2945556640625,-0.653564453125,-0.27508544921875,-0.640625,-29.1875,-17.5,20.875,9.8,-0.31,-0.05,stop,10
9.2,27767.320123583,22,3,3,3,3,9.69,-0.28,-0.07,-0.11,0.02,-0.02,-0.75,4.6875,-3.625,0.294677734375,-0.65313720703125,-0.27545166015625,-0.640869140625,-29.5,-17.75,22.0,9.8,-0.31,-0.04,stop,10
9.21,27767.333587003,22,3,3,3,3,9.81,-0.3,0.01,0.01,0.0,0.05,-1.9375,5.25,-2.875,0.2945556640625,-0.65283203125,-0.27532958984375,-0.64129638671875,-29.5,-17.75,22.0,9.8,-0.3,-0.03,stop,10
9.22,27767.333587003,22,3,3,3,3,9.8,-0.24,0.01,0.0,0.05,0.04,-0.4375,4.875,-3.0,0.29449462890625,-0.6524658203125,-0.275390625,-0.64166259765625,-29.5,-17.75,22.0,9.8,-0.3,-0.03,stop,10
9.23,27767.350290982,22,3,3,3,3,9.75,-0.2,-0.04,-0.04,0.09,-0.02,0.1875,4.625,-3.0625,0.29443359375,-0.652099609375,-0.27545166015625,-0.64202880859375,-29.5,-17.75,22.0,9.8,-0.29,-0.02,stop,10
9.24,27767.350290982,22,3,3,3,3,9.75,-0.24,-0.03,-0.04,0.04,-0.02,-0.6875,3.1875,-2.625,0.2943115234375,-0.65191650390625,-0.2755126953125,-0.64227294921875,-29.5,-17.75,22.0,9.8,-0.29,-0.01,stop,10
9.25,27767.379557584,22,3,3,3,3,9.72,-0.27,-0.1,-0.07,0.01,-0.09,-0.5625,4.375,-3.0,0.2943115234375,-0.65155029296875,-0.275634765625,-0.642578125,-29.875,-17.75,21.25,9.8,-0.28,0.0,stop,10
9.26,27767.379557584,22,3,3,3,3,9.65,-0.3,-0.19,-0.14,-0.02,-0.19,0.25,6.0625,-2.8125,0.29425048828125,-0.651123046875,-0.275634765625,-0.64300537109375,-29.875,-17.75,21.25,9.8,-0.28,0.0,stop,10
9.27,27767.396319913,22,3,3,3,3,9.62,-0.3,-0.18,-0.17,-0.02,-0.19,1.375,5.5,-2.5625,0.2943115234375,-0.6507568359375,-0.2757568359375,-0.643310546875,-29.875,-17.75,21.25,9.8,-0.27,0.0,stop,10
9.28,27767.396319913,22,3,3,3,3,9.64,-0.28,-0.13,-0.15,-0.01,-0.14,2.75,3.125,-2.4375,0.29443359375,-0.6505126953125,-0.27593994140625,-0.6434326171875,-29.875,-17.75,21.25,9.8,-0.27,0.01,stop,10
9.29,27767.408354825,22,3,3,3,3,9.69,-0.26,-0.07,-0.11,0.0,-0.09,3.375,0.0,-2.125,0.29449462890625,-0.650390625,-0.27630615234375,-0.6434326171875,-29.875,-17.75,21.25,9.8,-0.26,0.01,stop,10
9.3,27767.408354825,22,3,3,3,3,9.66,-0.3,-0.06,-0.13,-0.03,-0.07,2.5,0.0,-1.625,0.2945556640625,-0.6502685546875,-0.27655029296875,-0.64337158203125,-30.1875,-17.75,20.875,9.8,-0.26,0.01,stop,10
9.31,27767.439237678,22,3,3,3,3,9.62,-0.25,-0.14,-0.17,0.0,-0.16,1.1875,1.5625,-1.0625,0.29461669921875,-0.650146484375,-0.27667236328125,-0.6434326171875,-30.1875,-17.75,20.875,9.8,-0.26,0.01,stop,10
9.32,27767.439237678,22,3,3,3,3,9.75,-0.26,-0.09,-0.04,0.0,-0.11,1.125,0.1875,-0.9375,0.29461669921875,-0.65008544921875,-0.27679443359375,-0.64337158203125,-30.1875,-17.75,20.875,9.8,-0.26,0.01,stop,10
9.33,27767.453441455,22,3,3,3,3,9.68,-0.21,-0.05,-0.12,0.04,-0.07,2.0625,1.6875,-0.8125,0.294677734375,-0.64996337890625,-0.27691650390625,-0.6434326171875,-30.1875,-17.75,20.875,9.8,-0.26,0.01,stop,10
9.34,27767.453441455,22,3,3,3,3,9.68,-0.22,0.02,-0.12,0.03,0.0,2.375,2.625,-0.9375,0.29486083984375,-0.64971923828125,-0.27703857421875,-0.6435546875,-30.1875,-17.75,20.875,9.8,-0.26,0.02,stop,10
9.35,27767.469378466,22,3,3,3,3,9.69,-0.21,0.07,-0.11,0.03,0.04,2.4375,0.9375,-0.6875,0.294921875,-0.64959716796875,-0.27716064453125,-0.64361572265625,-28.375,-18.5625,20.875,9.8,-0.25,0.02,stop,10
9.36,27767.469378466,22,3,3,3,3,9.68,-0.21,0.07,-0.12,0.04,0.04,3.3125,-0.6875,-0.8125,0.2950439453125,-0.6495361328125,-0.2774658203125,-0.64349365234375,-28.375,-18.5625,20.875,9.8,-0.25,0.02,stop,10
9.37,27767.500322314,22,3,3,3,3,9.71,-0.22,-0.04,-0.08,0.03,-0.06,3.4375,-2.375,-0.625,0.295166015625,-0.6495361328125,-0.27777099609375,-0.643310546875,-28.375,-18.5625,20.875,9.8,-0.25,0.01,stop,10
9.38,27767.500322314,22,3,3,3,3,9.74,-0.24,-0.08,-0.05,0.01,-0.09,2.75,-2.625,-0.3125,0.29522705078125,-0.649658203125,-0.2779541015625,-0.64306640625,-28.375,-18.5625,20.875,9.8,-0.25,0.01,stop,10
9.39,27767.513814257,22,3,3,3,3,9.72,-0.28,-0.14,-0.07,-0.03,-0.15,1.9375,-2.0625,0.0,0.2952880859375,-0.64971923828125,-0.27813720703125,-0.64288330078125,-28.375,-18.5625,20.875,9.8,-0.25,0.01,stop,10
9.4,27767.513814257,22,3,3,3,3,9.71,-0.27,-0.14,-0.08,-0.02,-0.15,2.1875,-2.125,0.0,0.2952880859375,-0.64984130859375,-0.27825927734375,-0.64276123046875,-29.875,-17.75,19.75,9.8,-0.25,0.0,stop,10
9.41,27767.528785367,22,3,3,3,3,9.76,-0.23,-0.02,-0.03,0.02,-0.02,2.75,-3.4375,0.0,0.29534912109375,-0.64996337890625,-0.27850341796875,-0.6424560546875,-29.875,-17.75,19.75,9.8,-0.25,0.0,stop,10
9.42,27767.528785367,22,3,3,3,3,9.78,-0.16,0.04,-0.01,0.08,0.05,3.25,-4.6875,0.0,0.29541015625,-0.650146484375,-0.27880859375,-0.64208984375,-29.875,-17.75,19.75,9.8,-0.25,0.0,stop,10
9.43,27767.565953214,22,3,3,3,3,9.81,-0.14,0.1,0.0,0.1,0.12,2.9375,-4.75,0.0,0.29547119140625,-0.65032958984375,-0.27911376953125,-0.64178466796875,-29.875,-17.75,19.75,9.8,-0.25,-0.01,stop,10
9.44,27767.565953214,22,3,3,3,3,9.85,-0.17,0.07,0.05,0.08,0.09,2.25,-4.4375,0.125,0.29547119140625,-0.6505126953125,-0.27935791015625,-0.6414794921875,-29.875,-17.75,19.75,9.8,-0.25,-0.02,stop,10
9.45,27767.578014046,22,3,3,3,3,9.85,-0.21,0.08,0.04,0.04,0.11,1.5,-3.5625,0.0,0.2955322265625,-0.650634765625,-0.27960205078125,-0.6412353515625,-30.1875,-18.1875,21.25,9.8,-0.25,-0.02,stop,10
9.46,27767.578014046,22,3,3,3,3,9.87,-0.22,0.1,0.06,0.03,0.14,0.9375,-3.0625,0.0,0.29547119140625,-0.6507568359375,-0.27972412109375,-0.64105224609375,-30.1875,-18.1875,21.25,9.8,-0.25,-0.03,stop,10
9.47,27767.589922859,22,3,3,3,3,9.87,-0.23,0.07,0.06,0.02,0.1,0.25,-1.1875,0.0,0.29547119140625,-0.65081787109375,-0.27972412109375,-0.6409912109375,-30.1875,-18.1875,21.25,9.8,-0.25,-0.03,stop,10
9.48,27767.589922859,22,3,3,3,3,9.66,-0.29,-0.07,-0.14,-0.04,-0.03,-0.25,0.3125,0.1875,0.29547119140625,-0.65081787109375,-0.27972412109375,-0.6409912109375,-30.1875,-18.1875,21.25,9.8,-0.25,-0.03,stop,10
9.49,27767.619597542,22,3,3,3,3,9.7,-0.28,-0.15,-0.09,-0.02,-0.12,0.3125,-1.25,0.0,0.29541015625,-0.65087890625,-0.27978515625,-0.64093017578125,-30.1875,-18.1875,21.25,9.8,-0.25,-0.03,stop,10
9.5,27767.619597542,22,3,3,3,3,9.8,-0.26,-0.06,0.0,0.0,-0.01,1.5625,-3.25,-0.1875,0.29498291015625,-0.65118408203125,-0.279541015625,-0.64093017578125,-29.875,-18.875,20.5,9.8,-0.25,-0.04,stop,10
9.51,27767.635223559,22,3,3,3,3,9.76,-0.23,0.0,-0.04,0.01,0.04,1.5,-1.3125,-0.125,0.2950439453125,-0.6512451171875,-0.2796630859375,-0.64080810546875,-29.875,-18.875,20.5,9.8,-0.25,-0.04,stop,10
9.52,27767.635223559,22,3,3,3,3,9.68,-0.25,-0.03,-0.12,0.0,0.0,0.1875,3.8125,0.0,0.295166015625,-0.6510009765625,-0.279541015625,-0.6409912109375,-29.875,-18.875,20.5,9.8,-0.25,-0.03,stop,10
9.53,27767.64857089,22,3,3,3,3,9.69,-0.3,0.01,-0.1,-0.05,0.04,-1.0,4.8125,0.3125,0.29522705078125,-0.6507568359375,-0.27935791015625,-0.64129638671875,-29.875,-18.875,20.5,9.8,-0.25,-0.03,stop,10
9.54,27767.64857089,22,3,3,3,3,9.68,-0.3,-0.02,-0.11,-0.05,0.0,-0.9375,2.1875,0.5625,0.29522705078125,-0.65069580078125,-0.27923583984375,-0.6414794921875,-29.875,-18.875,20.5,9.8,-0.25,-0.02,stop,10
9.55,27767.686509448,22,3,3,3,3,9.75,-0.31,-0.21,-0.04,-0.06,-0.18,-0.625,0.0,0.8125,0.2952880859375,-0.6507568359375,-0.27911376953125,-0.64141845703125,-29.5,-18.1875,21.25,9.8,-0.25,-0.02,stop,10
9.56,27767.686509448,22,3,3,3,3,9.79,-0.3,-0.19,-0.01,-0.04,-0.16,0.125,-1.4375,0.75,0.2952880859375,-0.65087890625,-0.27911376953125,-0.64129638671875,-29.5,-18.1875,21.25,9.8,-0.25,-0.03,stop,10
9.57,27767.693696826,22,3,3,3,3,9.81,-0.28,-0.13,0.0,-0.02,-0.1,1.125,-2.25,0.375,0.2952880859375,-0.6510009765625,-0.27923583984375,-0.64111328125,-29.5,-18.1875,21.25,9.8,-0.25,-0.03,stop,10
9.58,27767.693696826,22,3,3,3,3,9.81,-0.25,-0.09,0.0,0.0,-0.05,1.5,-1.25,0.125,0.29534912109375,-0.6510009765625,-0.27935791015625,-0.6409912109375,-29.5,-18.1875,21.25,9.8,-0.25,-0.03,stop,10
9.59,27767.711189583,22,3,3,3,3,9.81,-0.23,0.01,0.0,0.02,0.05,0.8125,-0.5625,0.0625,0.29534912109375,-0.6510009765625,-0.2794189453125,-0.6409912109375,-29.5,-18.1875,21.25,9.8,-0.25,-0.03,stop,10
9.6,27767.711189583,22,3,3,3,3,9.82,-0.26,0.04,0.02,0.0,0.08,0.3125,-1.25,0.375,0.29541015625,-0.65106201171875,-0.279541015625,-0.640869140625,-30.1875,-17.5,20.875,9.8,-0.25,-0.04,stop,10
9.61,27767.740344124,22,3,3,3,3,9.79,-0.22,0.07,-0.01,0.02,0.11,0.875,-1.375,0.4375,0.29541015625,-0.651123046875,-0.27960205078125,-0.6407470703125,-30.1875,-17.5,20.875,9.8,-0.25,-0.04,stop,10
9.62,27767.740344124,22,3,3,3,3,9.77,-0.25,0.03,-0.02,0.0,0.08,1.0,-1.1875,0.25,0.29547119140625,-0.65118408203125,-0.27972412109375,-0.64068603515625,-30.1875,-17.5,20.875,9.8,-0.25,-0.04,stop,10
9.63,27767.753664436,22,3,3,3,3,9.73,-0.25,-0.01,-0.06,0.0,0.03,0.4375,-0.5625,0.4375,0.29541015625,-0.65118408203125,-0.27972412109375,-0.640625,-30.1875,-17.5,20.875,9.8,-0.25,-0.04,stop,10
9.64,27767.753664436,22,3,3,3,3,9.7,-0.29,-0.08,-0.09,-0.03,-0.03,0.0,0.375,0.3125,0.29541015625,-0.65118408203125,-0.27972412109375,-0.640625,-30.1875,-17.5,20.875,9.8,-0.25,-0.04,stop,10
9.65,27767.768531624,22,3,3,3,3,9.71,-0.29,-0.1,-0.08,-0.03,-0.05,-0.0625,-0.125,0.3125,0.29534912109375,-0.6512451171875,-0.2796630859375,-0.64068603515625,-29.875,-17.75,20.0625,9.8,-0.25,-0.04,stop,10
9.66,27767.768531624,22,3,3,3,3,9.74,-0.31,-0.11,-0.06,-0.05,-0.06,0.1875,-0.875,0.125,0.2952880859375,-0.65130615234375,-0.2796630859375,-0.640625,-29.875,-17.75,20.0625,9.8,-0.25,-0.04,stop,10
9.67,27767.799449593,22,3,3,3,3,9.75,-0.3,-0.1,-0.05,-0.04,-0.05,0.75,-1.1875,0.0,0.29534912109375,-0.65130615234375,-0.27972412109375,-0.64056396484375,-29.875,-17.75,20.0625,9.8,-0.25,-0.04,stop,10
9.68,27767.799449593,22,3,3,3,3,9.75,-0.25,-0.05,-0.04,0.0,0.0,1.125,-1.0625,0.0,0.29534912109375,-0.6513671875,-0.27984619140625,-0.64044189453125,-29.875,-17.75,20.0625,9.8,-0.25,-0.05,stop,10
9.69,27767.814574633,22,3,3,3,3,9.8,-0.22,0.02,0.0,0.02,0.08,1.4375,-1.625,0.0625,0.29541015625,-0.65142822265625,-0.27996826171875,-0.64031982421875,-29.875,-17.75,20.0625,9.8,-0.25,-0.05,stop,10
9.7,27767.814574633,22,3,3,3,3,9.8,-0.23,0.01,0.0,0.02,0.07,1.0625,-1.0,0.0625,0.2957763671875,-0.65130615234375,-0.2803955078125,-0.64007568359375,-29.1875,-17.75,22.0,9.8,-0.25,-0.05,stop,10
9.71,27767.829445686,22,3,3,3,3,9.82,-0.18,0.02,0.02,0.07,0.08,0.625,0.0,0.0,0.29583740234375,-0.65130615234375,-0.2803955078125,-0.64007568359375,-29.1875,-17.75,22.0,9.8,-0.25,-0.05,stop,10
9.72,27767.829445686,22,3,3,3,3,9.81,-0.2,0.02,0.01,0.04,0.07,0.125,0.1875,0.0625,0.2957763671875,-0.6512451171875,-0.2803955078125,-0.64007568359375,-29.1875,-17.75,22.0,9.8,-0.25,-0.05,stop,10
9.73,27767.860263883,22,3,3,3,3,9.75,-0.24,-0.01,-0.04,0.01,0.03,-0.1875,0.3125,0.125,0.2957763671875,-0.6512451171875,-0.2803955078125,-0.64007568359375,-29.1875,-17.75,22.0,9.8,-0.25,-0.05,stop,10
9.74,27767.860263883,22,3,3,3,3,9.71,-0.23,-0.04,-0.08,0.01,0.0,0.0,0.0,0.375,0.2957763671875,-0.6512451171875,-0.28045654296875,-0.64007568359375,-29.1875,-17.75,22.0,9.8,-0.25,-0.05,stop,10
9.75,27767.874097745,22,3,3,3,3,9.78,-0.22,-0.04,-0.02,0.02,0.0,0.1875,-1.75,0.3125,0.2958984375,-0.65130615234375,-0.28057861328125,-0.63995361328125,-29.875,-17.75,21.5625,9.8,-0.25,-0.05,stop,10
9.76,27767.874097745,22,3,3,3,3,9.82,-0.2,0.0,0.02,0.04,0.06,-0.1875,-3.25,0.25,0.2957763671875,-0.6514892578125,-0.28070068359375,-0.6397705078125,-29.875,-17.75,21.5625,9.8,-0.25,-0.06,stop,10
9.77,27767.892920214,22,3,3,3,3,9.73,-0.25,0.01,-0.06,0.0,0.08,-1.125,-1.5625,0.25,0.295654296875,-0.651611328125,-0.2806396484375,-0.63970947265625,-29.875,-17.75,21.5625,9.8,-0.25,-0.06,stop,10
9.78,27767.892920214,22,3,3,3,3,9.71,-0.28,-0.07,-0.08,-0.02,-0.01,-2.0,0.5,0.25,0.29559326171875,-0.65167236328125,-0.280517578125,-0.6397705078125,-29.875,-17.75,21.5625,9.8,-0.25,-0.06,stop,10
9.79,27767.924520963,22,3,3,3,3,9.73,-0.26,-0.05,-0.06,0.0,0.0,-1.0,1.125,0.125,0.2955322265625,-0.651611328125,-0.28045654296875,-0.63983154296875,-29.875,-17.75,21.5625,9.8,-0.25,-0.06,stop,10
9.8,27767.924520963,22,3,3,3,3,9.77,-0.23,0.05,-0.02,0.02,0.11,0.6875,-0.25,0.0,0.29559326171875,-0.65155029296875,-0.280517578125,-0.63983154296875,-29.875,-17.0625,20.5,9.8,-0.25,-0.06,stop,10
9.81,27767.934371305,22,3,3,3,3,9.76,-0.23,0.05,-0.03,0.01,0.12,1.25,-0.8125,-0.125,0.295654296875,-0.651611328125,-0.2806396484375,-0.6397705078125,-29.875,-17.0625,20.5,9.8,-0.25,-0.06,stop,10
9.82,27767.934371305,22,3,3,3,3,9.75,-0.25,0.0,-0.05,0.0,0.06,0.0,0.1875,0.0,0.295654296875,-0.65155029296875,-0.2806396484375,-0.6397705078125,-29.875,-17.0625,20.5,9.8,-0.25,-0.06,stop,10
9.83,27767.950811897,22,3,3,3,3,9.71,-0.29,-0.03,-0.08,-0.03,0.02,-1.4375,1.0625,0.125,0.29559326171875,-0.65155029296875,-0.280517578125,-0.63983154296875,-29.875,-17.0625,20.5,9.8,-0.25,-0.06,stop,10
9.84,27767.950811897,22,3,3,3,3,9.7,-0.29,0.0,-0.09,-0.03,0.07,-1.125,0.6875,0.0,0.29559326171875,-0.65155029296875,-0.2803955078125,-0.63995361328125,-29.875,-17.0625,20.5,9.8,-0.25,-0.06,stop,10
9.85,27767.980555387,22,3,3,3,3,9.75,-0.29,0.02,-0.05,-0.03,0.08,-0.375,-0.5,0.0,0.2955322265625,-0.65155029296875,-0.2803955078125,-0.63995361328125,-29.1875,-17.75,20.5,9.8,-0.25,-0.06,stop,10
9.86,27767.980555387,22,3,3,3,3,9.73,-0.31,0.01,-0.06,-0.06,0.07,-0.25,0.125,0.0,0.2955322265625,-0.65155029296875,-0.2803955078125,-0.63995361328125,-29.1875,-17.75,20.5,9.8,-0.25,-0.06,stop,10
9.87,27767.994488086,22,3,3,3,3,9.71,-0.32,0.0,-0.08,-0.07,0.04,-0.5625,1.6875,0.0,0.2955322265625,-0.65142822265625,-0.2802734375,-0.64007568359375,-29.1875,-17.75,20.5,9.8,-0.25,-0.05,stop,10
9.88,27767.994488086,22,3,3,3,3,9.77,-0.35,0.05,-0.02,-0.09,0.11,-0.9375,2.125,0.0,0.29559326171875,-0.6513671875,-0.2801513671875,-0.64019775390625,-29.1875,-17.75,20.5,9.8,-0.25,-0.05,stop,10
9.89,27768.0121316,22,3,3,3,3,9.8,-0.35,0.06,0.0,-0.09,0.11,-0.625,1.5,0.0,0.29559326171875,-0.6512451171875,-0.28009033203125,-0.64031982421875,-29.1875,-17.75,20.5,9.8,-0.25,-0.05,stop,10
9.9,27768.0121316,22,3,3,3,3,9.79,-0.33,0.0,-0.01,-0.08,0.05,0.0,1.375,0.0,0.295654296875,-0.65118408203125,-0.280029296875,-0.64044189453125,-29.875,-17.75,21.25,9.8,-0.25,-0.04,stop,10
9.91,27768.039630908,22,3,3,3,3,9.81,-0.3,-0.05,0.01,-0.04,-0.01,0.4375,1.1875,0.0,0.295654296875,-0.651123046875,-0.27996826171875,-0.6405029296875,-29.875,-17.75,21.25,9.8,-0.25,-0.04,stop,10
9.92,27768.039630908,22,3,3,3,3,9.79,-0.23,-0.06,0.0,0.02,-0.01,0.9375,1.3125,0.0,0.2957763671875,-0.6510009765625,-0.280029296875,-0.64056396484375,-29.875,-17.75,21.25,9.8,-0.25,-0.04,stop,10
9.93,27768.056216439,22,3,3,3,3,9.78,-0.22,-0.04,-0.02,0.02,0.0,0.875,0.6875,0.0,0.29583740234375,-0.65093994140625,-0.280029296875,-0.64056396484375,-29.875,-17.75,21.25,9.8,-0.25,-0.04,stop,10
9.94,27768.056216439,22,3,3,3,3,9.76,-0.22,0.0,-0.04,0.03,0.04,0.5,0.625,0.125,0.29583740234375,-0.65093994140625,-0.280029296875,-0.640625,-29.875,-17.75,21.25,9.8,-0.25,-0.04,stop,10
9.95,27768.069344734,22,3,3,3,3,9.7,-0.26,0.05,-0.09,0.0,0.09,0.25,1.5,0.0625,0.2958984375,-0.65081787109375,-0.27996826171875,-0.64068603515625,-29.875,-17.75,20.5,9.8,-0.25,-0.03,stop,10
9.96,27768.069344734,22,3,3,3,3,9.69,-0.27,0.01,-0.11,-0.01,0.05,0.5625,1.3125,0.375,0.29595947265625,-0.6507568359375,-0.27996826171875,-0.6407470703125,-29.875,-17.75,20.5,9.8,-0.25,-0.03,stop,10
9.97,27768.09902727,22,3,3,3,3,9.72,-0.3,-0.02,-0.07,-0.04,0.0,1.0,0.0625,0.5,0.2960205078125,-0.65069580078125,-0.280029296875,-0.6407470703125,-29.875,-17.75,20.5,9.8,-0.25,-0.03,stop,10
9.98,27768.09902727,22,3,3,3,3,9.77,-0.3,-0.07,-0.03,-0.04,-0.03,1.125,-1.25,0.625,0.29608154296875,-0.6507568359375,-0.28009033203125,-0.640625,-29.875,-17.75,20.5,9.8,-0.25,-0.03,stop,10
9.99,27768.114609993,22,3,3,3,3,9.76,-0.29,-0.07,-0.04,-0.03,-0.03,0.6875,-1.75,1.0,0.296142578125,-0.65087890625,-0.2801513671875,-0.64044189453125,-29.875,-17.75,20.5,9.8,-0.26,-0.04,stop,10
10.0,27768.114609993,22,3,3,3,3,9.75,-0.32,-0.04,-0.04,-0.06,0.0,0.3125,-1.0625,1.125,0.29620361328125,-0.65093994140625,-0.28009033203125,-0.640380859375,-30.5625,-18.875,21.25,9.8,-0.26,-0.04,stop,10
10.01,27768.12900131,22,3,3,3,3,9.77,-0.3,0.0,-0.02,-0.04,0.04,0.1875,-0.6875,1.125,0.29620361328125,-0.6510009765625,-0.280029296875,-0.64031982421875,-30.5625,-18.875,21.25,9.8,-0.26,-0.04,stop,10
10.02,27768.12900131,22,3,3,3,3,9.77,-0.3,0.03,-0.03,-0.03,0.07,0.8125,-0.5625,1.1875,0.29632568359375,-0.65106201171875,-0.280029296875,-0.64019775390625,-30.5625,-18.875,21.25,9.8,-0.26,-0.04,stop,10
10.03,27768.159812508,22,3,3,3,3,9.78,-0.29,0.02,-0.01,-0.02,0.06,0.9375,-0.25,1.1875,0.29644775390625,-0.65106201171875,-0.280029296875,-0.64013671875,-30.5625,-18.875,21.25,9.8,-0.26,-0.04,stop,10
10.04,27768.159812508,22,3,3,3,3,9.8,-0.27,0.0,0.0,0.0,0.04,0.9375,-0.5,1.375,0.29656982421875,-0.65106201171875,-0.280029296875,-0.64007568359375,-30.5625,-18.875,21.25,9.8,-0.27,-0.04,stop,10
10.05,27768.179591276,22,3,3,3,3,9.81,-0.3,0.02,0.01,-0.02,0.07,0.9375,-1.125,1.4375,0.29669189453125,-0.65118408203125,-0.280029296875,-0.63995361328125,-29.1875,-18.5625,21.25,9.8,-0.27,-0.04,stop,10
10.06,27768.179591276,22,3,3,3,3,9.8,-0.32,0.02,0.0,-0.04,0.07,0.625,-1.1875,1.375,0.2967529296875,-0.6512451171875,-0.27996826171875,-0.63983154296875,-29.1875,-18.5625,21.25,9.8,-0.27,-0.04,stop,10
10.07,27768.192080859,22,3,3,3,3,9.79,-0.32,0.05,-0.01,-0.04,0.1,0.375,-0.75,1.5625,0.296875,-0.65130615234375,-0.2799072265625,-0.6397705078125,-29.1875,-18.5625,21.25,9.8,-0.27,-0.05,stop,10
10.08,27768.192080859,22,3,3,3,3,9.78,-0.31,0.07,-0.01,-0.03,0.12,0.0,-0.375,1.625,0.29693603515625,-0.6513671875,-0.27984619140625,-0.63970947265625,-29.1875,-18.5625,21.25,9.8,-0.28,-0.05,stop,10
10.09,27768.219836108,22,3,3,3,3,9.74,-0.3,0.01,-0.05,-0.01,0.06,-0.375,-0.4375,1.9375,0.29705810546875,-0.65142822265625,-0.27972412109375,-0.6396484375,-29.1875,-18.5625,21.25,9.8,-0.28,-0.05,stop,10
10.1,27768.219836108,22,3,3,3,3,9.68,-0.35,-0.09,-0.11,-0.06,-0.03,-0.8125,-1.1875,2.0625,0.29705810546875,-0.65155029296875,-0.27960205078125,-0.63958740234375,-29.5,-17.5,20.875,9.8,-0.28,-0.05,stop,10
10.11,27768.233888029,22,3,3,3,3,9.71,-0.32,-0.18,-0.08,-0.03,-0.12,0.3125,-1.9375,1.75,0.297119140625,-0.65167236328125,-0.279541015625,-0.639404296875,-29.5,-17.5,20.875,9.8,-0.29,-0.05,stop,10
10.12,27768.233888029,22,3,3,3,3,9.77,-0.21,-0.1,-0.03,0.07,-0.04,1.6875,-2.125,1.5,0.2972412109375,-0.65179443359375,-0.27960205078125,-0.63922119140625,-29.5,-17.5,20.875,9.8,-0.29,-0.05,stop,10
10.13,27768.251766732,22,3,3,3,3,9.78,-0.14,0.03,-0.01,0.15,0.09,1.5,-0.125,1.8125,0.2974853515625,-0.65179443359375,-0.27960205078125,-0.63916015625,-29.5,-17.5,20.875,9.8,-0.29,-0.05,stop,10
10.14,27768.251766732,22,3,3,3,3,9.75,-0.11,0.04,-0.04,0.18,0.1,-0.0625,3.6875,2.0,0.29766845703125,-0.65167236328125,-0.27935791015625,-0.6392822265625,-29.5,-17.5,20.875,9.8,-0.3,-0.05,stop,10
10.15,27768.280868579,22,3,3,3,3,9.72,-0.14,0.1,-0.07,0.16,0.14,-1.75,5.1875,2.4375,0.2978515625,-0.6514892578125,-0.27899169921875,-0.63958740234375,-29.5,-17.75,20.875,9.8,-0.3,-0.04,stop,10
10.16,27768.280868579,22,3,3,3,3,9.72,-0.07,-0.04,-0.07,0.24,0.0,-2.625,4.0625,3.125,0.2979736328125,-0.6513671875,-0.278564453125,-0.6397705078125,-29.5,-17.75,20.875,9.8,-0.31,-0.03,stop,10
10.17,27768.294306201,22,3,3,3,3,9.74,-0.02,-0.12,-0.05,0.29,-0.09,-2.3125,3.125,3.4375,0.298095703125,-0.6513671875,-0.27813720703125,-0.63995361328125,-29.5,-17.75,20.875,9.8,-0.31,-0.03,stop,10
10.18,27768.294306201,22,3,3,3,3,9.76,-0.02,-0.09,-0.03,0.29,-0.06,-2.25,1.8125,3.5625,0.298095703125,-0.6513671875,-0.27783203125,-0.6400146484375,-29.5,-17.75,20.875,9.8,-0.32,-0.02,stop,10
10.19,27768.309218351,22,3,3,3,3,9.8,0.01,-0.1,0.0,0.33,-0.07,-2.5625,0.5625,3.6875,0.298095703125,-0.6514892578125,-0.277587890625,-0.64007568359375,-29.5,-17.75,20.875,9.8,-0.32,-0.02,stop,10
10.2,27768.309218351,22,3,3,3,3,9.9,0.16,-0.03,0.1,0.49,-0.01,-3.3125,1.75,3.6875,0.29791259765625,-0.6514892578125,-0.27734375,-0.64019775390625,-29.875,-18.1875,20.5,9.8,-0.32,-0.02,stop,10
10.21,27768.340647632,22,3,3,3,3,9.86,0.25,0.01,0.06,0.57,0.03,-4.5,4.0,3.6875,0.2977294921875,-0.6513671875,-0.27703857421875,-0.64056396484375,-29.875,-18.1875,20.5,9.8,-0.32,-0.02,stop,10
10.22,27768.340647632,22,3,3,3,3,9.74,0.31,0.03,-0.05,0.64,0.04,-5.625,6.875,3.75,0.29779052734375,-0.65118408203125,-0.2763671875,-0.6409912109375,-29.875,-18.1875,20.5,9.8,-0.32,0.0,stop,10
10.23,27768.354863086,22,3,3,3,3,9.57,0.36,0.06,-0.22,0.69,0.05,-5.6875,9.875,3.25,0.2978515625,-0.65087890625,-0.27557373046875,-0.6416015625,-29.875,-18.1875,20.5,9.8,-0.33,0.0,stop,10
10.24,27768.354863086,22,3,3,3,3,9.17,0.31,0.08,-0.62,0.65,0.05,-4.25,12.5625,2.75,0.298095703125,-0.65032958984375,-0.27484130859375,-0.64239501953125,-29.875,-18.1875,20.5,9.8,-0.33,0.02,stop,10
10.25,27768.368104175,22,3,3,3,3,9.04,0.3,0.02,-0.75,0.64,-0.02,-0.875,13.75,2.25,0.2984619140625,-0.649658203125,-0.27435302734375,-0.64312744140625,-29.5,-17.75,20.875,9.8,-0.34,0.05,stop,10
10.26,27768.368104175,22,3,3,3,3,8.94,0.24,0.01,-0.85,0.59,-0.06,3.125,14.125,1.375,0.299072265625,-0.6488037109375,-0.2740478515625,-0.643798828125,-29.5,-17.75,20.875,9.8,-0.34,0.07,stop,10
10.27,27768.399893278,22,3,3,3,3,8.94,0.0,0.11,-0.85,0.33,0.01,6.125,13.75,0.5625,0.2998046875,-0.64788818359375,-0.2740478515625,-0.6444091796875,-29.5,-17.75,20.875,9.8,-0.34,0.1,stop,10
10.28,27768.399893278,22,3,3,3,3,8.92,-0.08,0.25,-0.87,0.26,0.12,7.8125,13.1875,0.625,0.30059814453125,-0.64697265625,-0.27410888671875,-0.64495849609375,-29.5,-17.75,20.875,9.79,-0.34,0.12,stop,10
10.29,27768.413858447,22,3,3,3,3,8.9,-0.14,0.33,-0.89,0.2,0.19,8.5,13.625,0.5625,0.3013916015625,-0.64599609375,-0.274169921875,-0.6455078125,-29.5,-17.75,20.875,9.79,-0.34,0.14,moving,10
10.3,27768.413858447,22,3,3,3,3,8.94,-0.19,0.36,-0.85,0.15,0.19,8.125,13.8125,1.0,0.30224609375,-0.64501953125,-0.27423095703125,-0.64605712890625,-29.875,-17.5,19.75,9.79,-0.34,0.17,moving,10
10.31,27768.428713753,22,3,3,3,3,9.11,-0.24,0.27,-0.68,0.1,0.07,8.1875,12.375,1.375,0.3031005859375,-0.64410400390625,-0.2742919921875,-0.64654541015625,-29.875,-17.5,19.75,9.79,-0.35,0.19,moving,10
10.32,27768.428713753,22,3,3,3,3,9.32,-0.17,0.18,-0.47,0.17,-0.02,9.8125,8.1875,1.875,0.303955078125,-0.6434326171875,-0.2745361328125,-0.646728515625,-29.875,-17.5,19.75,9.79,-0.35,0.2,moving,10
10.33,27768.443476001,22,3,3,3,3,9.32,-0.17,0.18,-0.47,0.17,-0.02,9.8125,8.1875,1.875,0.303955078125,-0.6434326171875,-0.2745361328125,-0.646728515625,-29.875,-17.5,19.75,9.79,-0.35,0.2,moving,10
10.33,27768.443476001,22,3,3,3,3,9.58,-0.15,0.14,-0.21,0.2,-0.06,13.3125,1.75,2.0625,0.30487060546875,-0.64300537109375,-0.27508544921875,-0.64642333984375,-29.875,-17.5,19.75,9.79,-0.35,0.21,moving,10
10.34,27768.459977018,22,3,3,3,3,9.82,-0.07,0.15,0.02,0.28,-0.04,17.5,-4.8125,2.0625,0.30584716796875,-0.64288330078125,-0.276123046875,-0.64569091796875,-29.875,-17.5,19.75,9.79,-0.35,0.2,moving,10
10.35,27768.459977018,22,3,3,3,3,10.07,0.34,0.36,0.27,0.7,0.16,20.25,-7.4375,1.5625,0.306884765625,-0.64276123046875,-0.27734375,-0.644775390625,-31.375,-17.75,20.5,9.79,-0.36,0.19,moving,10
10.36,27768.489896208,22,3,3,3,3,10.17,0.53,0.38,0.38,0.89,0.2,19.125,-5.5625,1.0625,0.307861328125,-0.64263916015625,-0.27850341796875,-0.64398193359375,-31.375,-17.75,20.5,9.79,-0.36,0.18,moving,10
10.37,27768.489896208,22,3,3,3,3,10.33,0.7,0.39,0.53,1.06,0.21,16.4375,-2.5,0.25,0.3087158203125,-0.642333984375,-0.279541015625,-0.6434326171875,-31.375,-17.75,20.5,9.79,-0.36,0.18,moving,10
10.38,27768.504988411,22,3,3,3,3,10.66,0.82,0.33,0.86,1.18,0.16,13.1875,-2.6875,-1.5625,0.309326171875,-0.64208984375,-0.28045654296875,-0.64300537109375,-31.375,-17.75,20.5,9.79,-0.35,0.17,moving,10
10.39,27768.504988411,22,3,3,3,3,10.98,0.79,0.29,1.18,1.14,0.12,9.8125,-5.625,-3.6875,0.30950927734375,-0.64202880859375,-0.2813720703125,-0.64251708984375,-31.375,-17.75,20.5,9.79,-0.35,0.16,moving,10
10.4,27768.528808643,22,3,3,3,3,11.09,0.84,0.27,1.29,1.18,0.11,6.375,-7.375,-6.75,0.309326171875,-0.64208984375,-0.28228759765625,-0.64215087890625,-30.5625,-17.75,20.5,9.79,-0.33,0.15,moving,10
10.41,27768.528808643,22,3,3,3,3,11.34,0.79,0.17,1.54,1.11,0.02,1.9375,-0.75,-10.625,0.30877685546875,-0.641845703125,-0.28302001953125,-0.642333984375,-30.5625,-17.75,20.5,9.8,-0.32,0.15,moving,10
10.42,27768.55477548,22,3,3,3,3,11.17,0.48,0.09,1.37,0.77,-0.07,-3.8125,7.25,-15.5,0.307861328125,-0.64111328125,-0.28350830078125,-0.64324951171875,-30.5625,-17.75,20.5,9.8,-0.29,0.16,moving,10
10.43,27768.55477548,22,3,3,3,3,11.03,0.31,0.12,1.23,0.57,-0.06,-7.5625,14.1875,-21.375,0.30657958984375,-0.6400146484375,-0.28387451171875,-0.64483642578125,-30.5625,-17.75,20.5,9.8,-0.25,0.19,moving,10
10.44,27768.564309334,22,3,3,3,3,10.83,0.14,0.31,1.03,0.35,0.08,-8.5,17.25,-27.9375,0.30499267578125,-0.6385498046875,-0.2845458984375,-0.646728515625,-30.5625,-17.75,20.5,9.8,-0.21,0.22,moving,10
10.45,27768.564309334,22,3,3,3,3,10.15,-0.24,0.54,0.35,-0.09,0.27,-8.4375,24.0,-34.75,0.3031005859375,-0.63653564453125,-0.28533935546875,-0.64923095703125,-30.1875,-16.6875,20.875,9.8,-0.15,0.26,moving,10
10.46,27768.585780241,22,3,3,3,3,9.77,-0.47,0.68,-0.02,-0.39,0.36,-8.5625,33.8125,-40.3125,0.30120849609375,-0.63385009765625,-0.28619384765625,-0.65240478515625,-30.1875,-16.6875,20.875,9.8,-0.08,0.32,moving,10
10.47,27768.585780241,22,3,3,3,3,9.62,-0.78,0.86,-0.17,-0.78,0.48,-6.4375,35.75,-45.875,0.299072265625,-0.63079833984375,-0.28741455078125,-0.65576171875,-30.1875,-16.6875,20.875,9.79,0.0,0.38,moving,10
10.48,27768.61407618,22,3,3,3,3,9.5,-0.96,1.01,-0.28,-1.04,0.58,-4.625,27.3125,-49.5,0.29669189453125,-0.62811279296875,-0.2891845703125,-0.65863037109375,-30.1875,-16.6875,20.875,9.79,0.08,0.42,moving,10
10.49,27768.61407618,22,3,3,3,3,9.2,-1.05,0.87,-0.59,-1.22,0.41,-1.75,17.6875,-52.125,0.29400634765625,-0.62579345703125,-0.29150390625,-0.6610107421875,-30.1875,-16.6875,20.875,9.79,0.16,0.45,moving,10
10.5,27768.62442172,22,3,3,3,3,9.12,-0.94,0.77,-0.66,-1.2,0.3,-0.1875,6.3125,-54.6875,0.2906494140625,-0.62420654296875,-0.2939453125,-0.66290283203125,-29.875,-18.1875,19.375,9.79,0.26,0.46,moving,10
10.51,27768.62442172,22,3,3,3,3,9.09,-0.79,0.7,-0.69,-1.15,0.24,-0.375,-8.375,-56.25,0.28717041015625,-0.62322998046875,-0.2972412109375,-0.66387939453125,-29.875,-18.1875,19.375,9.78,0.35,0.45,moving,10
10.52,27768.641070565,22,3,3,3,3,8.97,-0.67,0.53,-0.8,-1.13,0.1,-0.9375,-17.875,-58.4375,0.28326416015625,-0.622802734375,-0.30078125,-0.66436767578125,-29.875,-18.1875,19.375,9.78,0.45,0.42,moving,10
10.53,27768.641070565,22,3,3,3,3,8.86,-0.18,0.15,-0.92,-0.74,-0.22,-1.5625,-23.125,-60.0,0.279052734375,-0.62255859375,-0.3045654296875,-0.6646728515625,-29.875,-18.1875,19.375,9.78,0.56,0.38,moving,10
10.54,27768.668853117,22,3,3,3,3,8.76,0.05,0.01,-1.01,-0.61,-0.32,-2.0625,-28.0625,-61.625,0.274658203125,-0.62261962890625,-0.3084716796875,-0.6646728515625,-29.875,-18.1875,19.375,9.77,0.66,0.33,moving,10
10.55,27768.668853117,22,3,3,3,3,8.73,0.25,-0.2,-1.03,-0.51,-0.48,-3.75,-32.5625,-62.75,0.26995849609375,-0.62286376953125,-0.3125,-0.66448974609375,-29.1875,-19.6875,20.875,9.77,0.77,0.28,moving,10
10.56,27768.68512513,22,3,3,3,3,8.62,0.55,-0.63,-1.14,-0.32,-0.86,-6.8125,-34.5625,-65.0,0.264892578125,-0.62322998046875,-0.31640625,-0.664306640625,-29.1875,-19.6875,20.875,9.76,0.88,0.22,moving,10
10.57,27768.68512513,22,3,3,3,3,8.57,0.52,-0.8,-1.17,-0.47,-0.96,-8.5625,-33.8125,-66.75,0.25958251953125,-0.62353515625,-0.3203125,-0.66424560546875,-29.1875,-19.6875,20.875,9.75,0.99,0.16,moving,10
10.58,27768.698973031,22,3,3,3,3,8.45,0.49,-0.84,-1.28,-0.62,-0.96,-8.25,-29.75,-68.875,0.25433349609375,-0.62347412109375,-0.32427978515625,-0.66436767578125,-29.1875,-19.6875,20.875,9.74,1.11,0.11,moving,10
10.59,27768.698973031,22,3,3,3,3,8.31,0.47,-0.86,-1.41,-0.76,-0.94,-3.8125,-22.4375,-70.875,0.2493896484375,-0.62286376953125,-0.328369140625,-0.66485595703125,-29.1875,-19.6875,20.875,9.72,1.23,0.08,moving,10
10.6,27768.72934327,22,3,3,3,3,8.15,0.62,-0.47,-1.55,-0.73,-0.53,3.6875,-16.6875,-72.5,0.24456787109375,-0.621826171875,-0.33258056640625,-0.66552734375,-27.6875,-22.1875,20.5,9.71,1.35,0.05,moving,10
10.61,27768.72934327,22,3,3,3,3,8.15,0.62,-0.47,-1.55,-0.73,-0.53,3.6875,-16.6875,-72.5,0.24456787109375,-0.621826171875,-0.33258056640625,-0.66552734375,-27.6875,-22.1875,20.5,9.71,1.35,0.05,moving,10
10.61,27768.741322477,22,3,3,3,3,8.13,0.8,-0.23,-1.55,-0.68,-0.26,12.8125,-15.625,-73.75,0.240478515625,-0.62030029296875,-0.337646484375,-0.66583251953125,-27.6875,-22.1875,20.5,9.69,1.48,0.02,moving,10
10.62,27768.741322477,22,3,3,3,3,8.27,0.99,-0.03,-1.39,-0.61,-0.02,20.75,-20.5,-74.1875,0.2366943359375,-0.618896484375,-0.34332275390625,-0.6656494140625,-27.6875,-22.1875,20.5,9.67,1.6,-0.01,moving,10
10.63,27768.759074512,22,3,3,3,3,8.9,1.41,0.24,-0.75,-0.31,0.32,24.5625,-33.9375,-72.75,0.2327880859375,-0.6181640625,-0.349365234375,-0.66461181640625,-27.6875,-22.1875,20.5,9.65,1.73,-0.08,moving,10
10.64,27768.759074512,22,3,3,3,3,9.31,1.66,0.31,-0.31,-0.18,0.48,24.0,-50.3125,-70.1875,0.22845458984375,-0.618408203125,-0.35552978515625,-0.66253662109375,-27.6875,-22.1875,20.5,9.62,1.84,-0.17,moving,10
10.65,27768.775769417,22,3,3,3,3,9.64,1.87,0.29,0.03,-0.08,0.57,19.1875,-63.1875,-66.0,0.22381591796875,-0.61956787109375,-0.36151123046875,-0.6597900390625,-26.1875,-22.5625,21.5625,9.6,1.95,-0.28,moving,10
10.66,27768.775769417,22,3,3,3,3,9.66,1.97,0.13,0.08,-0.08,0.53,10.875,-64.875,-61.5625,0.21881103515625,-0.62115478515625,-0.36676025390625,-0.6571044921875,-26.1875,-22.5625,21.5625,9.57,2.06,-0.39,moving,10
10.67,27768.792270475,22,3,3,3,3,9.56,2.05,-0.41,0.0,-0.09,0.07,1.4375,-54.3125,-55.8125,0.21392822265625,-0.6224365234375,-0.370849609375,-0.65521240234375,-26.1875,-22.5625,21.5625,9.55,2.15,-0.48,moving,10
10.68,27768.792270475,22,3,3,3,3,9.57,2.04,-0.61,0.03,-0.19,-0.05,-6.375,-42.75,-49.3125,0.2093505859375,-0.6234130859375,-0.37396240234375,-0.65399169921875,-26.1875,-22.5625,21.5625,9.53,2.23,-0.55,moving,10
10.69,27768.824871956,22,3,3,3,3,9.64,2.14,-0.77,0.13,-0.16,-0.16,-10.75,-36.5625,-43.9375,0.205078125,-0.62420654296875,-0.37640380859375,-0.65313720703125,-26.1875,-22.5625,21.5625,9.51,2.31,-0.61,moving,10
10.7,27768.824871956,22,3,3,3,3,9.8,2.31,-0.8,0.3,-0.05,-0.14,-11.5625,-34.9375,-38.3125,0.20098876953125,-0.625244140625,-0.37835693359375,-0.65234375,-24.0625,-24.6875,22.375,9.49,2.37,-0.66,moving,10
10.71,27768.833994434,22,3,3,3,3,10.34,2.88,-0.43,0.86,0.44,0.28,-11.5625,-33.625,-34.3125,0.19732666015625,-0.626220703125,-0.38018798828125,-0.6514892578125,-24.0625,-24.6875,22.375,9.47,2.43,-0.71,moving,10
10.72,27768.833994434,22,3,3,3,3,10.64,3.16,-0.22,1.18,0.67,0.53,-10.8125,-26.5625,-31.8125,0.19403076171875,-0.6268310546875,-0.3817138671875,-0.65093994140625,-24.0625,-24.6875,22.375,9.45,2.48,-0.75,moving,10
10.73,27768.849105762,22,3,3,3,3,11.07,3.41,0.04,1.63,0.87,0.82,-8.9375,-16.1875,-29.5625,0.19134521484375,-0.62689208984375,-0.38311767578125,-0.65081787109375,-24.0625,-24.6875,22.375,9.44,2.53,-0.78,moving,10
10.74,27768.849105762,22,3,3,3,3,11.52,3.55,0.55,2.1,0.97,1.34,-4.5,-7.3125,-28.875,0.189208984375,-0.62646484375,-0.38458251953125,-0.65106201171875,-24.0625,-24.6875,22.375,9.42,2.58,-0.79,moving,10
10.75,27768.880826709,22,3,3,3,3,11.31,3.45,0.34,1.9,0.81,1.12,2.5625,5.5625,-29.5625,0.18792724609375,-0.62506103515625,-0.38629150390625,-0.6517333984375,-22.1875,-25.5,24.25,9.41,2.63,-0.78,moving,10
10.76,27768.880826709,22,3,3,3,3,11.11,3.32,-0.14,1.71,0.64,0.6,8.5,23.75,-29.25,0.1875,-0.62255859375,-0.38800048828125,-0.65325927734375,-22.1875,-25.5,24.25,9.4,2.68,-0.74,moving,10
10.77,27768.89480848,22,3,3,3,3,10.93,2.98,-0.64,1.54,0.26,0.05,8.875,31.75,-26.875,0.18756103515625,-0.61968994140625,-0.38946533203125,-0.65509033203125,-22.1875,-25.5,24.25,9.39,2.72,-0.69,moving,10
10.78,27768.89480848,22,3,3,3,3,10.64,2.39,-1.4,1.26,-0.37,-0.75,6.5625,30.125,-23.5,0.18756103515625,-0.6170654296875,-0.39056396484375,-0.65692138671875,-22.1875,-25.5,24.25,9.38,2.76,-0.65,moving,10
10.79,27768.909697518,22,3,3,3,3,10.41,2.24,-1.64,1.03,-0.54,-1.03,5.4375,27.125,-18.625,0.187744140625,-0.61474609375,-0.3914794921875,-0.658447265625,-22.1875,-25.5,24.25,9.38,2.79,-0.61,moving,10
10.8,27768.909697518,22,3,3,3,3,10.21,2.16,-1.72,0.84,-0.65,-1.14,6.75,21.5625,-12.5,0.18804931640625,-0.61297607421875,-0.39215087890625,-0.65960693359375,-22.1875,-26.1875,23.0625,9.37,2.81,-0.57,moving,10
10.81,27768.938447477,22,3,3,3,3,10.07,2.15,-1.69,0.7,-0.66,-1.13,8.0625,12.3125,-6.625,0.18853759765625,-0.6119384765625,-0.39276123046875,-0.66009521484375,-22.1875,-26.1875,23.0625,9.37,2.82,-0.56,moving,10
10.82,27768.938447477,22,3,3,3,3,10.34,2.16,-1.1,0.97,-0.65,-0.53,9.4375,-3.375,-0.4375,0.18890380859375,-0.61199951171875,-0.393310546875,-0.65960693359375,-22.1875,-26.1875,23.0625,9.37,2.82,-0.57,moving,10
10.83,27768.960511117,22,3,3,3,3,10.59,2.21,-0.73,1.22,-0.59,-0.12,9.25,-21.0625,5.6875,0.18902587890625,-0.61322021484375,-0.3939208984375,-0.6580810546875,-22.1875,-26.1875,23.0625,9.37,2.81,-0.61,moving,10
10.84,27768.960511117,22,3,3,3,3,10.77,2.27,-0.47,1.39,-0.51,0.19,6.8125,-33.125,11.625,0.18896484375,-0.61541748046875,-0.39422607421875,-0.6558837890625,-22.1875,-26.1875,23.0625,9.37,2.79,-0.66,moving,10
10.85,27768.969563526,22,3,3,3,3,10.81,2.11,-0.16,1.42,-0.64,0.56,2.0,-35.875,17.5625,0.188720703125,-0.61810302734375,-0.39385986328125,-0.65362548828125,-21.5,-26.1875,22.375,9.38,2.76,-0.72,moving,10
10.86,27768.969563526,22,3,3,3,3,10.6,1.95,-0.23,1.22,-0.76,0.54,-1.9375,-30.8125,22.625,0.1888427734375,-0.62066650390625,-0.39306640625,-0.651611328125,-21.5,-26.1875,22.375,9.38,2.72,-0.77,moving,10
10.87,27768.984616138,22,3,3,3,3,10.34,1.77,-0.43,0.94,-0.9,0.37,-0.5625,-20.3125,26.0,0.18963623046875,-0.62274169921875,-0.39190673828125,-0.65008544921875,-21.5,-26.1875,22.375,9.39,2.68,-0.81,moving,10
10.88,27768.984616138,22,3,3,3,3,10.34,1.77,-0.43,0.94,-0.9,0.37,-0.5625,-20.3125,26.0,0.18963623046875,-0.62274169921875,-0.39190673828125,-0.65008544921875,-21.5,-26.1875,22.375,9.39,2.68,-0.81,moving,10
10.88,27768.999062264,22,3,3,3,3,10.07,1.68,-0.58,0.66,-0.94,0.24,8.0,-9.8125,27.4375,0.1912841796875,-0.62408447265625,-0.39105224609375,-0.64886474609375,-21.5,-26.1875,22.375,9.4,2.63,-0.83,moving,10
10.89,27768.999062264,22,3,3,3,3,9.77,1.64,-0.73,0.35,-0.94,0.1,18.5625,-2.5,28.5,0.19378662109375,-0.6248779296875,-0.39056396484375,-0.6475830078125,-21.5,-26.1875,22.375,9.42,2.58,-0.84,moving,10
10.9,27769.030932788,22,3,3,3,3,9.71,1.59,-0.74,0.28,-0.94,0.1,24.75,1.5,30.625,0.19708251953125,-0.6253662109375,-0.39044189453125,-0.64630126953125,-21.0625,-25.0625,23.5,9.43,2.53,-0.85,moving,10
10.91,27769.030932788,22,3,3,3,3,9.7,1.5,-0.71,0.25,-0.96,0.14,25.1875,2.1875,34.0625,0.20050048828125,-0.62591552734375,-0.38995361328125,-0.64495849609375,-21.0625,-25.0625,23.5,9.45,2.47,-0.86,moving,10
10.92,27769.043716683,22,3,3,3,3,9.79,1.26,-0.67,0.32,-1.14,0.19,22.125,0.0,38.1875,0.203857421875,-0.6268310546875,-0.38909912109375,-0.64349365234375,-21.0625,-25.0625,23.5,9.46,2.4,-0.86,moving,10
10.93,27769.043716683,22,3,3,3,3,9.87,1.21,-0.71,0.38,-1.11,0.16,18.0,-4.375,42.6875,0.20709228515625,-0.62823486328125,-0.3878173828125,-0.64190673828125,-21.0625,-25.0625,23.5,9.48,2.33,-0.88,moving,10
10.94,27769.066878915,22,3,3,3,3,9.98,1.17,-0.65,0.48,-1.07,0.25,15.125,-8.3125,46.75,0.21026611328125,-0.6300048828125,-0.38623046875,-0.64007568359375,-21.0625,-25.0625,23.5,9.5,2.25,-0.9,moving,10
10.95,27769.066878915,22,3,3,3,3,9.96,1.17,-0.68,0.44,-0.98,0.23,7.0625,-11.875,54.8125,0.21337890625,-0.63232421875,-0.3839111328125,-0.63812255859375,-21.0625,-24.0625,23.5,9.52,2.15,-0.92,moving,10
10.96,27769.089603524,22,3,3,3,3,9.96,0.93,-0.78,0.42,-1.12,0.16,7.0625,-11.875,54.8125,0.2164306640625,-0.63470458984375,-0.3814697265625,-0.63623046875,-21.0625,-24.0625,23.5,9.53,2.06,-0.94,moving,10
10.97,27769.089603524,22,3,3,3,3,9.93,0.91,-0.81,0.38,-1.05,0.15,2.5,-14.4375,58.4375,0.2193603515625,-0.63739013671875,-0.378662109375,-0.63421630859375,-21.0625,-24.0625,23.5,9.55,1.96,-0.97,moving,10
10.98,27769.10385446,22,3,3,3,3,9.91,0.93,-0.8,0.33,-0.93,0.2,2.625,-18.75,61.1875,0.2222900390625,-0.640380859375,-0.375732421875,-0.63189697265625,-21.0625,-24.0625,23.5,9.57,1.86,-1.0,moving,10
10.99,27769.10385446,22,3,3,3,3,9.88,0.91,-0.77,0.29,-0.84,0.26,4.125,-22.0625,62.9375,0.22528076171875,-0.64361572265625,-0.37286376953125,-0.62933349609375,-21.0625,-24.0625,23.5,9.59,1.75,-1.04,moving,10
11.0,27769.118554696,22,3,3,3,3,9.71,0.87,-0.71,0.11,-0.77,0.35,7.4375,-18.6875,64.1875,0.22869873046875,-0.646484375,-0.3701171875,-0.626708984375,-22.1875,-22.875,23.875,9.6,1.64,-1.07,moving,10
11.01,27769.118554696,22,3,3,3,3,9.56,0.89,-0.8,-0.05,-0.64,0.31,7.4375,-18.6875,64.1875,0.2320556640625,-0.64947509765625,-0.36724853515625,-0.6241455078125,-22.1875,-22.875,23.875,9.62,1.53,-1.11,moving,10
11.02,27769.14958798,22,3,3,3,3,9.37,0.91,-0.91,-0.25,-0.51,0.22,11.625,-13.625,64.125,0.23577880859375,-0.6519775390625,-0.364501953125,-0.62164306640625,-22.1875,-22.875,23.875,9.63,1.42,-1.13,moving,10
11.03,27769.14958798,22,3,3,3,3,9.22,0.66,-0.82,-0.42,-0.65,0.33,15.25,-13.3125,64.125,0.23968505859375,-0.6544189453125,-0.3619384765625,-0.61907958984375,-22.1875,-22.875,23.875,9.64,1.31,-1.16,moving,10
11.04,27769.164300952,22,3,3,3,3,9.3,0.59,-0.74,-0.35,-0.6,0.44,17.9375,-11.875,64.375,0.24383544921875,-0.65673828125,-0.35943603515625,-0.616455078125,-22.1875,-22.875,23.875,9.65,1.2,-1.18,moving,10
11.05,27769.164300952,22,3,3,3,3,9.27,0.56,-0.77,-0.39,-0.52,0.42,19.0,-6.0,65.1875,0.24859619140625,-0.65850830078125,-0.35723876953125,-0.614013671875,-22.875,-21.5,25.0,9.67,1.09,-1.2,moving,10
11.06,27769.185650643,22,3,3,3,3,9.23,0.45,-0.82,-0.44,-0.52,0.38,17.5625,-1.875,65.625,0.2530517578125,-0.66021728515625,-0.35443115234375,-0.61187744140625,-22.875,-21.5,25.0,9.68,0.97,-1.2,moving,10
11.07,27769.185650643,22,3,3,3,3,9.24,0.24,-0.83,-0.45,-0.61,0.37,16.875,-0.0625,66.375,0.25762939453125,-0.66192626953125,-0.35150146484375,-0.60992431640625,-22.875,-21.5,25.0,9.69,0.86,-1.2,moving,10
11.08,27769.212209115,22,3,3,3,3,9.25,0.21,-0.89,-0.44,-0.53,0.31,16.625,-1.9375,67.375,0.2620849609375,-0.6636962890625,-0.3485107421875,-0.60772705078125,-22.875,-21.5,25.0,9.7,0.74,-1.21,moving,10
11.09,27769.212209115,22,3,3,3,3,9.23,0.13,-0.87,-0.47,-0.49,0.35,14.875,-5.9375,69.125,0.2664794921875,-0.665771484375,-0.34539794921875,-0.6053466796875,-22.875,-21.5,25.0,9.7,0.62,-1.22,moving,10
11.1,27769.224190113,22,3,3,3,3,9.28,-0.01,-0.94,-0.43,-0.51,0.29,13.625,-8.5625,70.5625,0.27081298828125,-0.66796875,-0.34228515625,-0.60272216796875,-25.0625,-20.0,25.0,9.71,0.49,-1.24,moving,10
11.11,27769.224190113,22,3,3,3,3,9.26,0.0,-0.97,-0.44,-0.36,0.27,13.9375,-7.6875,71.625,0.27520751953125,-0.670166015625,-0.33905029296875,-0.60015869140625,-25.0625,-20.0,25.0,9.71,0.37,-1.25,moving,10
11.12,27769.239847868,22,3,3,3,3,9.19,-0.03,-1.01,-0.52,-0.28,0.25,14.4375,-6.0,73.0,0.2796630859375,-0.67230224609375,-0.33563232421875,-0.59765625,-25.0625,-20.0,25.0,9.72,0.24,-1.26,moving,10
11.13,27769.239847868,22,3,3,3,3,9.19,0.0,-0.98,-0.52,-0.11,0.29,13.625,-5.6875,74.5,0.28424072265625,-0.6744384765625,-0.33209228515625,-0.59503173828125,-25.0625,-20.0,25.0,9.72,0.11,-1.27,moving,10
11.14,27769.269786141,22,3,3,3,3,9.09,0.01,-0.7,-0.63,0.03,0.57,12.625,-3.25,75.9375,0.288818359375,-0.67645263671875,-0.328369140625,-0.59259033203125,-25.0625,-20.0,25.0,9.72,-0.01,-1.28,moving,10
11.15,27769.269786141,22,3,3,3,3,8.96,0.03,-0.66,-0.75,0.17,0.61,12.75,-1.0625,77.0625,0.29364013671875,-0.67822265625,-0.3245849609375,-0.59027099609375,-25.0625,-17.75,25.0,9.72,-0.14,-1.28,moving,10
11.16,27769.289549732,22,3,3,3,3,8.76,0.02,-0.72,-0.95,0.3,0.55,14.625,-2.0,77.75,0.2984619140625,-0.68011474609375,-0.32080078125,-0.5877685546875,-25.0625,-17.75,25.0,9.71,-0.28,-1.28,moving,10
11.17,27769.289549732,22,3,3,3,3,8.64,0.03,-0.78,-1.07,0.45,0.5,16.5625,-4.625,78.9375,0.30340576171875,-0.68212890625,-0.3170166015625,-0.5849609375,-25.0625,-17.75,25.0,9.71,-0.42,-1.29,moving,10
11.18,27769.30495468,22,3,3,3,3,8.65,0.0,-1.12,-1.04,0.56,0.17,16.3125,-6.25,79.9375,0.30828857421875,-0.6842041015625,-0.31329345703125,-0.58197021484375,-25.0625,-17.75,25.0,9.7,-0.56,-1.29,moving,10
11.19,27769.30495468,22,3,3,3,3,8.65,0.0,-1.12,-1.04,0.56,0.17,16.3125,-6.25,79.9375,0.30828857421875,-0.6842041015625,-0.31329345703125,-0.58197021484375,-25.0625,-17.75,25.0,9.7,-0.56,-1.29,moving,10
11.19,27769.318341602,22,3,3,3,3,8.73,-0.07,-1.38,-0.95,0.63,-0.08,14.6875,-4.5625,80.5625,0.3131103515625,-0.68621826171875,-0.309326171875,-0.57916259765625,-25.0625,-17.75,25.0,9.69,-0.7,-1.3,moving,10
11.2,27769.318341602,22,3,3,3,3,8.82,-0.17,-1.64,-0.85,0.66,-0.34,11.3125,-0.9375,81.125,0.31787109375,-0.6881103515625,-0.30499267578125,-0.5765380859375,-27.25,-17.0625,25.75,9.68,-0.84,-1.3,moving,10
11.21,27769.332636361,22,3,3,3,3,8.91,-0.28,-1.68,-0.75,0.69,-0.38,6.0625,5.625,82.0,0.322509765625,-0.6898193359375,-0.30023193359375,-0.574462890625,-27.25,-17.0625,25.75,9.67,-0.98,-1.29,moving,10
11.22,27769.332636361,22,3,3,3,3,8.85,-0.36,-1.49,-0.8,0.75,-0.22,0.625,14.5625,82.625,0.32708740234375,-0.69122314453125,-0.29486083984375,-0.57293701171875,-27.25,-17.0625,25.75,9.65,-1.12,-1.26,moving,10
11.23,27769.365090096,22,3,3,3,3,8.84,-0.53,-1.26,-0.79,0.72,-0.02,-2.1875,21.0,82.3125,0.33160400390625,-0.69232177734375,-0.2891845703125,-0.5718994140625,-27.25,-17.0625,25.75,9.64,-1.25,-1.23,moving,10
11.24,27769.365090096,22,3,3,3,3,8.94,-0.61,-0.94,-0.68,0.78,0.24,-2.0625,23.9375,81.4375,0.33612060546875,-0.6932373046875,-0.283447265625,-0.571044921875,-27.25,-17.0625,25.75,9.63,-1.39,-1.19,moving,10
11.25,27769.389712248,22,3,3,3,3,9.13,-0.8,-0.46,-0.48,0.72,0.67,-1.375,28.125,79.625,0.341064453125,-0.69366455078125,-0.278076171875,-0.57025146484375,-27.25,-13.75,26.5,9.61,-1.52,-1.14,moving,10
11.26,27769.389712248,22,3,3,3,3,9.14,-0.87,-0.47,-0.45,0.78,0.61,-0.9375,33.5625,77.8125,0.34564208984375,-0.69390869140625,-0.2723388671875,-0.5699462890625,-27.25,-13.75,26.5,9.6,-1.66,-1.09,moving,10
11.27,27769.398349821,22,3,3,3,3,9.13,-0.89,-0.58,-0.44,0.89,0.44,-1.4375,36.8125,74.875,0.35015869140625,-0.69384765625,-0.2666015625,-0.5699462890625,-27.25,-13.75,26.5,9.58,-1.78,-1.03,moving,10
11.28,27769.398349821,22,3,3,3,3,9.19,-0.88,-0.87,-0.37,1.01,0.08,-1.75,39.875,71.25,0.35455322265625,-0.693603515625,-0.260986328125,-0.5701904296875,-27.25,-13.75,26.5,9.57,-1.9,-0.96,moving,10
11.29,27769.421602954,22,3,3,3,3,9.34,-0.92,-0.85,-0.21,1.09,0.03,-2.375,43.0,66.75,0.35870361328125,-0.6929931640625,-0.25543212890625,-0.57080078125,-27.25,-13.75,26.5,9.55,-2.01,-0.89,moving,10
11.3,27769.421602954,22,3,3,3,3,9.52,-1.08,-0.84,-0.01,1.03,-0.03,-5.25,49.125,61.5,0.36260986328125,-0.69207763671875,-0.25,-0.5718994140625,-28.75,-12.0,25.375,9.54,-2.11,-0.81,moving,10
11.31,27769.434789356,22,3,3,3,3,9.73,-1.26,-0.84,0.21,0.94,-0.12,-8.375,56.875,56.75,0.36614990234375,-0.69073486328125,-0.24432373046875,-0.57373046875,-28.75,-12.0,25.375,9.52,-2.21,-0.72,moving,10
11.32,27769.434789356,22,3,3,3,3,9.98,-1.65,-0.73,0.46,0.63,-0.11,-9.5,64.125,51.25,0.3695068359375,-0.6888427734375,-0.23870849609375,-0.576171875,-28.75,-12.0,25.375,9.51,-2.29,-0.61,moving,10
11.33,27769.448534107,22,3,3,3,3,9.97,-1.78,-0.64,0.47,0.58,-0.13,-9.375,69.8125,45.5,0.3726806640625,-0.68658447265625,-0.23321533203125,-0.57904052734375,-28.75,-12.0,25.375,9.5,-2.36,-0.5,moving,10
11.34,27769.448534107,22,3,3,3,3,9.91,-1.89,-0.53,0.42,0.53,-0.14,-8.0625,72.8125,40.3125,0.37567138671875,-0.6839599609375,-0.22802734375,-0.582275390625,-28.75,-12.0,25.375,9.49,-2.43,-0.38,moving,10
11.35,27769.478665414,22,3,3,3,3,9.9,-2.16,-0.36,0.42,0.33,-0.1,-5.9375,74.6875,35.1875,0.378662109375,-0.6810302734375,-0.22320556640625,-0.58563232421875,-30.5625,-10.1875,24.25,9.48,-2.49,-0.26,moving,10
11.36,27769.478665414,22,3,3,3,3,9.64,-2.69,-0.08,0.17,-0.14,0.05,-2.5625,78.0625,30.8125,0.381591796875,-0.677734375,-0.2186279296875,-0.58929443359375,-30.5625,-10.1875,24.25,9.46,-2.54,-0.13,moving,10
11.37,27769.497011646,22,3,3,3,3,9.5,-2.91,-0.2,0.04,-0.32,-0.19,0.875,78.5,28.0625,0.38458251953125,-0.67413330078125,-0.21441650390625,-0.593017578125,-30.5625,-10.1875,24.25,9.45,-2.59,0.0,moving,10
11.38,27769.497011646,22,3,3,3,3,9.42,-3.12,-0.29,-0.01,-0.49,-0.39,3.0,67.5625,25.5625,0.3873291015625,-0.6710205078125,-0.2108154296875,-0.5960693359375,-30.5625,-10.1875,24.25,9.44,-2.63,0.1,moving,10
11.39,27769.512311125,22,3,3,3,3,9.53,-3.61,-0.57,0.1,-0.94,-0.76,6.625,51.875,22.3125,0.38983154296875,-0.66851806640625,-0.20806884765625,-0.59820556640625,-30.5625,-10.1875,24.25,9.43,-2.66,0.19,moving,10
11.4,27769.512311125,22,3,3,3,3,9.67,-3.69,-0.64,0.25,-0.98,-0.9,10.3125,39.5625,20.625,0.3922119140625,-0.66644287109375,-0.2060546875,-0.599609375,-32.75,-9.375,22.0,9.42,-2.7,0.26,moving,10
11.41,27769.540464893,22,3,3,3,3,9.93,-3.55,-0.79,0.52,-0.81,-1.11,9.9375,32.1875,18.6875,0.39434814453125,-0.66473388671875,-0.204345703125,-0.6007080078125,-32.75,-9.375,22.0,9.41,-2.73,0.32,moving,10
11.42,27769.540464893,22,3,3,3,3,10.08,-3.46,-0.74,0.68,-0.7,-1.12,9.0625,29.5625,16.0,0.396240234375,-0.6632080078125,-0.202880859375,-0.6016845703125,-32.75,-9.375,22.0,9.4,-2.75,0.37,moving,10
