timestamp,android_nano_timestamp,temperature,calib_mag,calib_accel,calib_gyro,calib_sys,acc_x,acc_y,acc_z,lacc_x,lacc_y,lacc_z,gyro_x,gyro_y,gyro_z,quat_w,quat_x,quat_y,quat_z,mag_x,mag_y,mag_z,gravity_x,gravity_y,gravity_z,label,person
5.74,1154832.310259257,27,3,3,3,0,-4.84,-8.89,-1.48,0.27,-0.7,0.2,-40.6875,21.0,24.0,0.36090087890625,-0.02862548828125,0.76507568359375,-0.53253173828125,-29.1875,48.25,22.1875,-5.11,-8.19,-1.69,moving,5
5.75,1154832.324427185,27,3,3,3,0,-4.46,-8.18,-1.39,0.68,-0.02,0.34,-23.125,19.25,27.8125,0.36083984375,-0.026611328125,0.766845703125,-0.5301513671875,-29.1875,48.25,22.1875,-5.15,-8.16,-1.74,moving,5
5.76,1154832.324427185,27,3,3,3,0,-4.31,-6.83,-1.01,0.87,1.29,0.75,-7.3125,16.5,32.0625,0.3612060546875,-0.02392578125,0.76776123046875,-0.5286865234375,-29.1875,48.25,22.1875,-5.19,-8.13,-1.76,moving,5
5.77,1154832.356948181,27,3,3,3,0,-4.36,-6.15,-0.84,0.86,1.94,0.92,3.9375,14.6875,34.75,0.36181640625,-0.02081298828125,0.76812744140625,-0.52789306640625,-28.875,47.875,22.5625,-5.23,-8.1,-1.77,moving,5
5.78,1154832.356948181,27,3,3,3,0,-4.14,-5.73,-0.68,1.14,2.33,1.08,11.0625,16.625,37.625,0.3624267578125,-0.0172119140625,0.7681884765625,-0.52752685546875,-28.875,47.875,22.5625,-5.28,-8.06,-1.77,moving,5
5.79,1154832.370549784,27,3,3,3,0,-3.73,-5.4,-0.54,1.59,2.63,1.22,13.9375,21.5625,39.8125,0.36285400390625,-0.0130615234375,0.76824951171875,-0.5272216796875,-28.875,47.875,22.5625,-5.33,-8.03,-1.77,moving,5
5.8,1154832.370549784,27,3,3,3,0,-3.19,-4.43,-0.5,2.18,3.56,1.27,13.9375,28.75,41.125,0.36279296875,-0.008544921875,0.7685546875,-0.52691650390625,-28.875,47.875,22.5625,-5.38,-8.0,-1.77,moving,5
5.81,1154832.384354675,27,3,3,3,0,-3.03,-4.05,-0.49,2.38,3.91,1.3,12.25,38.75,39.875,0.362060546875,-0.00372314453125,0.76922607421875,-0.5264892578125,-28.875,47.875,22.5625,-5.42,-7.96,-1.79,moving,5
5.82,1154832.384354675,27,3,3,3,0,-2.66,-3.81,-0.56,2.79,4.12,1.26,9.0625,48.5,38.25,0.36053466796875,0.0013427734375,0.77032470703125,-0.52587890625,-29.5625,49.0,22.1875,-5.46,-7.93,-1.83,moving,5
5.83,1154832.415336161,27,3,3,3,0,-2.21,-3.51,-0.57,3.27,4.39,1.3,8.75,57.625,36.25,0.35833740234375,0.0067138671875,0.771728515625,-0.52532958984375,-29.5625,49.0,22.1875,-5.49,-7.9,-1.87,moving,5
5.84,1154832.415336161,27,3,3,3,0,-1.5,-2.74,-0.74,4.01,5.13,1.17,11.5625,64.1875,33.625,0.35552978515625,0.01226806640625,0.77313232421875,-0.5250244140625,-29.5625,49.0,22.1875,-5.51,-7.87,-1.92,moving,5
5.85,1154832.428779968,27,3,3,3,0,-1.31,-2.29,-0.79,4.22,5.55,1.17,15.875,68.125,30.9375,0.35235595703125,0.0179443359375,0.77447509765625,-0.52508544921875,-29.5625,49.0,22.1875,-5.53,-7.85,-1.96,moving,5
5.86,1154832.428779968,27,3,3,3,0,-1.38,-1.73,-0.74,4.16,6.09,1.25,21.375,68.5625,29.25,0.3489990234375,0.02374267578125,0.7755126953125,-0.5255126953125,-29.5625,49.0,22.1875,-5.55,-7.83,-2.0,moving,5
5.87,1154832.444984151,27,3,3,3,0,-1.61,-1.1,-0.76,3.95,6.7,1.26,27.1875,66.4375,29.5,0.3458251953125,0.02960205078125,0.7762451171875,-0.52630615234375,-27.75,50.5,18.6875,-5.57,-7.81,-2.02,moving,5
5.88,1154832.444984151,27,3,3,3,0,-2.21,0.15,-0.74,3.37,7.94,1.29,31.5,61.8125,31.0,0.34295654296875,0.03546142578125,0.77655029296875,-0.52734375,-27.75,50.5,18.6875,-5.59,-7.79,-2.04,moving,5
5.89,1154832.458418233,27,3,3,3,0,-2.21,0.15,-0.74,3.37,7.94,1.29,31.5,61.8125,31.0,0.34295654296875,0.03546142578125,0.77655029296875,-0.52734375,-27.75,50.5,18.6875,-5.59,-7.79,-2.04,moving,5
5.89,1154832.458418233,27,3,3,3,0,-2.63,0.55,-0.71,2.97,8.32,1.33,33.125,54.6875,33.1875,0.34063720703125,0.041259765625,0.77655029296875,-0.5284423828125,-27.75,50.5,18.6875,-5.61,-7.77,-2.05,moving,5
5.9,1154832.473000956,27,3,3,3,0,-3.09,0.72,-0.68,2.54,8.48,1.37,32.1875,46.1875,33.75,0.3389892578125,0.046630859375,0.77630615234375,-0.5294189453125,-27.75,50.5,18.6875,-5.64,-7.75,-2.05,moving,5
5.91,1154832.473000956,27,3,3,3,0,-3.86,-0.95,-0.9,1.8,6.77,1.14,28.625,39.0,31.5625,0.337646484375,0.0513916015625,0.77593994140625,-0.5302734375,-27.75,50.5,18.6875,-5.67,-7.73,-2.05,moving,5
5.92,1154832.511088603,27,3,3,3,0,-4.52,-3.3,-1.0,1.17,4.4,1.05,20.6875,30.9375,29.375,0.33685302734375,0.055419921875,0.7757568359375,-0.53070068359375,-28.375,51.875,14.75,-5.7,-7.7,-2.05,moving,5
5.93,1154832.511088603,27,3,3,3,0,-5.6,-6.54,-1.11,0.13,1.13,0.95,8.5625,19.8125,31.375,0.3369140625,0.0587158203125,0.77581787109375,-0.5302734375,-28.375,51.875,14.75,-5.73,-7.68,-2.06,moving,5
5.94,1154832.518949076,27,3,3,3,0,-6.91,-10.84,-1.37,-1.13,-3.19,0.68,0.1875,3.375,32.375,0.33819580078125,0.06109619140625,0.77569580078125,-0.529296875,-28.375,51.875,14.75,-5.77,-7.64,-2.06,moving,5
5.95,1154832.518949076,27,3,3,3,0,-10.25,-19.67,-3.51,-4.42,-12.05,-1.47,6.5,-19.5625,31.5,0.3409423828125,0.0625,0.774658203125,-0.5289306640625,-28.375,51.875,14.75,-5.82,-7.61,-2.04,moving,5
5.96,1154832.533858053,27,3,3,3,0,-13.89,-23.61,-6.82,-7.99,-16.02,-4.89,42.5625,-44.8125,40.0,0.3455810546875,0.06439208984375,0.7711181640625,-0.53082275390625,-28.375,51.875,14.75,-5.89,-7.59,-1.93,moving,5
5.97,1154832.533858053,27,3,3,3,0,-12.75,-22.91,-7.53,-6.75,-15.34,-5.83,128.5,-66.125,58.3125,0.35198974609375,0.06915283203125,0.76275634765625,-0.53802490234375,-26.5625,51.875,13.25,-5.99,-7.57,-1.69,moving,5
5.98,1154832.56454185,27,3,3,3,0,-11.81,-18.84,-6.13,-5.72,-11.28,-4.74,149.0,-105.75,47.1875,0.36029052734375,0.07183837890625,0.75213623046875,-0.54705810546875,-26.5625,51.875,13.25,-6.08,-7.56,-1.39,moving,5
5.99,1154832.56454185,27,3,3,3,0,-15.76,-10.91,-5.68,-9.63,-3.34,-4.49,86.4375,-80.375,19.625,0.36590576171875,0.072021484375,0.745361328125,-0.5526123046875,-26.5625,51.875,13.25,-6.13,-7.56,-1.19,moving,5
6.0,1154832.577845194,27,3,3,3,0,-14.91,-10.68,-0.78,-8.79,-3.11,0.37,15.9375,-6.5,-5.4375,0.365966796875,0.07183837890625,0.744384765625,-0.55389404296875,-26.5625,51.875,13.25,-6.12,-7.57,-1.16,moving,5
6.01,1154832.577845194,27,3,3,3,0,-14.16,-10.38,-0.23,-8.08,-2.79,0.99,-37.625,16.75,-28.0,0.36376953125,0.06964111328125,0.74688720703125,-0.55218505859375,-26.5625,51.875,13.25,-6.08,-7.59,-1.23,moving,5
6.02,1154832.599489197,27,3,3,3,0,-12.91,-10.74,-2.03,-6.88,-3.14,-0.59,-117.625,47.0,-35.0625,0.3597412109375,0.06591796875,0.75421142578125,-0.54534912109375,-25.5625,52.6875,9.6875,-6.02,-7.6,-1.43,moving,5
6.03,1154832.599489197,27,3,3,3,0,-10.87,-10.77,-2.6,-4.9,-3.16,-0.96,-117.625,47.0,-35.0625,0.3555908203125,0.0621337890625,0.761474609375,-0.53839111328125,-25.5625,52.6875,9.6875,-5.96,-7.6,-1.64,moving,5
6.04,1154832.626757345,27,3,3,3,0,-9.71,-10.55,-2.57,-3.79,-2.94,-0.8,-80.4375,15.125,-29.6875,0.3536376953125,0.058349609375,0.765869140625,-0.53387451171875,-25.5625,52.6875,9.6875,-5.92,-7.61,-1.76,moving,5
6.05,1154832.626757345,27,3,3,3,0,-8.43,-10.21,-2.91,-2.53,-2.58,-1.13,-27.5,-18.75,-22.8125,0.35400390625,0.05511474609375,0.76666259765625,-0.5328369140625,-25.5625,52.6875,9.6875,-5.89,-7.62,-1.78,moving,5
6.06,1154832.638565898,27,3,3,3,0,-6.77,-9.01,-4.75,-0.88,-1.36,-3.03,12.0625,-46.8125,-17.625,0.35626220703125,0.0521240234375,0.76470947265625,-0.53436279296875,-25.5625,52.6875,9.6875,-5.88,-7.65,-1.71,moving,5
6.07,1154832.638565898,27,3,3,3,0,-6.7,-8.49,-4.43,-0.8,-0.81,-2.86,37.875,-84.9375,-13.75,0.361083984375,0.0484619140625,0.7603759765625,-0.5377197265625,-27.75,52.6875,12.375,-5.89,-7.67,-1.57,moving,5
6.08,1154832.67061204,27,3,3,3,0,-7.15,-7.98,-3.43,-1.25,-0.28,-1.99,37.875,-84.9375,-13.75,0.36590576171875,0.04473876953125,0.75592041015625,-0.541015625,-27.75,52.6875,12.375,-5.89,-7.69,-1.44,moving,5
6.09,1154832.67061204,27,3,3,3,0,-7.45,-7.5,-2.49,-1.56,0.22,-1.14,17.0625,-65.75,-17.875,0.36932373046875,0.041015625,0.7530517578125,-0.54290771484375,-27.75,52.6875,12.375,-5.89,-7.72,-1.34,moving,5
6.1,1154832.688887634,27,3,3,3,0,-6.91,-6.56,-1.05,-1.04,1.17,0.28,-14.5,-27.3125,-23.125,0.3701171875,0.03778076171875,0.75299072265625,-0.54278564453125,-27.75,52.6875,12.375,-5.86,-7.74,-1.34,moving,5
6.11,1154832.688887634,27,3,3,3,0,-6.52,-6.07,-0.7,-0.69,1.68,0.68,-37.0625,1.0625,-27.875,0.36883544921875,0.0347900390625,0.75482177734375,-0.541259765625,-27.75,52.6875,12.375,-5.82,-7.76,-1.39,moving,5
6.12,1154832.698677185,27,3,3,3,0,-6.14,-5.54,-0.73,-0.36,2.23,0.75,-52.625,21.1875,-33.1875,0.36602783203125,0.03192138671875,0.75811767578125,-0.53875732421875,-28.1875,52.1875,14.375,-5.77,-7.78,-1.48,moving,5
6.13,1154832.698677185,27,3,3,3,0,-5.73,-5.02,-0.88,0.0,2.77,0.69,-52.625,21.1875,-33.1875,0.36322021484375,0.029052734375,0.7613525390625,-0.5362548828125,-28.1875,52.1875,14.375,-5.72,-7.8,-1.57,moving,5
6.14,1154832.713101054,27,3,3,3,0,-4.94,-3.87,-0.73,0.73,3.94,0.92,-47.0,15.5,-33.0,0.36077880859375,0.026123046875,0.76409912109375,-0.5341796875,-28.1875,52.1875,14.375,-5.67,-7.82,-1.65,moving,5
6.15,1154832.713101054,27,3,3,3,0,-4.94,-3.87,-0.73,0.73,3.94,0.92,-47.0,15.5,-33.0,0.36077880859375,0.026123046875,0.76409912109375,-0.5341796875,-28.1875,52.1875,14.375,-5.67,-7.82,-1.65,moving,5
6.15,1154832.728847677,27,3,3,3,0,-4.61,-3.42,-0.56,1.02,4.41,1.14,-36.125,3.0,-32.0625,0.359130859375,0.02294921875,0.76593017578125,-0.53271484375,-28.1875,52.1875,14.375,-5.63,-7.84,-1.71,moving,5
6.16,1154832.728847677,27,3,3,3,0,-4.1,-2.95,-0.46,1.49,4.9,1.26,-26.0625,-9.8125,-31.625,0.3583984375,0.01959228515625,0.76690673828125,-0.531982421875,-28.1875,52.1875,14.375,-5.59,-7.86,-1.73,moving,5
6.17,1154832.759611023,27,3,3,3,0,-3.39,-2.44,-0.45,2.17,5.43,1.27,-13.1875,-29.375,-27.9375,0.359130859375,0.0159912109375,0.76666259765625,-0.53204345703125,-28.5,52.1875,16.25,-5.56,-7.88,-1.72,moving,5
6.18,1154832.759611023,27,3,3,3,0,-1.86,-1.79,-0.45,3.68,6.11,1.25,-8.9375,-35.875,-25.6875,0.3603515625,0.0123291015625,0.7659912109375,-0.5322265625,-28.5,52.1875,16.25,-5.54,-7.9,-1.7,moving,5
6.19,1154832.773906433,27,3,3,3,0,-1.32,-1.63,-0.31,4.19,6.3,1.35,-5.0,-39.75,-25.5625,0.36181640625,0.00860595703125,0.76495361328125,-0.53277587890625,-28.5,52.1875,16.25,-5.51,-7.93,-1.67,moving,5
6.2,1154832.773906433,27,3,3,3,0,-0.79,-1.54,-0.16,4.68,6.41,1.47,-1.0,-38.25,-30.1875,0.36297607421875,0.00482177734375,0.76385498046875,-0.53363037109375,-28.5,52.1875,16.25,-5.48,-7.96,-1.63,moving,5
6.21,1154832.788510071,27,3,3,3,0,0.41,-1.57,0.01,5.86,6.41,1.61,-0.0625,-36.375,-34.25,0.36383056640625,0.0008544921875,0.7626953125,-0.53472900390625,-28.5,52.1875,16.25,-5.45,-7.99,-1.6,moving,5
6.22,1154832.788510071,27,3,3,3,0,3.03,-0.83,0.32,8.45,7.19,1.89,-5.0625,-38.4375,-33.375,0.36480712890625,-0.0032958984375,0.76171875,-0.53546142578125,-27.375,50.0,19.875,-5.41,-8.02,-1.57,moving,5
6.23,1154832.818733744,27,3,3,3,0,3.61,-0.68,0.6,8.99,7.36,2.16,-13.3125,-35.875,-36.1875,0.36553955078125,-0.0078125,0.76116943359375,-0.53570556640625,-27.375,50.0,19.875,-5.37,-8.05,-1.55,moving,5
6.24,1154832.818733744,27,3,3,3,0,4.16,-0.29,0.39,9.48,7.79,1.95,-22.75,-29.0625,-45.9375,0.36529541015625,-0.012939453125,0.76123046875,-0.53558349609375,-27.375,50.0,19.875,-5.31,-8.08,-1.56,moving,5
6.25,1154832.833137716,27,3,3,3,0,4.46,-1.24,-0.07,9.69,6.88,1.51,-33.875,-19.5625,-62.25,0.3636474609375,-0.01904296875,0.76214599609375,-0.5352783203125,-27.375,50.0,19.875,-5.23,-8.13,-1.59,moving,5
6.26,1154832.833137716,27,3,3,3,0,4.1,-2.51,-0.6,9.25,5.66,1.03,-39.375,-12.25,-66.6875,0.36126708984375,-0.02532958984375,0.763427734375,-0.5347900390625,-27.375,50.0,19.875,-5.14,-8.18,-1.63,moving,5
6.27,1154832.848682434,27,3,3,3,0,1.96,-4.56,-0.68,7.05,3.64,1.0,-36.4375,-9.4375,-37.6875,0.36004638671875,-0.0294189453125,0.7647705078125,-0.53350830078125,-28.5,50.75,22.5625,-5.09,-8.21,-1.68,moving,5
6.28,1154832.848682434,27,3,3,3,0,-0.82,-8.67,-1.47,4.3,-0.48,0.21,-13.375,-10.875,20.0625,0.3616943359375,-0.02899169921875,0.76507568359375,-0.53192138671875,-28.5,50.75,22.5625,-5.12,-8.18,-1.69,moving,5
6.29,1154832.878703756,27,3,3,3,0,-17.17,-27.44,-9.16,-11.97,-19.29,-7.51,7.375,-43.625,50.25,0.366943359375,-0.0274658203125,0.76348876953125,-0.53076171875,-28.5,50.75,22.5625,-5.2,-8.14,-1.64,moving,5
6.3,1154832.878703756,27,3,3,3,0,-24.87,-28.79,-8.34,-19.55,-20.67,-6.95,110.3125,-104.3125,57.8125,0.3768310546875,-0.02490234375,0.755126953125,-0.53594970703125,-28.5,50.75,22.5625,-5.31,-8.12,-1.38,moving,5
6.31,1154832.896332174,27,3,3,3,0,-20.41,-27.26,-2.04,-15.03,-19.14,-0.97,136.8125,-134.0,26.1875,0.3870849609375,-0.02496337890625,0.7442626953125,-0.543701171875,-28.5,50.75,22.5625,-5.38,-8.12,-1.06,moving,5
6.32,1154832.896332174,27,3,3,3,0,-13.93,-18.06,0.19,-8.51,-9.94,1.1,61.8125,-67.875,14.6875,0.392333984375,-0.025146484375,0.739013671875,-0.54705810546875,-29.5625,49.25,22.1875,-5.41,-8.12,-0.91,moving,5
6.33,1154832.909488383,27,3,3,3,0,-7.37,-13.93,-2.92,-1.94,-5.81,-2.02,11.5,-5.9375,7.0625,0.39306640625,-0.0245361328125,0.73828125,-0.54754638671875,-29.5625,49.25,22.1875,-5.42,-8.11,-0.89,moving,5
6.34,1154832.909488383,27,3,3,3,0,-8.15,-14.16,2.66,-2.72,-6.05,3.56,0.0,11.25,4.5,0.392578125,-0.02374267578125,0.73870849609375,-0.54742431640625,-29.5625,49.25,22.1875,-5.43,-8.11,-0.9,moving,5
6.35,1154832.940039205,27,3,3,3,0,-7.66,-13.82,2.52,-2.25,-5.71,3.57,-48.6875,79.6875,-4.625,0.3870849609375,-0.02191162109375,0.74371337890625,-0.5445556640625,-29.5625,49.25,22.1875,-5.41,-8.1,-1.05,moving,5
6.36,1154832.940039205,27,3,3,3,0,-6.23,-13.32,-1.7,-0.86,-5.21,-0.46,-60.625,99.8125,-13.0625,0.37982177734375,-0.02001953125,0.7498779296875,-0.541259765625,-29.5625,49.25,22.1875,-5.37,-8.11,-1.23,moving,5
6.37,1154832.954347717,27,3,3,3,0,-3.62,-11.78,-2.8,1.71,-3.67,-1.48,-21.75,61.8125,-10.75,0.375244140625,-0.0185546875,0.7529296875,-0.540283203125,-29.1875,52.1875,20.25,-5.34,-8.11,-1.31,moving,5
6.38,1154832.954347717,27,3,3,3,0,-3.18,-10.4,-1.69,2.14,-2.28,-0.38,25.0625,24.5,-1.125,0.37359619140625,-0.01666259765625,0.7525634765625,-0.5419921875,-29.1875,52.1875,20.25,-5.33,-8.12,-1.3,moving,5
6.39,1154832.969721212,27,3,3,3,0,-3.56,-9.24,-0.97,1.78,-1.11,0.25,55.1875,7.1875,10.0,0.3736572265625,-0.01385498046875,0.75018310546875,-0.54534912109375,-29.1875,52.1875,20.25,-5.34,-8.12,-1.23,moving,5
6.4,1154832.969721212,27,3,3,3,0,-4.33,-7.38,-0.34,1.04,0.73,0.77,80.3125,-3.5,21.1875,0.375,-0.010009765625,0.74627685546875,-0.54986572265625,-29.1875,52.1875,20.25,-5.38,-8.12,-1.11,moving,5
6.41,1154832.984038066,27,3,3,3,0,-4.33,-7.38,-0.34,1.04,0.73,0.77,80.3125,-3.5,21.1875,0.375,-0.010009765625,0.74627685546875,-0.54986572265625,-29.1875,52.1875,20.25,-5.38,-8.12,-1.11,moving,5
6.41,1154832.984038066,27,3,3,3,0,-4.36,-6.25,0.11,1.06,1.85,1.07,103.0,-13.5625,32.0,0.37750244140625,-0.0052490234375,0.7408447265625,-0.5555419921875,-29.1875,52.1875,20.25,-5.42,-8.11,-0.95,moving,5
6.42,1154832.998007467,27,3,3,3,0,-4.01,-5.38,0.61,1.46,2.7,1.4,105.5,-19.1875,37.25,0.38055419921875,-0.00030517578125,0.735107421875,-0.56109619140625,-29.1875,50.375,21.375,-5.48,-8.09,-0.79,moving,5
6.43,1154832.998007467,27,3,3,3,0,-3.48,-4.6,0.79,2.04,3.46,1.44,89.0625,-14.8125,38.25,0.38336181640625,0.00439453125,0.730224609375,-0.56549072265625,-29.1875,50.375,21.375,-5.53,-8.06,-0.65,moving,5
6.44,1154833.033236715,27,3,3,3,0,-2.76,-2.7,0.07,2.82,5.33,0.61,72.875,-6.0625,37.25,0.38555908203125,0.00885009765625,0.72637939453125,-0.56890869140625,-29.1875,50.375,21.375,-5.59,-8.03,-0.54,moving,5
6.45,1154833.033236715,27,3,3,3,0,-2.27,-1.54,0.29,3.36,6.46,0.74,64.1875,1.625,37.75,0.38726806640625,0.01348876953125,0.72320556640625,-0.57171630859375,-29.1875,50.375,21.375,-5.64,-8.0,-0.45,moving,5
6.46,1154833.044267151,27,3,3,3,0,-1.71,-0.67,0.44,3.97,7.3,0.82,60.75,14.3125,34.6875,0.38800048828125,0.0184326171875,0.7205810546875,-0.5743408203125,-29.1875,50.375,21.375,-5.69,-7.97,-0.38,moving,5
6.47,1154833.044267151,27,3,3,3,0,-1.33,-0.08,0.73,4.39,7.86,1.06,58.0625,28.9375,30.0,0.3875732421875,0.02374267578125,0.71856689453125,-0.576904296875,-27.375,52.1875,14.75,-5.73,-7.95,-0.33,moving,5
6.48,1154833.059199036,27,3,3,3,0,-0.54,0.78,0.98,5.21,8.71,1.28,52.75,39.125,21.625,0.3861083984375,0.02886962890625,0.7171630859375,-0.57940673828125,-27.375,52.1875,14.75,-5.75,-7.93,-0.29,moving,5
6.49,1154833.059199036,27,3,3,3,0,-0.13,1.96,1.09,5.63,9.88,1.38,42.75,45.75,5.1875,0.3834228515625,0.032958984375,0.716552734375,-0.581787109375,-27.375,52.1875,14.75,-5.76,-7.92,-0.28,moving,5
6.5,1154833.074313782,27,3,3,3,0,0.55,2.78,1.09,6.28,10.74,1.39,25.375,52.25,-26.8125,0.37872314453125,0.03472900390625,0.717041015625,-0.5841064453125,-27.375,52.1875,14.75,-5.72,-7.95,-0.3,moving,5
6.51,1154833.074313782,27,3,3,3,0,1.28,2.64,0.73,6.92,10.66,1.1,-1.1875,64.1875,-57.9375,0.3717041015625,0.03436279296875,0.7193603515625,-0.58575439453125,-27.375,52.1875,14.75,-5.63,-8.01,-0.36,moving,5
6.52,1154833.105088969,27,3,3,3,0,1.41,2.23,-0.31,6.95,10.32,0.15,-24.5,68.5625,-73.0625,0.36376953125,0.032470703125,0.7230224609375,-0.58636474609375,-27.25,51.5,12.0625,-5.53,-8.08,-0.46,moving,5
6.53,1154833.105088969,27,3,3,3,0,0.55,0.6,-0.02,5.98,8.75,0.56,-47.0,60.0625,-69.6875,0.35650634765625,0.0296630859375,0.7275390625,-0.58544921875,-27.25,51.5,12.0625,-5.42,-8.14,-0.59,moving,5
6.54,1154833.121833598,27,3,3,3,0,-0.58,-1.61,0.22,4.74,6.58,0.98,-81.5625,53.25,-66.8125,0.34991455078125,0.02557373046875,0.73345947265625,-0.5821533203125,-27.25,51.5,12.0625,-5.32,-8.19,-0.75,moving,5
6.55,1154833.121833598,27,3,3,3,0,-5.62,-12.55,1.24,-0.36,-4.33,2.2,-115.375,35.625,-42.375,0.345703125,0.02117919921875,0.740478515625,-0.57598876953125,-27.25,51.5,12.0625,-5.25,-8.22,-0.95,moving,5
6.56,1154833.133935283,27,3,3,3,0,-10.46,-20.37,-0.34,-5.26,-12.14,0.82,-137.75,22.875,-38.625,0.342529296875,0.01568603515625,0.748046875,-0.56817626953125,-27.25,51.5,12.0625,-5.2,-8.23,-1.17,moving,5
6.57,1154833.133935283,27,3,3,3,0,-13.52,-26.32,-1.94,-8.39,-18.05,-0.72,-57.8125,-34.75,-59.5625,0.3419189453125,0.00830078125,0.74993896484375,-0.56622314453125,-27.6875,49.6875,13.25,-5.12,-8.27,-1.22,moving,5
6.58,1154833.173420675,27,3,3,3,0,-22.11,-36.73,-3.38,-17.0,-28.41,-2.48,163.75,-98.25,-18.375,0.34722900390625,0.00714111328125,0.73883056640625,-0.57745361328125,-27.6875,49.6875,13.25,-5.11,-8.31,-0.9,moving,5
6.59,1154833.173420675,27,3,3,3,0,-18.13,-21.99,-16.96,-12.9,-13.7,-16.62,227.125,-258.125,59.75,0.3665771484375,0.0048828125,0.71917724609375,-0.5902099609375,-27.6875,49.6875,13.25,-5.22,-8.29,-0.33,moving,5
6.6,1154833.183532817,27,3,3,3,0,-24.34,-10.53,-6.59,-18.99,-2.31,-6.59,67.625,-256.5,83.4375,0.3868408203125,-0.00091552734375,0.707275390625,-0.59173583984375,-27.6875,49.6875,13.25,-5.35,-8.21,0.0,moving,5
6.61,1154833.183532817,27,3,3,3,0,-20.89,-6.97,-4.72,-15.51,1.22,-4.57,-47.9375,81.625,20.0625,0.3828125,0.0029296875,0.71246337890625,-0.58807373046875,-27.6875,49.6875,13.25,-5.38,-8.19,-0.14,moving,5
6.62,1154833.209754497,27,3,3,3,0,-12.65,-11.78,-7.41,-7.28,-3.58,-7.05,-62.9375,122.375,-6.875,0.3748779296875,0.00665283203125,0.7197265625,-0.58428955078125,-29.875,48.875,16.75,-5.36,-8.19,-0.35,moving,5
6.63,1154833.209754497,27,3,3,3,0,-10.97,-11.8,6.44,-5.64,-3.59,7.02,-86.5,112.1875,-18.0,0.366943359375,0.0084228515625,0.727783203125,-0.579345703125,-29.875,48.875,16.75,-5.33,-8.2,-0.58,moving,5
6.64,1154833.229924947,27,3,3,3,0,-10.13,-11.67,0.81,-4.88,-3.44,1.78,-163.9375,160.125,-39.9375,0.35479736328125,0.00872802734375,0.7410888671875,-0.5699462890625,-29.875,48.875,16.75,-5.25,-8.22,-0.96,moving,5
6.65,1154833.229924947,27,3,3,3,0,-9.98,-11.37,-1.83,-4.81,-3.14,-0.5,-167.9375,133.9375,-41.8125,0.34417724609375,0.00750732421875,0.75347900390625,-0.5601806640625,-29.875,48.875,16.75,-5.16,-8.22,-1.32,moving,5
6.66,1154833.242975281,27,3,3,3,0,-8.63,-10.55,-1.23,-3.52,-2.32,0.31,-107.125,66.75,-28.625,0.33843994140625,0.0057373046875,0.76068115234375,-0.55389404296875,-29.875,48.875,16.75,-5.11,-8.22,-1.54,moving,5
6.67,1154833.242975281,27,3,3,3,0,-8.63,-10.55,-1.23,-3.52,-2.32,0.31,-107.125,66.75,-28.625,0.33843994140625,0.0057373046875,0.76068115234375,-0.55389404296875,-29.875,48.875,16.75,-5.11,-8.22,-1.54,moving,5
6.68,1154833.25385907,27,3,3,3,0,-5.43,-8.54,-1.05,-0.35,-0.31,0.56,-49.625,5.5625,-18.6875,0.33721923828125,0.0032958984375,0.76324462890625,-0.55108642578125,-29.5,50.375,16.75,-5.08,-8.22,-1.61,moving,5
6.68,1154833.25385907,27,3,3,3,0,-3.66,-8.09,-1.42,1.4,0.14,0.17,-14.8125,-44.5625,-18.375,0.33929443359375,-0.00048828125,0.7626953125,-0.5506591796875,-29.5,50.375,16.75,-5.06,-8.24,-1.6,moving,5
6.69,1154833.269145447,27,3,3,3,0,-1.7,-7.78,-1.79,3.34,0.48,-0.28,10.9375,-82.5,-29.9375,0.34332275390625,-0.006103515625,0.75970458984375,-0.55224609375,-29.5,50.375,16.75,-5.04,-8.26,-1.51,moving,5
6.7,1154833.269145447,27,3,3,3,0,0.13,-7.42,-1.18,5.15,0.88,0.18,38.375,-101.5625,-35.25,0.348388671875,-0.01214599609375,0.7547607421875,-0.55572509765625,-29.5,50.375,16.75,-5.02,-8.3,-1.36,moving,5
6.71,1154833.299869812,27,3,3,3,0,-0.78,-5.04,-2.21,4.23,3.29,-1.0,46.0625,-104.9375,-23.8125,0.35418701171875,-0.01739501953125,0.749267578125,-0.559326171875,-29.5,50.375,16.75,-5.01,-8.34,-1.2,moving,5
6.72,1154833.299869812,27,3,3,3,0,-2.4,-3.23,-2.48,2.59,5.12,-1.38,17.0625,-105.8125,-20.25,0.36016845703125,-0.0233154296875,0.74505615234375,-0.5609130859375,-30.25,48.875,20.5,-5.0,-8.36,-1.09,moving,5
6.73,1154833.31361082,27,3,3,3,0,-3.01,-2.17,-2.33,1.97,6.2,-1.3,-7.0625,-78.5,-24.0625,0.36407470703125,-0.02899169921875,0.742919921875,-0.56097412109375,-30.25,48.875,20.5,-4.98,-8.38,-1.03,moving,5
6.74,1154833.31361082,27,3,3,3,0,-2.64,-1.04,-0.8,2.3,7.35,0.21,-15.875,-40.0625,-26.0,0.3653564453125,-0.0330810546875,0.7423095703125,-0.5606689453125,-30.25,48.875,20.5,-4.95,-8.4,-1.02,moving,5
6.75,1154833.32860789,27,3,3,3,0,-2.06,-0.73,0.03,2.85,7.68,1.09,-28.9375,-8.0,-27.125,0.36444091796875,-0.0361328125,0.743408203125,-0.55963134765625,-30.25,48.875,20.5,-4.91,-8.41,-1.05,moving,5
6.76,1154833.32860789,27,3,3,3,0,-1.35,-0.18,0.33,3.51,8.24,1.47,-40.875,17.25,-26.125,0.3619384765625,-0.03826904296875,0.74591064453125,-0.557861328125,-30.25,48.875,20.5,-4.87,-8.43,-1.13,moving,5
6.77,1154833.344358582,27,3,3,3,0,-0.6,0.44,0.18,4.22,8.88,1.41,-52.25,26.6875,-26.8125,0.35870361328125,-0.0404052734375,0.7491455078125,-0.55535888671875,-30.0,48.5625,22.875,-4.83,-8.44,-1.23,moving,5
6.78,1154833.344358582,27,3,3,3,0,0.93,1.4,0.23,5.7,9.86,1.58,-66.25,25.875,-35.25,0.3551025390625,-0.04345703125,0.7530517578125,-0.55218505859375,-30.0,48.5625,22.875,-4.77,-8.45,-1.35,moving,5
6.79,1154833.374902893,27,3,3,3,0,2.02,1.34,0.09,6.72,9.81,1.59,-82.5,25.5625,-41.8125,0.35107421875,-0.04754638671875,0.75762939453125,-0.54815673828125,-30.0,48.5625,22.875,-4.7,-8.47,-1.49,moving,5
6.8,1154833.374902893,27,3,3,3,0,2.32,1.32,0.59,6.95,9.8,2.25,-95.875,26.1875,-49.5625,0.34661865234375,-0.052490234375,0.7628173828125,-0.54339599609375,-30.0,48.5625,22.875,-4.62,-8.48,-1.65,moving,5
6.81,1154833.389787863,27,3,3,3,0,3.02,1.41,0.41,7.55,9.91,2.25,-105.8125,31.125,-63.0625,0.34100341796875,-0.05841064453125,0.7684326171875,-0.538330078125,-30.0,48.5625,22.875,-4.52,-8.5,-1.84,moving,5
6.82,1154833.389787863,27,3,3,3,0,4.16,1.12,0.62,8.57,9.64,2.65,-114.0,27.9375,-73.625,0.3350830078125,-0.06536865234375,0.774169921875,-0.532958984375,-30.6875,47.75,24.5,-4.4,-8.52,-2.03,moving,5
6.83,1154833.403685283,27,3,3,3,0,4.33,0.25,0.26,8.62,8.78,2.5,-122.8125,26.0625,-73.5,0.3292236328125,-0.07269287109375,0.7801513671875,-0.52691650390625,-30.6875,47.75,24.5,-4.28,-8.53,-2.23,moving,5
6.84,1154833.403685283,27,3,3,3,0,5.36,-0.85,0.64,9.56,7.67,3.06,-122.9375,1.3125,-59.375,0.3255615234375,-0.0802001953125,0.78546142578125,-0.52020263671875,-30.6875,47.75,24.5,-4.19,-8.52,-2.41,moving,5
6.85,1154833.436424581,27,3,3,3,0,4.54,-2.53,1.17,8.69,5.96,3.75,-109.125,-0.1875,-33.0,0.32330322265625,-0.0855712890625,0.79010009765625,-0.513671875,-30.6875,47.75,24.5,-4.14,-8.5,-2.58,moving,5
6.86,1154833.436424581,27,3,3,3,0,-0.34,-10.26,-1.34,3.76,-1.78,1.35,-72.875,10.125,-19.5,0.3211669921875,-0.0885009765625,0.79351806640625,-0.50927734375,-30.6875,47.75,24.5,-4.11,-8.48,-2.69,moving,5
6.87,1154833.449529643,27,3,3,3,0,-4.85,-18.52,-1.77,-0.71,-10.05,0.9,-2.375,-24.625,14.5,0.323486328125,-0.08868408203125,0.79302978515625,-0.50848388671875,-32.1875,46.0,28.6875,-4.14,-8.47,-2.68,moving,5
6.88,1154833.449529643,27,3,3,3,0,-8.06,-26.82,-5.96,-3.85,-18.3,-3.55,119.25,-126.75,8.25,0.33355712890625,-0.09033203125,0.7841796875,-0.51544189453125,-32.1875,46.0,28.6875,-4.21,-8.51,-2.41,moving,5
6.89,1154833.463562968,27,3,3,3,0,-16.79,-39.56,-16.74,-12.42,-30.96,-14.92,298.5,-206.125,51.625,0.35211181640625,-0.08734130859375,0.7647705078125,-0.532470703125,-32.1875,46.0,28.6875,-4.36,-8.59,-1.81,moving,5
6.9,1154833.463562968,27,3,3,3,0,-17.55,-29.24,-10.11,-12.97,-20.65,-8.92,212.0625,-388.5,70.8125,0.38262939453125,-0.0941162109375,0.742919921875,-0.54107666015625,-32.1875,46.0,28.6875,-4.57,-8.59,-1.19,moving,5
6.91,1154833.496825257,27,3,3,3,0,-13.02,-15.35,-2.14,-8.36,-6.77,-1.17,79.25,-136.3125,34.375,0.3936767578125,-0.09564208984375,0.73486328125,-0.54388427734375,-32.1875,46.0,28.6875,-4.65,-8.57,-0.96,moving,5
6.92,1154833.496825257,27,3,3,3,0,-9.69,-13.86,-1.05,-5.04,-5.29,0.01,-5.875,117.25,11.9375,0.38665771484375,-0.08953857421875,0.7392578125,-0.5440673828125,-33.5625,43.0625,32.5625,-4.65,-8.56,-1.06,moving,5
6.93,1154833.512345032,27,3,3,3,0,-9.69,-13.86,-1.05,-5.04,-5.29,0.01,-5.875,117.25,11.9375,0.38665771484375,-0.08953857421875,0.7392578125,-0.5440673828125,-33.5625,43.0625,32.5625,-4.65,-8.56,-1.06,moving,5
6.93,1154833.512345032,27,3,3,3,0,-8.49,-16.4,5.82,-3.84,-7.84,6.99,-13.625,101.9375,12.625,0.38055419921875,-0.0843505859375,0.743408203125,-0.54351806640625,-33.5625,43.0625,32.5625,-4.64,-8.55,-1.17,moving,5
6.94,1154833.523061829,27,3,3,3,0,-5.86,-16.48,3.79,-1.24,-7.94,5.18,-88.6875,107.25,-2.1875,0.372802734375,-0.08233642578125,0.7510986328125,-0.53857421875,-33.5625,43.0625,32.5625,-4.62,-8.53,-1.39,moving,5
6.95,1154833.523061829,27,3,3,3,0,-4.01,-16.42,-1.93,0.53,-7.89,-0.27,-108.1875,139.4375,-23.625,0.36175537109375,-0.08087158203125,0.76043701171875,-0.533203125,-33.5625,43.0625,32.5625,-4.54,-8.52,-1.66,moving,5
6.96,1154833.538575135,27,3,3,3,0,-2.43,-15.68,-3.15,2.06,-7.15,-1.34,-57.375,76.8125,-18.75,0.3553466796875,-0.080322265625,0.765380859375,-0.530517578125,-33.5625,43.0625,32.5625,-4.49,-8.52,-1.81,moving,5
6.97,1154833.538575135,27,3,3,3,0,-1.48,-11.98,-2.28,3.01,-3.45,-0.46,7.5,26.625,2.75,0.353759765625,-0.0787353515625,0.765869140625,-0.5311279296875,-30.6875,46.0,33.375,-4.49,-8.52,-1.81,moving,5
6.98,1154833.558187765,27,3,3,3,0,-3.85,-9.26,-1.86,0.67,-0.75,-0.12,53.625,0.25,29.375,0.35546875,-0.0750732421875,0.76361083984375,-0.5338134765625,-30.6875,46.0,33.375,-4.53,-8.51,-1.73,moving,5
6.99,1154833.558187765,27,3,3,3,0,-5.17,-7.29,-1.99,-0.56,1.2,-0.38,76.75,-17.875,46.4375,0.3592529296875,-0.07049560546875,0.759765625,-0.537353515625,-30.6875,46.0,33.375,-4.61,-8.5,-1.61,moving,5
7.0,1154833.584800029,27,3,3,3,0,-5.55,-6.1,-2.08,-0.84,2.36,-0.63,82.8125,-39.1875,59.5,0.36517333984375,-0.0657958984375,0.75494384765625,-0.54071044921875,-30.6875,46.0,33.375,-4.7,-8.47,-1.45,moving,5
7.01,1154833.584800029,27,3,3,3,0,-4.19,-5.26,-0.57,0.61,3.18,0.72,80.8125,-46.0625,61.625,0.37152099609375,-0.06134033203125,0.75,-0.5438232421875,-30.6875,46.0,33.375,-4.81,-8.44,-1.29,moving,5
7.02,1154833.602612285,27,3,3,3,0,-3.56,-5.09,-0.32,1.33,3.31,0.84,73.625,-31.875,58.4375,0.37677001953125,-0.056640625,0.7457275390625,-0.5465087890625,-32.25,46.375,31.5,-4.9,-8.41,-1.16,moving,5
7.03,1154833.602612285,27,3,3,3,0,-2.98,-4.61,-0.47,2.0,3.76,0.59,62.625,-8.75,53.375,0.38018798828125,-0.051513671875,0.74273681640625,-0.548828125,-32.25,46.375,31.5,-4.98,-8.37,-1.06,moving,5
7.04,1154833.630056214,27,3,3,3,0,-1.51,-3.58,-0.09,3.53,4.76,0.9,52.625,12.125,47.75,0.38189697265625,-0.046142578125,0.74078369140625,-0.55072021484375,-32.25,46.375,31.5,-5.05,-8.34,-0.99,moving,5
7.05,1154833.630056214,27,3,3,3,0,-1.03,-2.76,0.41,4.07,5.55,1.37,48.1875,31.4375,44.1875,0.38214111328125,-0.0401611328125,0.73968505859375,-0.55242919921875,-32.25,46.375,31.5,-5.1,-8.31,-0.95,moving,5
7.06,1154833.649851543,27,3,3,3,0,-0.42,-1.85,0.71,4.72,6.43,1.64,44.1875,49.5,39.6875,0.3809814453125,-0.03375244140625,0.73931884765625,-0.55413818359375,-32.25,46.375,31.5,-5.15,-8.28,-0.93,moving,5
7.07,1154833.649851543,27,3,3,3,0,-0.1,-1.2,0.9,5.08,7.06,1.84,34.6875,64.5625,34.125,0.3785400390625,-0.02728271484375,0.7398681640625,-0.555419921875,-29.25,47.375,27.5,-5.19,-8.26,-0.94,moving,5
7.08,1154833.658957134,27,3,3,3,0,0.03,0.22,-0.01,5.25,8.46,0.96,20.75,71.4375,28.0,0.3753662109375,-0.0213623046875,0.74127197265625,-0.5560302734375,-29.25,47.375,27.5,-5.22,-8.24,-0.97,moving,5
7.09,1154833.658957134,27,3,3,3,0,0.14,0.92,0.53,5.38,9.15,1.56,7.125,65.5,18.6875,0.37200927734375,-0.0167236328125,0.74310302734375,-0.55596923828125,-29.25,47.375,27.5,-5.23,-8.22,-1.02,moving,5
7.1,1154833.689560486,27,3,3,3,0,0.33,1.37,0.76,5.57,9.58,1.85,-4.75,60.0,9.75,0.36859130859375,-0.01336669921875,0.74530029296875,-0.55548095703125,-29.25,47.375,27.5,-5.24,-8.21,-1.09,moving,5
7.11,1154833.689560486,27,3,3,3,0,0.32,1.64,1.02,5.55,9.85,2.19,-11.25,63.75,3.1875,0.36456298828125,-0.01043701171875,0.74786376953125,-0.5546875,-29.25,47.375,27.5,-5.23,-8.21,-1.16,moving,5
7.12,1154833.706696147,27,3,3,3,0,0.49,1.87,0.7,5.71,10.08,1.96,-17.3125,70.3125,-2.1875,0.35986328125,-0.0076904296875,0.75091552734375,-0.5537109375,-29.0,48.875,22.875,-5.21,-8.2,-1.25,moving,5
7.13,1154833.706696147,27,3,3,3,0,0.25,1.77,0.73,5.45,9.98,2.07,-21.0,66.25,-2.0,0.35540771484375,-0.00531005859375,0.75396728515625,-0.55242919921875,-29.0,48.875,22.875,-5.19,-8.2,-1.34,moving,5
7.14,1154833.718775249,27,3,3,3,0,0.37,1.98,0.69,5.55,10.19,2.12,-23.0625,56.5,0.5,0.35162353515625,-0.0032958984375,0.7568359375,-0.55096435546875,-29.0,48.875,22.875,-5.18,-8.2,-1.42,moving,5
7.15,1154833.718775249,27,3,3,3,0,0.47,1.98,0.81,5.64,10.18,2.33,-30.0625,54.5625,0.625,0.34808349609375,-0.0015869140625,0.75994873046875,-0.5489501953125,-29.0,48.875,22.875,-5.17,-8.19,-1.52,moving,5
7.16,1154833.750057516,27,3,3,3,0,-0.78,-0.3,0.03,4.37,7.87,1.66,-37.375,54.5625,5.5,0.34466552734375,0.000244140625,0.76336669921875,-0.54632568359375,-29.0,48.875,22.875,-5.16,-8.17,-1.62,moving,5
7.17,1154833.750057516,27,3,3,3,0,-1.73,-3.25,-0.56,3.45,4.88,1.16,-44.3125,51.75,32.4375,0.3427734375,0.0035400390625,0.76702880859375,-0.5423583984375,-29.25,48.875,19.25,-5.19,-8.13,-1.73,moving,5
7.18,1154833.759328187,27,3,3,3,0,-2.52,-5.0,-1.08,2.8,3.03,0.72,-35.3125,23.375,99.0625,0.34588623046875,0.01025390625,0.769287109375,-0.53704833984375,-29.25,48.875,19.25,-5.32,-8.03,-1.8,moving,5
7.19,1154833.759328187,27,3,3,3,0,-2.52,-5.0,-1.08,2.8,3.03,0.72,-35.3125,23.375,99.0625,0.34588623046875,0.01025390625,0.769287109375,-0.53704833984375,-29.25,48.875,19.25,-5.32,-8.03,-1.8,moving,5
7.19,1154833.781610576,27,3,3,3,0,-11.96,-13.82,0.46,-6.51,-5.88,2.3,-25.375,1.125,91.0625,0.35009765625,0.015625,0.77044677734375,-0.5325927734375,-29.25,48.875,19.25,-5.45,-7.94,-1.83,moving,5
7.2,1154833.781610576,27,3,3,3,0,-17.91,-28.08,-3.96,-12.36,-20.17,-2.28,50.1875,-88.875,52.5,0.3583984375,0.01654052734375,0.7652587890625,-0.534423828125,-29.25,48.875,19.25,-5.55,-7.9,-1.68,moving,5
7.21,1154833.795097677,27,3,3,3,0,-25.62,-32.7,-5.89,-19.89,-24.84,-4.67,209.0625,-175.0,93.875,0.37408447265625,0.02117919921875,0.7496337890625,-0.5455322265625,-29.25,48.875,19.25,-5.72,-7.86,-1.22,moving,5
7.22,1154833.795097677,27,3,3,3,0,-23.01,-27.28,-13.48,-17.1,-19.48,-12.86,245.625,-263.4375,98.6875,0.39532470703125,0.0230712890625,0.72882080078125,-0.55859375,-29.0,48.1875,19.75,-5.9,-7.8,-0.62,moving,5
7.23,1154833.808102194,27,3,3,3,0,-22.26,-10.05,-4.15,-16.26,-2.3,-3.82,84.3125,-165.0,58.5625,0.408447265625,0.02166748046875,0.71881103515625,-0.56219482421875,-29.0,48.1875,19.75,-5.99,-7.75,-0.33,moving,5
7.24,1154833.808102194,27,3,3,3,0,-15.72,-12.99,-6.76,-9.74,-5.23,-6.3,-30.0625,82.8125,-11.9375,0.4027099609375,0.02392578125,0.72320556640625,-0.560546875,-29.0,48.1875,19.75,-5.97,-7.76,-0.46,moving,5
7.25,1154833.845227845,27,3,3,3,0,-15.77,-11.8,1.81,-9.82,-4.03,2.47,-70.3125,96.875,-11.625,0.39617919921875,0.02545166015625,0.73004150390625,-0.5562744140625,-29.0,48.1875,19.75,-5.95,-7.76,-0.65,moving,5
7.26,1154833.845227845,27,3,3,3,0,-16.31,-11.65,3.53,-10.41,-3.88,4.5,-127.3125,130.5625,-18.3125,0.38720703125,0.0262451171875,0.74066162109375,-0.5484619140625,-29.0,48.1875,19.75,-5.9,-7.76,-0.96,moving,5
7.27,1154833.856280661,27,3,3,3,0,-15.82,-11.87,-4.16,-9.97,-4.11,-2.86,-145.0,134.8125,-24.875,0.3775634765625,0.02618408203125,0.75213623046875,-0.53948974609375,-27.1875,52.1875,16.6875,-5.84,-7.76,-1.3,moving,5
7.28,1154833.856280661,27,3,3,3,0,-14.21,-11.47,-3.19,-8.4,-3.72,-1.69,-102.4375,59.0625,-13.4375,0.373291015625,0.02471923828125,0.75885009765625,-0.5330810546875,-27.1875,52.1875,16.6875,-5.81,-7.75,-1.5,moving,5
7.29,1154833.868367737,27,3,3,3,0,-11.85,-10.94,-2.57,-6.03,-3.2,-1.02,-36.0625,-0.125,3.0625,0.37353515625,0.0238037109375,0.76055908203125,-0.53057861328125,-27.1875,52.1875,16.6875,-5.81,-7.73,-1.54,moving,5
7.3,1154833.868367737,27,3,3,3,0,-9.16,-10.65,-3.04,-3.31,-2.92,-1.54,9.625,-42.75,10.0625,0.3768310546875,0.0228271484375,0.7586669921875,-0.53094482421875,-27.1875,52.1875,16.6875,-5.84,-7.73,-1.49,moving,5
7.31,1154833.904566834,27,3,3,3,0,-3.72,-9.82,-4.73,2.14,-2.09,-3.37,41.75,-76.0,5.5,0.38201904296875,0.02105712890625,0.75421142578125,-0.53363037109375,-27.1875,52.1875,16.6875,-5.87,-7.73,-1.35,moving,5
7.32,1154833.904566834,27,3,3,3,0,-3.12,-8.42,-4.27,2.76,-0.66,-3.08,63.3125,-87.375,-3.3125,0.38751220703125,0.01885986328125,0.74835205078125,-0.53802490234375,-28.25,51.375,20.5,-5.88,-7.75,-1.18,moving,5
7.33,1154833.91309548,27,3,3,3,0,-4.1,-7.09,-2.52,1.78,0.67,-1.45,42.375,-47.5,-10.3125,0.39007568359375,0.0174560546875,0.7447509765625,-0.54119873046875,-28.25,51.375,20.5,-5.88,-7.77,-1.07,moving,5
7.34,1154833.91309548,27,3,3,3,0,-4.78,-6.47,-1.33,1.06,1.31,-0.24,2.4375,12.0625,-18.6875,0.388427734375,0.01690673828125,0.74505615234375,-0.5419921875,-28.25,51.375,20.5,-5.85,-7.79,-1.08,moving,5
7.35,1154833.933488017,27,3,3,3,0,-4.8,-5.6,0.27,1.0,2.21,1.44,-22.5625,45.4375,-26.0625,0.38427734375,0.0166015625,0.7476806640625,-0.54132080078125,-28.25,51.375,20.5,-5.81,-7.81,-1.16,moving,5
7.36,1154833.933488017,27,3,3,3,0,-4.5,-4.46,0.47,1.24,3.37,1.75,-38.3125,58.125,-32.125,0.3790283203125,0.0159912109375,0.75152587890625,-0.53973388671875,-28.25,51.375,20.5,-5.75,-7.83,-1.27,moving,5
7.37,1154833.959923931,27,3,3,3,0,-4.04,-3.39,0.0,1.65,4.46,1.39,-48.8125,60.8125,-34.9375,0.37347412109375,0.01495361328125,0.755859375,-0.53759765625,-27.5,51.375,18.5625,-5.69,-7.86,-1.4,moving,5
7.38,1154833.959923931,27,3,3,3,0,-3.27,-1.47,-0.9,2.35,6.4,0.61,-47.5,52.375,-32.0625,0.3685302734375,0.01373291015625,0.75982666015625,-0.535400390625,-27.5,51.375,18.5625,-5.63,-7.87,-1.52,moving,5
7.39,1154833.977449932,27,3,3,3,0,-2.82,-0.92,-1.05,2.76,6.97,0.55,-37.4375,37.3125,-27.0625,0.3648681640625,0.01251220703125,0.7628173828125,-0.53375244140625,-27.5,51.375,18.5625,-5.58,-7.89,-1.6,moving,5
7.4,1154833.977449932,27,3,3,3,0,-2.27,-0.59,-0.94,3.28,7.31,0.72,-27.875,21.625,-22.0,0.3624267578125,0.01116943359375,0.7647705078125,-0.53253173828125,-27.5,51.375,18.5625,-5.55,-7.9,-1.66,moving,5
7.41,1154833.988738587,27,3,3,3,0,-1.49,-0.39,-0.81,4.03,7.52,0.88,-22.375,8.5,-16.0,0.36114501953125,0.00982666015625,0.76611328125,-0.531494140625,-27.5,51.375,18.5625,-5.52,-7.91,-1.7,moving,5
7.42,1154833.988738587,27,3,3,3,0,-0.31,-0.03,-0.07,5.19,7.88,1.65,-15.625,0.0,-10.5625,0.3607177734375,0.0086669921875,0.766845703125,-0.53076171875,-27.1875,51.0,21.25,-5.51,-7.92,-1.72,moving,5
7.43,1154834.019098288,27,3,3,3,0,0.14,-0.05,0.19,5.64,7.86,1.92,-7.5625,-2.1875,-6.1875,0.360595703125,0.00787353515625,0.76715087890625,-0.53045654296875,-27.1875,51.0,21.25,-5.5,-7.92,-1.73,moving,5
7.44,1154834.019098288,27,3,3,3,0,0.53,0.05,0.36,6.03,7.98,2.1,-0.1875,-1.375,-6.1875,0.36041259765625,0.0074462890625,0.76715087890625,-0.5306396484375,-27.1875,51.0,21.25,-5.49,-7.93,-1.73,moving,5
7.45,1154834.02982896,27,3,3,3,0,0.53,0.05,0.36,6.03,7.98,2.1,-0.1875,-1.375,-6.1875,0.36041259765625,0.0074462890625,0.76715087890625,-0.5306396484375,-27.1875,51.0,21.25,-5.49,-7.93,-1.73,moving,5
7.46,1154834.02982896,27,3,3,3,0,1.5,0.37,0.74,6.99,8.31,2.48,1.4375,-0.125,-10.0,0.35992431640625,0.0068359375,0.76708984375,-0.531005859375,-27.1875,51.0,21.25,-5.48,-7.94,-1.73,moving,5
7.46,1154834.04933543,27,3,3,3,0,2.76,1.03,1.7,8.21,8.99,3.45,-3.8125,12.0,-20.3125,0.35821533203125,0.00592041015625,0.76763916015625,-0.5313720703125,-27.1875,51.0,21.25,-5.45,-7.95,-1.75,moving,5
7.47,1154834.04933543,27,3,3,3,0,3.62,1.24,1.34,9.01,9.24,3.13,-11.9375,30.3125,-42.4375,0.354248046875,0.004150390625,0.7691650390625,-0.5318603515625,-28.25,49.1875,24.0,-5.38,-7.99,-1.79,moving,5
7.48,1154834.062872702,27,3,3,3,0,4.1,2.07,1.58,9.4,10.1,3.44,-36.5,13.0625,-53.625,0.35089111328125,0.0,0.771240234375,-0.53106689453125,-28.25,49.1875,24.0,-5.3,-8.03,-1.86,moving,5
7.49,1154834.062872702,27,3,3,3,0,3.79,2.07,1.51,9.01,10.13,3.48,-66.375,11.5625,-61.125,0.3472900390625,-0.00555419921875,0.774658203125,-0.5284423828125,-28.25,49.1875,24.0,-5.21,-8.06,-1.96,moving,5
7.5,1154834.078337139,27,3,3,3,0,2.79,-0.65,0.2,7.92,7.42,2.31,-91.9375,11.75,-58.75,0.34368896484375,-0.01177978515625,0.7791748046875,-0.52398681640625,-28.25,49.1875,24.0,-5.13,-8.08,-2.1,moving,5
7.51,1154834.078337139,27,3,3,3,0,1.54,-3.32,0.32,6.62,4.75,2.56,-98.5,4.0625,-35.0,0.34173583984375,-0.01690673828125,0.78375244140625,-0.518310546875,-28.25,49.1875,24.0,-5.08,-8.08,-2.24,moving,5
7.52,1154834.115174256,27,3,3,3,0,0.45,-5.85,0.46,5.55,2.18,2.81,-67.875,12.6875,15.0625,0.3414306640625,-0.017333984375,0.7872314453125,-0.51324462890625,-28.25,48.1875,24.75,-5.09,-8.04,-2.35,moving,5
7.53,1154834.115174256,27,3,3,3,0,-11.91,-25.46,-3.27,-6.76,-17.46,-0.9,-11.1875,-3.25,34.3125,0.34320068359375,-0.01544189453125,0.78765869140625,-0.51141357421875,-28.25,48.1875,24.75,-5.14,-8.0,-2.36,moving,5
7.54,1154834.130092062,27,3,3,3,0,-15.94,-36.73,-6.95,-10.78,-28.68,-4.82,104.0,-94.8125,-11.625,0.34930419921875,-0.01739501953125,0.78009033203125,-0.51873779296875,-28.25,48.1875,24.75,-5.16,-8.05,-2.13,moving,5
7.55,1154834.130092062,27,3,3,3,0,-19.82,-39.47,-9.13,-14.5,-31.38,-7.57,247.125,-250.3125,47.3125,0.36865234375,-0.0179443359375,0.760986328125,-0.53350830078125,-28.25,48.1875,24.75,-5.31,-8.09,-1.55,moving,5
7.56,1154834.138917827,27,3,3,3,0,-14.54,-28.71,-9.23,-9.08,-20.61,-8.32,235.5625,-333.875,49.4375,0.39324951171875,-0.0225830078125,0.7388916015625,-0.54669189453125,-28.25,48.1875,24.75,-5.45,-8.09,-0.91,moving,5
7.57,1154834.138917827,27,3,3,3,0,-12.75,-16.41,-3.61,-7.25,-8.32,-2.89,55.8125,-113.8125,17.875,0.4014892578125,-0.02496337890625,0.73236083984375,-0.54937744140625,-29.25,47.0625,26.375,-5.49,-8.08,-0.72,moving,5
7.58,1154834.175245301,27,3,3,3,0,-11.6,-17.99,-5.62,-6.11,-9.9,-4.74,-33.6875,108.75,-1.0,0.3944091796875,-0.02099609375,0.73773193359375,-0.5474853515625,-29.25,47.0625,26.375,-5.48,-8.08,-0.87,moving,5
7.59,1154834.175245301,27,3,3,3,0,-11.55,-17.94,3.84,-6.08,-9.86,4.87,-50.5,86.5,0.9375,0.3887939453125,-0.0185546875,0.74310302734375,-0.54437255859375,-29.25,47.0625,26.375,-5.46,-8.07,-1.03,moving,5
7.6,1154834.18422048,27,3,3,3,0,-10.16,-18.19,5.65,-4.74,-10.12,6.97,-116.4375,131.125,-14.4375,0.37933349609375,-0.0172119140625,0.7529296875,-0.5374755859375,-29.25,47.0625,26.375,-5.42,-8.06,-1.31,moving,5
7.61,1154834.18422048,27,3,3,3,0,-3.92,-17.37,-2.97,1.4,-9.3,-1.36,-116.3125,137.5,-36.875,0.36834716796875,-0.01708984375,0.7628173828125,-0.53118896484375,-29.25,47.0625,26.375,-5.33,-8.07,-1.61,moving,5
7.62,1154834.198828228,27,3,3,3,0,-2.39,-15.42,-1.17,2.87,-7.34,0.56,-56.5625,52.25,-32.375,0.36328125,-0.01861572265625,0.76702880859375,-0.528564453125,-27.75,49.5625,24.75,-5.27,-8.08,-1.73,moving,5
7.63,1154834.198828228,27,3,3,3,0,-1.52,-13.77,-1.57,3.72,-5.67,0.15,11.75,11.25,-14.25,0.36187744140625,-0.01873779296875,0.766845703125,-0.52978515625,-27.75,49.5625,24.75,-5.24,-8.1,-1.73,moving,5
7.64,1154834.233824647,27,3,3,3,0,-2.11,-11.92,-2.37,3.14,-3.81,-0.73,57.4375,-20.1875,9.875,0.36376953125,-0.0172119140625,0.7635498046875,-0.5333251953125,-27.75,49.5625,24.75,-5.26,-8.1,-1.63,moving,5
7.65,1154834.233824647,27,3,3,3,0,-4.52,-7.67,-2.88,0.78,0.42,-1.39,77.5,-43.0,23.8125,0.3677978515625,-0.01513671875,0.758544921875,-0.53765869140625,-27.75,49.5625,24.75,-5.31,-8.1,-1.48,moving,5
7.66,1154834.244726746,27,3,3,3,0,-5.04,-6.44,-1.55,0.32,1.65,-0.23,73.25,-59.5625,28.625,0.3731689453125,-0.01373291015625,0.75323486328125,-0.54150390625,-27.75,49.5625,24.75,-5.36,-8.1,-1.32,moving,5
7.67,1154834.244726746,27,3,3,3,0,-5.16,-5.59,-0.49,0.25,2.48,0.69,56.875,-52.8125,31.75,0.378173828125,-0.0123291015625,0.74884033203125,-0.54412841796875,-28.5,48.1875,26.375,-5.42,-8.08,-1.19,moving,5
7.68,1154834.25947341,27,3,3,3,0,-3.97,-4.45,0.12,1.49,3.6,1.24,32.9375,-31.875,31.75,0.38177490234375,-0.01068115234375,0.7462158203125,-0.54522705078125,-28.5,48.1875,26.375,-5.47,-8.06,-1.11,moving,5
7.69,1154834.25947341,27,3,3,3,0,-2.89,-4.11,-0.06,2.62,3.92,1.02,10.375,-6.9375,27.0625,0.38348388671875,-0.0089111328125,0.74554443359375,-0.5450439453125,-28.5,48.1875,26.375,-5.51,-8.03,-1.09,moving,5
7.7,1154834.273876038,27,3,3,3,0,-2.0,-3.56,0.09,3.54,4.44,1.2,-2.0,13.0625,23.25,0.38372802734375,-0.00689697265625,0.74603271484375,-0.54412841796875,-28.5,48.1875,26.375,-5.54,-8.01,-1.11,moving,5
7.71,1154834.273876038,27,3,3,3,0,-2.0,-3.56,0.09,3.54,4.44,1.2,-2.0,13.0625,23.25,0.38372802734375,-0.00689697265625,0.74603271484375,-0.54412841796875,-28.5,48.1875,26.375,-5.54,-8.01,-1.11,moving,5
7.71,1154834.29060667,27,3,3,3,0,-1.33,-2.71,0.27,4.22,5.27,1.42,-5.25,31.125,19.9375,0.38262939453125,-0.0042724609375,0.74737548828125,-0.54315185546875,-28.5,48.1875,26.375,-5.56,-7.99,-1.14,moving,5
7.72,1154834.29060667,27,3,3,3,0,0.14,-0.95,-0.01,5.72,7.02,1.18,-5.0,43.4375,16.3125,0.38055419921875,-0.0013427734375,0.7490234375,-0.54229736328125,-27.75,49.0,26.0,-5.57,-7.97,-1.19,moving,5
7.73,1154834.320182679,27,3,3,3,0,0.55,-0.17,0.24,6.14,7.78,1.49,-5.4375,42.3125,13.375,0.37841796875,0.0013427734375,0.75067138671875,-0.54150390625,-27.75,49.0,26.0,-5.58,-7.96,-1.24,moving,5
7.74,1154834.320182679,27,3,3,3,0,0.48,0.51,0.44,6.08,8.46,1.74,-10.125,39.3125,10.9375,0.3763427734375,0.0035400390625,0.75244140625,-0.54052734375,-27.75,49.0,26.0,-5.59,-7.95,-1.29,moving,5
7.75,1154834.333954408,27,3,3,3,0,0.37,1.06,0.58,5.96,9.0,1.94,-15.8125,34.9375,8.375,0.37445068359375,0.00518798828125,0.75433349609375,-0.5391845703125,-27.75,49.0,26.0,-5.59,-7.93,-1.35,moving,5
7.76,1154834.333954408,27,3,3,3,0,0.83,2.25,1.6,6.43,10.18,3.01,-20.9375,28.0,5.875,0.37286376953125,0.0062255859375,0.7562255859375,-0.53765869140625,-27.75,49.0,26.0,-5.59,-7.92,-1.41,moving,5
7.77,1154834.349864767,27,3,3,3,0,1.08,2.93,1.74,6.67,10.86,3.22,-27.5,30.625,-0.75,0.37078857421875,0.00665283203125,0.75848388671875,-0.53582763671875,-27.0625,50.875,22.75,-5.58,-7.92,-1.47,moving,5
7.78,1154834.349864767,27,3,3,3,0,1.22,2.82,1.59,6.79,10.74,3.14,-32.625,31.8125,-9.375,0.3682861328125,0.0064697265625,0.76104736328125,-0.53399658203125,-27.0625,50.875,22.75,-5.56,-7.92,-1.55,moving,5
7.79,1154834.378999126,27,3,3,3,0,0.92,2.85,1.2,6.46,10.78,2.83,-39.75,20.25,-14.4375,0.36627197265625,0.00518798828125,0.7635498046875,-0.53179931640625,-27.0625,50.875,22.75,-5.53,-7.92,-1.62,moving,5
7.8,1154834.378999126,27,3,3,3,0,0.6,2.2,1.23,6.11,10.13,2.95,-56.625,17.3125,-19.75,0.36419677734375,0.0028076171875,0.7667236328125,-0.5286865234375,-27.0625,50.875,22.75,-5.5,-7.93,-1.72,moving,5
7.81,1154834.394980816,27,3,3,3,0,-0.38,0.29,0.47,5.08,8.21,2.33,-79.4375,32.8125,-19.0,0.361083984375,0.00054931640625,0.77142333984375,-0.52392578125,-27.0625,50.875,22.75,-5.46,-7.92,-1.86,moving,5
7.82,1154834.394980816,27,3,3,3,0,-1.34,-2.07,-0.5,4.1,5.82,1.51,-85.375,34.5625,-4.5,0.35858154296875,-0.00091552734375,0.7763671875,-0.51837158203125,-28.1875,50.375,21.6875,-5.45,-7.89,-2.01,moving,5
7.83,1154834.409075094,27,3,3,3,0,-2.34,-3.44,-0.92,3.16,4.38,1.19,-72.125,12.9375,45.0625,0.35968017578125,0.00048828125,0.780029296875,-0.5120849609375,-28.1875,50.375,21.6875,-5.5,-7.83,-2.12,moving,5
7.84,1154834.409075094,27,3,3,3,0,-11.32,-15.36,-1.71,-5.77,-7.57,0.42,-32.9375,-32.9375,23.375,0.36297607421875,-0.00048828125,0.78045654296875,-0.50909423828125,-28.1875,50.375,21.6875,-5.55,-7.79,-2.13,moving,5
7.85,1154834.44006126,27,3,3,3,0,-15.04,-23.83,-5.21,-9.46,-16.02,-3.22,61.625,-62.125,2.4375,0.3673095703125,-0.0010986328125,0.77569580078125,-0.51324462890625,-28.1875,50.375,21.6875,-5.57,-7.81,-1.99,moving,5
7.86,1154834.44006126,27,3,3,3,0,-20.12,-27.32,-6.14,-14.43,-19.49,-4.54,179.5625,-154.625,46.875,0.3797607421875,0.0008544921875,0.76251220703125,-0.52374267578125,-28.1875,50.375,21.6875,-5.68,-7.82,-1.59,moving,5
7.87,1154834.45919924,27,3,3,3,0,-18.86,-14.21,-9.78,-13.02,-6.41,-8.7,218.8125,-219.5,75.5,0.39764404296875,0.00311279296875,0.74493408203125,-0.53564453125,-27.375,47.75,24.375,-5.84,-7.8,-1.07,moving,5
7.88,1154834.45919924,27,3,3,3,0,-17.16,-11.33,-6.39,-11.24,-3.55,-5.61,103.0625,-153.5,43.1875,0.4095458984375,0.0023193359375,0.73468017578125,-0.54083251953125,-27.375,47.75,24.375,-5.92,-7.77,-0.78,moving,5
7.89,1154834.468628358,27,3,3,3,0,-12.41,-13.35,-5.28,-6.5,-5.56,-4.5,8.5625,8.0,-7.25,0.40869140625,0.00250244140625,0.73455810546875,-0.5416259765625,-27.375,47.75,24.375,-5.91,-7.78,-0.77,moving,5
7.9,1154834.468628358,27,3,3,3,0,-14.21,-12.4,-0.43,-8.31,-4.61,0.46,-36.25,64.125,-7.125,0.40423583984375,0.0037841796875,0.73858642578125,-0.53955078125,-27.375,47.75,24.375,-5.89,-7.78,-0.89,moving,5
7.91,1154834.49949229,27,3,3,3,0,-15.98,-12.43,-0.82,-10.13,-4.65,0.33,-105.8125,120.25,-12.9375,0.3958740234375,0.0048828125,0.74774169921875,-0.5330810546875,-27.375,47.75,24.375,-5.85,-7.77,-1.15,moving,5
7.92,1154834.49949229,27,3,3,3,0,-15.24,-11.63,-3.54,-9.45,-3.86,-2.05,-141.875,130.0,-22.3125,0.3863525390625,0.00457763671875,0.75872802734375,-0.52447509765625,-26.6875,50.875,22.0625,-5.79,-7.76,-1.48,moving,5
7.93,1154834.520786683,27,3,3,3,0,-13.74,-10.13,-3.19,-7.99,-2.37,-1.49,-110.9375,67.8125,-20.9375,0.3809814453125,0.0025634765625,0.76605224609375,-0.51776123046875,-26.6875,50.875,22.0625,-5.74,-7.75,-1.7,moving,5
7.94,1154834.520786683,27,3,3,3,0,-12.12,-9.3,-2.45,-6.38,-1.55,-0.66,-59.0625,8.75,-9.4375,0.37994384765625,0.0003662109375,0.76898193359375,-0.51409912109375,-26.6875,50.875,22.0625,-5.73,-7.75,-1.79,moving,5
7.95,1154834.528514751,27,3,3,3,0,-9.38,-9.59,-1.53,-3.63,-1.85,0.24,-14.25,-30.8125,3.875,0.3822021484375,-0.001220703125,0.76861572265625,-0.51300048828125,-26.6875,50.875,22.0625,-5.74,-7.74,-1.77,moving,5
7.96,1154834.528514751,27,3,3,3,0,-9.38,-9.59,-1.53,-3.63,-1.85,0.24,-14.25,-30.8125,3.875,0.3822021484375,-0.001220703125,0.76861572265625,-0.51300048828125,-26.6875,50.875,22.0625,-5.74,-7.74,-1.77,moving,5
7.96,1154834.544787782,27,3,3,3,0,-7.77,-9.62,-2.21,-1.99,-1.88,-0.51,20.5,-53.625,11.6875,0.3863525390625,-0.00213623046875,0.765869140625,-0.51397705078125,-26.6875,50.875,22.0625,-5.78,-7.73,-1.69,moving,5
7.97,1154834.544787782,27,3,3,3,0,-6.21,-9.3,-2.79,-0.39,-1.56,-1.22,40.3125,-75.9375,10.625,0.39190673828125,-0.00347900390625,0.761474609375,-0.51629638671875,-28.1875,50.0625,24.0,-5.81,-7.73,-1.56,moving,5
7.98,1154834.557991965,27,3,3,3,0,-4.71,-8.49,-3.18,1.12,-0.74,-1.75,38.625,-82.25,3.1875,0.39752197265625,-0.005615234375,0.75689697265625,-0.5186767578125,-28.1875,50.0625,24.0,-5.84,-7.74,-1.43,moving,5
7.99,1154834.557991965,27,3,3,3,0,-4.39,-6.64,-2.95,1.45,1.1,-1.6,18.6875,-45.3125,-3.4375,0.400390625,-0.00726318359375,0.7545166015625,-0.52001953125,-28.1875,50.0625,24.0,-5.85,-7.75,-1.35,moving,5
8.0,1154834.589660788,27,3,3,3,0,-5.01,-6.17,-2.16,0.81,1.58,-0.79,-11.0625,4.5,-10.3125,0.39959716796875,-0.00811767578125,0.755126953125,-0.51959228515625,-28.1875,50.0625,24.0,-5.83,-7.75,-1.37,moving,5
8.01,1154834.589660788,27,3,3,3,0,-5.23,-5.75,-1.28,0.56,2.01,0.16,-30.6875,32.3125,-18.75,0.3966064453125,-0.0089111328125,0.75762939453125,-0.51824951171875,-28.1875,50.0625,24.0,-5.8,-7.77,-1.45,moving,5
8.02,1154834.604428529,27,3,3,3,0,-4.97,-4.08,-0.31,0.77,3.7,1.23,-40.75,44.25,-24.5,0.39251708984375,-0.00994873046875,0.760986328125,-0.51641845703125,-27.0625,50.375,25.1875,-5.75,-7.78,-1.55,moving,5
8.03,1154834.604428529,27,3,3,3,0,-4.62,-3.26,-0.36,1.07,4.53,1.3,-49.1875,50.75,-29.0,0.3878173828125,-0.01123046875,0.764892578125,-0.51416015625,-27.0625,50.375,25.1875,-5.7,-7.79,-1.67,moving,5
8.05,1154834.61791799,27,3,3,3,0,-4.25,-2.61,-0.44,1.39,5.2,1.35,-50.8125,51.25,-30.75,0.38299560546875,-0.0126953125,0.76885986328125,-0.5118408203125,-27.0625,50.375,25.1875,-5.64,-7.81,-1.79,moving,5
8.05,1154834.61791799,27,3,3,3,0,-3.79,-2.1,-0.38,1.8,5.71,1.5,-42.8125,48.0625,-28.0625,0.37841796875,-0.01385498046875,0.7723388671875,-0.50994873046875,-27.0625,50.375,25.1875,-5.59,-7.82,-1.89,moving,5
8.06,1154834.654937684,27,3,3,3,0,-2.91,-1.64,-0.18,2.63,6.19,1.8,-33.375,42.0,-23.875,0.37451171875,-0.01470947265625,0.77520751953125,-0.508544921875,-27.0625,50.375,25.1875,-5.54,-7.83,-1.98,moving,5
8.07,1154834.654937684,27,3,3,3,0,-2.56,-1.42,-0.24,2.94,6.41,1.81,-29.3125,32.625,-19.5625,0.37139892578125,-0.0155029296875,0.77752685546875,-0.5072021484375,-26.6875,50.375,26.75,-5.5,-7.84,-2.05,moving,5
8.08,1154834.663322328,27,3,3,3,0,-2.43,-1.41,-0.14,3.04,6.43,1.96,-27.375,19.5625,-13.6875,0.36944580078125,-0.0164794921875,0.77935791015625,-0.50579833984375,-26.6875,50.375,26.75,-5.48,-7.85,-2.11,moving,5
8.09,1154834.663322328,27,3,3,3,0,-2.37,-1.37,-0.13,3.09,6.47,2.01,-24.25,8.125,-7.6875,0.3685302734375,-0.01739501953125,0.78070068359375,-0.50439453125,-26.6875,50.375,26.75,-5.47,-7.84,-2.15,moving,5
8.1,1154834.678224549,27,3,3,3,0,-2.06,-1.36,-0.27,3.39,6.47,1.9,-21.8125,-0.0625,-3.5625,0.36834716796875,-0.018310546875,0.7816162109375,-0.50299072265625,-26.6875,50.375,26.75,-5.46,-7.84,-2.18,moving,5
8.12,1154834.678224549,27,3,3,3,0,-1.77,-1.42,-0.46,3.68,6.4,1.73,-18.875,-4.4375,0.0,0.36865234375,-0.01910400390625,0.7823486328125,-0.501708984375,-26.6875,50.375,26.75,-5.46,-7.83,-2.2,moving,5
8.13,1154834.711152406,27,3,3,3,0,-1.53,-1.6,-0.59,3.94,6.21,1.61,-15.0625,-6.6875,3.3125,0.3692626953125,-0.0196533203125,0.78277587890625,-0.50054931640625,-28.875,48.1875,28.1875,-5.47,-7.82,-2.21,moving,5
8.13,1154834.711152406,27,3,3,3,0,-1.49,-2.05,-0.71,3.99,5.76,1.5,-11.8125,-8.4375,4.625,0.3699951171875,-0.02008056640625,0.78302001953125,-0.49957275390625,-28.875,48.1875,28.1875,-5.48,-7.81,-2.22,moving,5
8.14,1154834.729978659,27,3,3,3,0,-1.79,-3.43,-0.84,3.69,4.37,1.38,-9.6875,-9.25,4.375,0.370849609375,-0.02044677734375,0.78314208984375,-0.49871826171875,-28.875,48.1875,28.1875,-5.49,-7.8,-2.23,stop,5
8.15,1154834.729978659,27,3,3,3,0,-2.21,-4.37,-1.03,3.28,3.43,1.19,-8.9375,-10.5625,3.4375,0.3717041015625,-0.02093505859375,0.783203125,-0.49798583984375,-28.875,48.1875,28.1875,-5.5,-7.8,-2.23,stop,5
8.16,1154834.738415712,27,3,3,3,0,-2.81,-5.54,-1.29,2.69,2.25,0.93,-9.3125,-15.8125,0.75,0.372802734375,-0.0218505859375,0.7830810546875,-0.49725341796875,-28.875,48.1875,28.1875,-5.51,-7.79,-2.23,stop,5
8.17,1154834.738415712,27,3,3,3,0,-3.45,-6.94,-1.65,2.06,0.85,0.55,-6.6875,-25.125,-3.0625,0.3743896484375,-0.02337646484375,0.7825927734375,-0.496826171875,-28.5,48.5625,29.0,-5.51,-7.79,-2.21,stop,5
8.18,1154834.77139793,27,3,3,3,0,-5.06,-10.97,-3.29,0.45,-3.17,-1.12,4.875,-40.375,-5.1875,0.376953125,-0.02532958984375,0.781005859375,-0.49725341796875,-28.5,48.5625,29.0,-5.52,-7.8,-2.17,stop,5
8.19,1154834.77139793,27,3,3,3,0,-6.36,-14.9,-5.38,-0.81,-7.08,-3.31,29.25,-65.0625,-4.8125,0.38128662109375,-0.0274658203125,0.777587890625,-0.49920654296875,-28.5,48.5625,29.0,-5.54,-7.81,-2.06,stop,5
8.21,1154834.784314719,27,3,3,3,0,-9.14,-21.27,-7.66,-3.56,-13.43,-5.79,76.0625,-97.125,4.5,0.38824462890625,-0.02886962890625,0.77099609375,-0.50396728515625,-28.5,48.5625,29.0,-5.58,-7.84,-1.86,stop,5
8.21,1154834.784314719,27,3,3,3,0,-11.11,-22.06,-0.73,-5.49,-14.2,0.89,109.625,-98.25,8.5,0.39544677734375,-0.0289306640625,0.7628173828125,-0.5107421875,-28.5,48.5625,29.0,-5.62,-7.86,-1.62,stop,5
8.22,1154834.799012554,27,3,3,3,0,-11.11,-22.06,-0.73,-5.49,-14.2,0.89,109.625,-98.25,8.5,0.39544677734375,-0.0289306640625,0.7628173828125,-0.5107421875,-28.5,48.5625,29.0,-5.62,-7.86,-1.62,stop,5
8.23,1154834.799012554,27,3,3,3,0,-9.21,-17.86,-0.55,-3.59,-9.97,0.92,65.8125,-54.4375,-11.375,0.39874267578125,-0.02978515625,0.75799560546875,-0.515380859375,-27.75,48.5625,30.5625,-5.62,-7.89,-1.47,stop,5
8.23,1154834.814028179,27,3,3,3,0,-8.28,-14.3,-2.85,-2.69,-6.37,-1.41,27.9375,-1.25,-24.875,0.39776611328125,-0.030517578125,0.756591796875,-0.51806640625,-27.75,48.5625,30.5625,-5.59,-7.92,-1.43,stop,5
8.24,1154834.814028179,27,3,3,3,0,-8.3,-12.46,-0.78,-2.75,-4.51,0.66,4.9375,13.375,-27.5,0.3956298828125,-0.03155517578125,0.75677490234375,-0.5194091796875,-27.75,48.5625,30.5625,-5.55,-7.95,-1.44,stop,5
8.25,1154834.828803244,27,3,3,3,0,-7.06,-11.83,-0.76,-1.57,-3.86,0.79,-43.8125,52.6875,-32.6875,0.39056396484375,-0.0328369140625,0.76043701171875,-0.51776123046875,-27.75,48.5625,30.5625,-5.49,-7.97,-1.55,stop,5
8.26,1154834.828803244,27,3,3,3,0,-5.64,-11.38,-1.97,-0.22,-3.4,-0.24,-67.625,77.9375,-35.9375,0.383544921875,-0.0340576171875,0.76605224609375,-0.51470947265625,-27.75,48.5625,30.5625,-5.41,-7.98,-1.72,stop,5
8.27,1154834.859212871,27,3,3,3,0,-4.41,-10.61,-2.21,0.93,-2.61,-0.35,-52.5625,63.75,-34.75,0.3775634765625,-0.0352783203125,0.7703857421875,-0.51251220703125,-28.5,49.5625,28.1875,-5.35,-8.0,-1.85,stop,5
8.29,1154834.859212871,27,3,3,3,0,-3.44,-9.58,-1.97,1.85,-1.55,-0.05,-22.8125,35.75,-30.0625,0.37371826171875,-0.03643798828125,0.77252197265625,-0.5120849609375,-28.5,49.5625,28.1875,-5.29,-8.02,-1.92,stop,5
8.3,1154834.873312033,27,3,3,3,0,-4.57,-6.0,-2.52,0.69,2.04,-0.59,2.25,16.5,-17.9375,0.371826171875,-0.03680419921875,0.77288818359375,-0.51287841796875,-28.5,49.5625,28.1875,-5.26,-8.04,-1.93,stop,5
8.3,1154834.873312033,27,3,3,3,0,-5.54,-4.46,-2.97,-0.28,3.59,-1.06,19.9375,2.0625,-4.0,0.37158203125,-0.036376953125,0.77203369140625,-0.514404296875,-28.5,49.5625,28.1875,-5.25,-8.05,-1.9,stop,5
8.31,1154834.88882778,27,3,3,3,0,-5.97,-3.58,-2.58,-0.7,4.47,-0.73,30.3125,-14.8125,4.9375,0.37286376953125,-0.03570556640625,0.77020263671875,-0.5162353515625,-28.5,49.5625,28.1875,-5.27,-8.05,-1.85,stop,5
8.32,1154834.88882778,27,3,3,3,0,-5.88,-3.16,-1.7,-0.59,4.89,0.07,31.0625,-23.5,13.3125,0.3751220703125,-0.03485107421875,0.76806640625,-0.517822265625,-30.0,48.875,29.375,-5.29,-8.05,-1.78,stop,5
8.33,1154834.918778993,27,3,3,3,0,-4.06,-3.19,-0.68,1.26,4.84,1.05,21.875,-18.4375,18.5,0.37725830078125,-0.03375244140625,0.76654052734375,-0.51861572265625,-30.0,48.875,29.375,-5.32,-8.04,-1.73,stop,5
8.34,1154834.918778993,27,3,3,3,0,-3.1,-3.13,-0.7,2.26,4.88,1.01,10.75,-6.6875,22.0,0.3787841796875,-0.0322265625,0.765869140625,-0.5185546875,-30.0,48.875,29.375,-5.36,-8.02,-1.71,stop,5
8.36,1154834.933875835,27,3,3,3,0,-2.7,-2.88,-0.9,2.68,5.12,0.81,6.25,6.125,26.125,0.37957763671875,-0.02996826171875,0.765869140625,-0.51812744140625,-30.0,48.875,29.375,-5.39,-8.0,-1.71,stop,5
8.37,1154834.933875835,27,3,3,3,0,-2.77,-4.28,-0.93,2.65,3.69,0.78,5.4375,17.1875,29.4375,0.3797607421875,-0.02703857421875,0.76629638671875,-0.517578125,-30.0,48.875,29.375,-5.43,-7.98,-1.72,stop,5
8.38,1154834.948941672,27,3,3,3,0,-2.82,-5.21,-1.05,2.63,2.73,0.69,4.0,28.0,30.6875,0.3792724609375,-0.02362060546875,0.76708984375,-0.51690673828125,-29.1875,49.25,29.375,-5.46,-7.95,-1.74,stop,5
8.38,1154834.948941672,27,3,3,3,0,-2.79,-6.32,-1.35,2.7,1.59,0.42,4.0625,36.3125,28.6875,0.37811279296875,-0.0198974609375,0.7681884765625,-0.51629638671875,-29.1875,49.25,29.375,-5.49,-7.92,-1.77,stop,5
8.39,1154834.978660666,27,3,3,3,0,-3.03,-7.79,-1.56,2.47,0.11,0.23,6.9375,36.0625,24.0,0.3768310546875,-0.01641845703125,0.76910400390625,-0.5159912109375,-29.1875,49.25,29.375,-5.51,-7.9,-1.79,stop,5
8.4,1154834.978660666,27,3,3,3,0,-4.59,-10.77,-1.96,0.93,-2.88,-0.15,13.6875,30.0,19.1875,0.37567138671875,-0.0133056640625,0.76947021484375,-0.516357421875,-29.1875,49.25,29.375,-5.53,-7.89,-1.8,stop,5
8.41,1154834.993605734,27,3,3,3,0,-5.56,-12.07,-2.42,-0.01,-4.19,-0.62,19.0625,19.125,14.1875,0.37506103515625,-0.0108642578125,0.76922607421875,-0.51715087890625,-29.1875,49.25,29.375,-5.54,-7.88,-1.8,stop,5
8.42,1154834.993605734,27,3,3,3,0,-6.43,-13.19,-2.54,-0.88,-5.31,-0.77,22.5,1.0,6.375,0.37530517578125,-0.00970458984375,0.76824951171875,-0.51849365234375,-28.875,49.375,26.6875,-5.55,-7.88,-1.77,stop,5
8.44,1154835.00881598,27,3,3,3,0,-7.09,-14.14,-2.28,-1.54,-6.24,-0.56,27.625,-16.0,-4.9375,0.37615966796875,-0.00982666015625,0.7664794921875,-0.5205078125,-28.875,49.375,26.6875,-5.55,-7.89,-1.71,stop,5
8.45,1154835.00881598,27,3,3,3,0,-6.88,-12.24,-1.77,-1.34,-4.32,-0.11,26.375,-21.5625,-11.5625,0.3770751953125,-0.0107421875,0.76458740234375,-0.5225830078125,-28.875,49.375,26.6875,-5.54,-7.91,-1.66,stop,5
8.46,1154835.047061748,27,3,3,3,0,-6.19,-11.24,-2.5,-0.66,-3.31,-0.88,14.75,-12.25,-14.5625,0.37725830078125,-0.01177978515625,0.76348876953125,-0.5240478515625,-28.875,49.375,26.6875,-5.52,-7.93,-1.62,stop,5
8.46,1154835.047061748,27,3,3,3,0,-5.83,-10.44,-2.5,-0.32,-2.49,-0.88,2.75,0.6875,-16.9375,0.37640380859375,-0.0128173828125,0.76336669921875,-0.52484130859375,-28.875,49.375,26.6875,-5.5,-7.95,-1.62,stop,5
8.47,1154835.054538718,27,3,3,3,0,-5.62,-9.61,-2.27,-0.15,-1.65,-0.62,-10.625,17.6875,-17.8125,0.3743896484375,-0.0135498046875,0.764404296875,-0.52471923828125,-28.875,50.5,25.875,-5.47,-7.96,-1.65,stop,5
8.48,1154835.054538718,27,3,3,3,0,-5.62,-9.61,-2.27,-0.15,-1.65,-0.62,-10.625,17.6875,-17.8125,0.3743896484375,-0.0135498046875,0.764404296875,-0.52471923828125,-28.875,50.5,25.875,-5.47,-7.96,-1.65,stop,5
8.49,1154835.068429261,27,3,3,3,0,-5.48,-8.78,-2.26,-0.04,-0.81,-0.54,-22.5625,29.0625,-17.5,0.37164306640625,-0.01409912109375,0.766357421875,-0.5238037109375,-28.875,50.5,25.875,-5.44,-7.97,-1.71,stop,5
8.5,1154835.068429261,27,3,3,3,0,-5.35,-8.51,-2.15,0.05,-0.53,-0.38,-23.3125,28.625,-15.8125,0.36895751953125,-0.0146484375,0.768310546875,-0.5228271484375,-28.875,50.5,25.875,-5.4,-7.98,-1.77,stop,5
8.5,1154835.10551288,27,3,3,3,0,-5.12,-8.14,-1.96,0.25,-0.15,-0.14,-15.1875,20.875,-12.5625,0.366943359375,-0.0150146484375,0.7696533203125,-0.522216796875,-28.875,50.5,25.875,-5.38,-7.99,-1.81,stop,5
8.52,1154835.10551288,27,3,3,3,0,-5.13,-6.82,-1.98,0.23,1.17,-0.14,-4.0,11.3125,-8.125,0.36578369140625,-0.01519775390625,0.77020263671875,-0.522216796875,-28.875,50.5,25.875,-5.37,-7.99,-1.83,stop,5
8.53,1154835.114142071,27,3,3,3,0,-5.04,-6.35,-2.16,0.31,1.64,-0.34,6.1875,3.4375,-4.875,0.3653564453125,-0.01513671875,0.77001953125,-0.5228271484375,-29.1875,49.6875,26.25,-5.36,-8.0,-1.82,stop,5
8.54,1154835.114142071,27,3,3,3,0,-4.93,-6.1,-2.28,0.42,1.9,-0.47,13.1875,-2.375,-1.875,0.36541748046875,-0.01495361328125,0.76934814453125,-0.52374267578125,-29.1875,49.6875,26.25,-5.36,-8.01,-1.8,stop,5
8.55,1154835.128410544,27,3,3,3,0,-4.7,-6.1,-2.26,0.65,1.91,-0.47,14.9375,-4.5,-0.625,0.36572265625,-0.0147705078125,0.7685546875,-0.5247802734375,-29.1875,49.6875,26.25,-5.36,-8.01,-1.78,stop,5
8.55,1154835.128410544,27,3,3,3,0,-4.16,-6.47,-2.04,1.19,1.54,-0.27,11.375,-0.25,-0.25,0.36572265625,-0.014404296875,0.76800537109375,-0.52557373046875,-29.1875,49.6875,26.25,-5.36,-8.01,-1.76,stop,5
8.56,1154835.144163311,27,3,3,3,0,-3.92,-6.67,-1.85,1.43,1.34,-0.08,4.3125,7.0,-1.5,0.36517333984375,-0.0140380859375,0.76800537109375,-0.52587890625,-29.1875,49.6875,26.25,-5.35,-8.02,-1.76,stop,5
8.58,1154835.144163311,27,3,3,3,0,-3.8,-6.83,-1.77,1.54,1.19,0.01,-2.1875,15.0625,-3.625,0.364013671875,-0.013671875,0.76861572265625,-0.52587890625,-28.875,49.6875,25.875,-5.34,-8.02,-1.78,stop,5
8.59,1154835.158344219,27,3,3,3,0,-3.77,-6.97,-1.71,1.55,1.05,0.09,-6.5,21.375,-5.625,0.36224365234375,-0.0133056640625,0.76959228515625,-0.525634765625,-28.875,49.6875,25.875,-5.33,-8.02,-1.81,stop,5
8.6,1154835.158344219,27,3,3,3,0,-3.98,-7.58,-1.64,1.32,0.45,0.2,-8.125,25.1875,-7.3125,0.3602294921875,-0.01287841796875,0.770751953125,-0.525390625,-28.875,49.6875,25.875,-5.31,-8.03,-1.84,stop,5
8.61,1154835.194743552,27,3,3,3,0,-4.22,-7.92,-1.62,1.07,0.11,0.25,-8.1875,25.5625,-8.125,0.35809326171875,-0.01251220703125,0.77191162109375,-0.52508544921875,-28.875,49.6875,25.875,-5.29,-8.03,-1.88,stop,5
8.62,1154835.194743552,27,3,3,3,0,-4.51,-8.33,-1.58,0.75,-0.28,0.33,-7.625,22.75,-8.0,0.356201171875,-0.01226806640625,0.77301025390625,-0.52484130859375,-28.875,49.6875,25.875,-5.27,-8.04,-1.91,stop,5
8.63,1154835.20731122,27,3,3,3,0,-4.82,-8.72,-1.57,0.43,-0.67,0.36,-6.875,16.875,-7.875,0.35467529296875,-0.01226806640625,0.7738037109375,-0.524658203125,-29.1875,49.375,24.6875,-5.25,-8.04,-1.94,stop,5
8.63,1154835.20731122,27,3,3,3,0,-5.43,-9.48,-1.92,-0.19,-1.43,0.03,-6.0,10.6875,-7.25,0.35357666015625,-0.012451171875,0.7744140625,-0.52447509765625,-29.1875,49.375,24.6875,-5.24,-8.05,-1.95,stop,5
8.64,1154835.222053244,27,3,3,3,0,-5.6,-9.65,-2.24,-0.36,-1.59,-0.26,-5.5,5.0,-6.75,0.3529052734375,-0.01287841796875,0.77484130859375,-0.52435302734375,-29.1875,49.375,24.6875,-5.23,-8.05,-1.97,stop,5
8.65,1154835.222053244,27,3,3,3,0,-5.7,-9.76,-2.51,-0.48,-1.7,-0.53,-5.1875,1.375,-5.8125,0.3525390625,-0.01336669921875,0.77508544921875,-0.524169921875,-29.1875,49.375,24.6875,-5.22,-8.06,-1.98,stop,5
8.67,1154835.254673158,27,3,3,3,0,-5.75,-9.68,-2.69,-0.54,-1.62,-0.7,-4.875,0.625,-5.4375,0.35223388671875,-0.01385498046875,0.77532958984375,-0.52398681640625,-29.1875,49.375,24.6875,-5.21,-8.06,-1.98,stop,5
8.68,1154835.254673158,27,3,3,3,0,-5.91,-9.13,-2.63,-0.71,-1.06,-0.63,-5.25,1.5,-4.9375,0.35186767578125,-0.0142822265625,0.775634765625,-0.5238037109375,-29.5625,49.375,25.0625,-5.2,-8.06,-1.99,stop,5
8.69,1154835.264551861,27,3,3,3,0,-6.0,-8.76,-2.4,-0.8,-0.69,-0.4,-6.8125,1.875,-4.3125,0.3515625,-0.01470947265625,0.7760009765625,-0.52349853515625,-29.5625,49.375,25.0625,-5.19,-8.06,-2.0,stop,5
8.7,1154835.264551861,27,3,3,3,0,-6.06,-8.4,-2.09,-0.86,-0.33,-0.07,-8.6875,1.0625,-3.0,0.351318359375,-0.01513671875,0.77642822265625,-0.52301025390625,-29.5625,49.375,25.0625,-5.19,-8.06,-2.02,stop,5
8.71,1154835.284235373,27,3,3,3,0,-5.85,-7.78,-1.73,-0.66,0.27,0.29,-9.25,0.1875,-1.5,0.3511962890625,-0.01556396484375,0.77685546875,-0.52239990234375,-29.5625,49.375,25.0625,-5.19,-8.06,-2.03,stop,5
8.71,1154835.284235373,27,3,3,3,0,-5.69,-7.69,-1.71,-0.49,0.36,0.32,-7.8125,-2.125,0.625,0.35137939453125,-0.015869140625,0.77716064453125,-0.5218505859375,-29.5625,49.375,25.0625,-5.19,-8.06,-2.04,stop,5
8.72,1154835.319460064,27,3,3,3,0,-5.49,-7.67,-1.8,-0.29,0.38,0.23,-3.6875,-5.8125,3.3125,0.3519287109375,-0.0159912109375,0.77716064453125,-0.521484375,-29.1875,48.5625,24.6875,-5.2,-8.05,-2.04,stop,5
8.73,1154835.319460064,27,3,3,3,0,-5.29,-7.7,-1.93,-0.08,0.34,0.09,2.5625,-9.9375,5.9375,0.35284423828125,-0.0159912109375,0.7767333984375,-0.521484375,-29.1875,48.5625,24.6875,-5.21,-8.05,-2.03,stop,5
8.75,1154835.334157126,27,3,3,3,0,-5.01,-7.68,-1.9,0.21,0.36,0.1,7.0,-13.75,7.75,0.3541259765625,-0.015869140625,0.7760009765625,-0.521728515625,-29.1875,48.5625,24.6875,-5.22,-8.05,-2.0,stop,5
8.76,1154835.334157126,27,3,3,3,0,-5.0,-7.66,-1.78,0.24,0.37,0.2,4.9375,-16.0,7.8125,0.3555908203125,-0.01593017578125,0.7752685546875,-0.52178955078125,-29.1875,48.5625,24.6875,-5.24,-8.04,-1.98,stop,5
8.77,1154835.339410137,27,3,3,3,0,-4.89,-7.6,-1.92,0.36,0.43,0.03,4.0,-13.875,6.875,0.3568115234375,-0.0159912109375,0.774658203125,-0.52178955078125,-29.1875,48.5625,24.6875,-5.25,-8.04,-1.96,stop,5
8.78,1154835.339410137,27,3,3,3,0,-4.74,-7.5,-1.9,0.51,0.53,0.05,2.5625,-8.8125,5.0625,0.357666015625,-0.0159912109375,0.7742919921875,-0.5218505859375,-30.0,48.1875,25.5,-5.26,-8.03,-1.95,stop,5
8.79,1154835.380894472,27,3,3,3,0,-4.89,-7.2,-2.13,0.37,0.82,-0.17,-2.75,-0.125,2.75,0.3577880859375,-0.015869140625,0.7744140625,-0.52154541015625,-30.0,48.1875,25.5,-5.27,-8.03,-1.96,stop,5
8.8,1154835.380894472,27,3,3,3,0,-5.02,-7.13,-1.98,0.24,0.89,0.0,-8.4375,7.875,0.875,0.3572998046875,-0.0157470703125,0.77508544921875,-0.52093505859375,-30.0,48.1875,25.5,-5.27,-8.02,-1.98,stop,5
8.8,1154835.385238791,27,3,3,3,0,-5.02,-7.13,-1.98,0.24,0.89,0.0,-8.4375,7.875,0.875,0.3572998046875,-0.0157470703125,0.77508544921875,-0.52093505859375,-30.0,48.1875,25.5,-5.27,-8.02,-1.98,stop,5
8.81,1154835.385238791,27,3,3,3,0,-5.21,-7.14,-1.73,0.05,0.88,0.27,-13.0625,12.5625,-0.9375,0.3563232421875,-0.015625,0.77606201171875,-0.5201416015625,-30.0,48.1875,25.5,-5.26,-8.02,-2.01,stop,5
8.82,1154835.4020683,27,3,3,3,0,-5.29,-7.11,-1.61,-0.04,0.9,0.42,-14.0,13.875,-2.0625,0.35528564453125,-0.01556396484375,0.777099609375,-0.519287109375,-30.0,48.1875,25.5,-5.25,-8.02,-2.04,stop,5
8.83,1154835.4020683,27,3,3,3,0,-5.44,-7.48,-1.96,-0.19,0.53,0.1,-11.8125,12.3125,-2.25,0.35430908203125,-0.01556396484375,0.77801513671875,-0.5185546875,-29.5625,48.875,26.25,-5.24,-8.02,-2.07,stop,5
8.84,1154835.420588401,27,3,3,3,0,-5.44,-7.73,-2.25,-0.19,0.28,-0.16,-7.8125,8.3125,-1.625,0.3536376953125,-0.0155029296875,0.77862548828125,-0.51806640625,-29.5625,48.875,26.25,-5.24,-8.01,-2.08,stop,5
8.85,1154835.420588401,27,3,3,3,0,-5.38,-7.95,-2.49,-0.13,0.06,-0.4,-3.5,3.4375,-0.6875,0.3533935546875,-0.0155029296875,0.7789306640625,-0.51788330078125,-29.5625,48.875,26.25,-5.24,-8.01,-2.09,stop,5
8.86,1154835.429181418,27,3,3,3,0,-5.38,-8.34,-2.34,-0.14,-0.33,-0.24,-0.5,1.0625,-0.4375,0.35333251953125,-0.0155029296875,0.7789306640625,-0.51788330078125,-29.5625,48.875,26.25,-5.24,-8.01,-2.09,stop,5
8.87,1154835.429181418,27,3,3,3,0,-5.36,-8.41,-2.08,-0.12,-0.39,0.01,0.125,1.375,-0.625,0.3531494140625,-0.01544189453125,0.77899169921875,-0.51788330078125,-29.5625,48.875,26.25,-5.23,-8.01,-2.09,stop,5
8.88,1154835.46019452,27,3,3,3,0,-5.24,-8.44,-1.92,-0.01,-0.42,0.17,0.0,2.875,-1.1875,0.3529052734375,-0.01544189453125,0.779052734375,-0.5179443359375,-28.5,48.875,27.0625,-5.23,-8.02,-2.1,stop,5
8.89,1154835.46019452,27,3,3,3,0,-5.08,-8.4,-1.95,0.14,-0.38,0.15,0.0,2.75,-1.6875,0.3526611328125,-0.01544189453125,0.7791748046875,-0.51800537109375,-28.5,48.875,27.0625,-5.23,-8.02,-2.1,stop,5
8.9,1154835.474330751,27,3,3,3,0,-4.8,-8.19,-2.07,0.42,-0.17,0.02,0.75,1.0,-2.3125,0.35247802734375,-0.0155029296875,0.7791748046875,-0.51812744140625,-28.5,48.875,27.0625,-5.22,-8.02,-2.1,stop,5
8.91,1154835.474330751,27,3,3,3,0,-4.76,-8.08,-2.01,0.45,-0.05,0.09,1.875,-0.5,-2.875,0.35235595703125,-0.015625,0.779052734375,-0.518310546875,-28.5,48.875,27.0625,-5.22,-8.02,-2.1,stop,5
8.92,1154835.489487855,27,3,3,3,0,-4.81,-7.97,-1.92,0.4,0.05,0.17,3.0,-2.25,-3.6875,0.352294921875,-0.01593017578125,0.77886962890625,-0.5186767578125,-28.5,48.875,27.0625,-5.22,-8.03,-2.09,stop,5
8.93,1154835.489487855,27,3,3,3,0,-4.89,-7.88,-1.81,0.32,0.14,0.26,4.6875,-5.0625,-4.0,0.35247802734375,-0.01629638671875,0.77850341796875,-0.51910400390625,-30.25,48.25,26.25,-5.21,-8.03,-2.08,stop,5
8.94,1154835.522424094,27,3,3,3,0,-5.04,-7.74,-1.87,0.16,0.29,0.19,5.9375,-7.375,-4.5,0.352783203125,-0.0167236328125,0.7779541015625,-0.5196533203125,-30.25,48.25,26.25,-5.21,-8.04,-2.06,stop,5
8.95,1154835.522424094,27,3,3,3,0,-5.1,-7.74,-2.09,0.1,0.31,-0.04,6.625,-8.0625,-4.75,0.3531494140625,-0.0172119140625,0.77740478515625,-0.52020263671875,-30.25,48.25,26.25,-5.2,-8.05,-2.05,stop,5
8.96,1154835.533744773,27,3,3,3,0,-5.18,-7.72,-2.33,0.01,0.33,-0.3,6.6875,-8.0625,-4.9375,0.35345458984375,-0.0177001953125,0.77685546875,-0.52081298828125,-30.25,48.25,26.25,-5.2,-8.05,-2.03,stop,5
8.96,1154835.533744773,27,3,3,3,0,-5.23,-7.68,-2.39,-0.03,0.38,-0.37,5.5625,-6.3125,-5.0625,0.3536376953125,-0.0181884765625,0.77642822265625,-0.5213623046875,-30.25,48.25,26.25,-5.19,-8.06,-2.02,stop,5
8.98,1154835.553356996,27,3,3,3,0,-5.34,-7.62,-2.13,-0.15,0.44,-0.12,3.3125,-3.625,-5.3125,0.3536376953125,-0.01861572265625,0.776123046875,-0.521728515625,-30.0,49.6875,25.5,-5.19,-8.07,-2.01,stop,5
8.99,1154835.553356996,27,3,3,3,0,-5.43,-7.68,-2.0,-0.24,0.39,0.01,1.4375,-0.125,-5.625,0.3533935546875,-0.01898193359375,0.77606201171875,-0.52197265625,-30.0,49.6875,25.5,-5.18,-8.07,-2.01,stop,5
9.0,1154835.580701845,27,3,3,3,0,-5.48,-7.77,-1.94,-0.3,0.3,0.06,0.75,2.125,-5.3125,0.35302734375,-0.01922607421875,0.77606201171875,-0.522216796875,-30.0,49.6875,25.5,-5.17,-8.08,-2.01,stop,5
9.01,1154835.580701845,27,3,3,3,0,-5.49,-7.93,-1.96,-0.32,0.14,0.04,0.3125,3.125,-4.8125,0.35260009765625,-0.0194091796875,0.77618408203125,-0.52239990234375,-30.0,49.6875,25.5,-5.16,-8.08,-2.01,stop,5
9.02,1154835.594728822,27,3,3,3,0,-5.42,-7.99,-2.03,-0.26,0.09,-0.01,0.5625,4.0,-3.9375,0.35211181640625,-0.01947021484375,0.7762451171875,-0.52252197265625,-30.0,49.6875,25.5,-5.16,-8.09,-2.01,stop,5
9.03,1154835.594728822,27,3,3,3,0,-5.32,-8.01,-2.08,-0.17,0.07,-0.06,2.0625,3.4375,-2.875,0.35174560546875,-0.0194091796875,0.7762451171875,-0.52276611328125,-30.0,48.875,27.0625,-5.15,-8.09,-2.01,stop,5
9.04,1154835.608866355,27,3,3,3,0,-5.28,-8.05,-2.07,-0.12,0.03,-0.05,3.125,2.25,-1.9375,0.35150146484375,-0.01934814453125,0.77618408203125,-0.5230712890625,-30.0,48.875,27.0625,-5.15,-8.09,-2.01,stop,5
9.05,1154835.608866355,27,3,3,3,0,-5.21,-8.17,-2.4,-0.06,-0.07,-0.39,3.1875,0.3125,-1.125,0.3514404296875,-0.01934814453125,0.77606201171875,-0.5233154296875,-30.0,48.875,27.0625,-5.15,-8.09,-2.01,stop,5
9.06,1154835.641753806,27,3,3,3,0,-5.12,-8.25,-2.39,0.02,-0.15,-0.39,3.8125,-0.0625,-0.6875,0.3514404296875,-0.019287109375,0.77587890625,-0.52362060546875,-30.0,48.875,27.0625,-5.14,-8.1,-2.0,stop,5
9.07,1154835.641753806,27,3,3,3,0,-5.05,-8.27,-2.21,0.09,-0.17,-0.2,3.125,1.375,-0.5625,0.351318359375,-0.0191650390625,0.7757568359375,-0.52386474609375,-30.0,48.875,27.0625,-5.14,-8.1,-2.0,stop,5
9.08,1154835.654183127,27,3,3,3,0,-5.06,-8.21,-2.0,0.08,-0.11,0.0,1.9375,4.75,-0.5,0.3509521484375,-0.0189208984375,0.77581787109375,-0.52398681640625,-29.5625,48.875,24.6875,-5.14,-8.1,-2.0,stop,5
9.09,1154835.654183127,27,3,3,3,0,-5.01,-8.13,-1.8,0.13,-0.03,0.2,1.4375,5.125,-0.0625,0.35064697265625,-0.01861572265625,0.77593994140625,-0.52410888671875,-29.5625,48.875,24.6875,-5.14,-8.1,-2.0,stop,5
9.1,1154835.673023622,27,3,3,3,0,-4.95,-8.11,-1.86,0.18,-0.01,0.14,1.5625,3.0,0.5,0.35040283203125,-0.0184326171875,0.77593994140625,-0.524169921875,-29.5625,48.875,24.6875,-5.14,-8.1,-2.0,stop,5
9.11,1154835.673023622,27,3,3,3,0,-4.93,-8.08,-1.95,0.21,0.01,0.04,2.8125,0.125,1.125,0.3504638671875,-0.01824951171875,0.77581787109375,-0.52435302734375,-29.5625,48.875,24.6875,-5.14,-8.1,-2.0,stop,5
9.12,1154835.70012433,27,3,3,3,0,-4.89,-8.02,-2.09,0.25,0.08,-0.09,4.375,-2.3125,1.6875,0.3507080078125,-0.01812744140625,0.77557373046875,-0.52459716796875,-29.5625,48.875,24.6875,-5.14,-8.1,-1.99,stop,5
9.13,1154835.70012433,27,3,3,3,0,-4.95,-8.03,-2.18,0.19,0.06,-0.2,6.125,-4.375,2.1875,0.35113525390625,-0.01800537109375,0.775146484375,-0.52496337890625,-29.5625,48.1875,25.5,-5.15,-8.1,-1.98,stop,5
9.14,1154835.717353741,27,3,3,3,0,-5.01,-8.04,-2.08,0.14,0.05,-0.11,6.375,-4.75,2.3125,0.3515625,-0.01788330078125,0.77471923828125,-0.5252685546875,-29.5625,48.1875,25.5,-5.15,-8.1,-1.97,stop,5
9.15,1154835.717353741,27,3,3,3,0,-5.06,-8.04,-1.98,0.1,0.05,-0.02,4.9375,-3.6875,2.125,0.3519287109375,-0.01776123046875,0.77435302734375,-0.52557373046875,-29.5625,48.1875,25.5,-5.16,-8.1,-1.96,stop,5
9.16,1154835.728504905,27,3,3,3,0,-5.07,-8.0,-1.86,0.09,0.09,0.08,3.0,-2.1875,2.0,0.3521728515625,-0.017578125,0.774169921875,-0.52569580078125,-29.5625,48.1875,25.5,-5.16,-8.1,-1.95,stop,5
9.17,1154835.728504905,27,3,3,3,0,-5.15,-8.0,-1.84,0.01,0.09,0.1,1.875,-1.1875,1.75,0.352294921875,-0.01751708984375,0.7740478515625,-0.5257568359375,-29.5625,48.1875,25.5,-5.16,-8.1,-1.95,stop,5
9.18,1154835.758946799,27,3,3,3,0,-5.17,-8.08,-1.95,0.0,0.01,0.0,1.8125,-1.5625,1.75,0.35247802734375,-0.01739501953125,0.77392578125,-0.52581787109375,-31.0,48.875,25.0625,-5.17,-8.1,-1.94,stop,5
9.19,1154835.758946799,27,3,3,3,0,-5.23,-8.18,-2.04,-0.06,-0.08,-0.1,3.125,-2.3125,1.75,0.35272216796875,-0.01727294921875,0.773681640625,-0.5260009765625,-31.0,48.875,25.0625,-5.17,-8.1,-1.93,stop,5
9.2,1154835.773273215,27,3,3,3,0,-5.31,-8.33,-2.11,-0.14,-0.23,-0.18,4.6875,-3.1875,1.8125,0.35302734375,-0.01715087890625,0.77337646484375,-0.5262451171875,-31.0,48.875,25.0625,-5.17,-8.1,-1.93,stop,5
9.21,1154835.773273215,27,3,3,3,0,-5.37,-8.31,-2.08,-0.18,-0.21,-0.16,5.1875,-3.375,2.0,0.3533935546875,-0.01702880859375,0.7730712890625,-0.52655029296875,-31.0,48.875,25.0625,-5.18,-8.1,-1.92,stop,5
9.22,1154835.788708966,27,3,3,3,0,-5.36,-8.29,-2.04,-0.17,-0.19,-0.13,3.9375,-3.0625,1.75,0.35369873046875,-0.01690673828125,0.77276611328125,-0.5267333984375,-31.0,48.875,25.0625,-5.18,-8.1,-1.91,stop,5
9.23,1154835.788708966,27,3,3,3,0,-5.31,-8.24,-2.02,-0.12,-0.14,-0.11,1.6875,-2.375,1.625,0.3538818359375,-0.016845703125,0.77264404296875,-0.52679443359375,-30.0,48.5625,24.25,-5.18,-8.1,-1.9,stop,5
9.24,1154835.819726666,27,3,3,3,0,-5.19,-8.21,-1.98,0.0,-0.12,-0.08,-0.1875,-0.8125,1.4375,0.35400390625,-0.016845703125,0.7725830078125,-0.5267333984375,-30.0,48.5625,24.25,-5.19,-8.09,-1.9,stop,5
9.25,1154835.819726666,27,3,3,3,0,-5.14,-8.18,-2.01,0.04,-0.08,-0.1,-1.3125,0.5625,1.375,0.35406494140625,-0.0167236328125,0.772705078125,-0.526611328125,-30.0,48.5625,24.25,-5.19,-8.09,-1.9,stop,5
9.26,1154835.838794211,27,3,3,3,0,-5.18,-8.18,-2.01,0.0,-0.09,-0.09,-1.5,1.75,1.375,0.35400390625,-0.0166015625,0.7728271484375,-0.5264892578125,-30.0,48.5625,24.25,-5.19,-8.09,-1.91,stop,5
9.27,1154835.838794211,27,3,3,3,0,-5.23,-8.19,-2.06,-0.03,-0.09,-0.14,-1.0,2.3125,1.375,0.3538818359375,-0.01641845703125,0.77294921875,-0.5263671875,-30.0,48.5625,24.25,-5.19,-8.09,-1.91,stop,5
9.28,1154835.850005719,27,3,3,3,0,-5.3,-8.17,-2.03,-0.1,-0.08,-0.11,-0.6875,2.1875,1.375,0.35382080078125,-0.01629638671875,0.7730712890625,-0.5262451171875,-29.1875,48.5625,24.6875,-5.19,-8.09,-1.91,stop,5
9.29,1154835.850005719,27,3,3,3,0,-5.31,-8.13,-1.99,-0.12,-0.04,-0.07,-1.0625,2.9375,1.375,0.3536376953125,-0.01605224609375,0.773193359375,-0.526123046875,-29.1875,48.5625,24.6875,-5.19,-8.09,-1.92,stop,5
9.3,1154835.879352276,27,3,3,3,0,-5.28,-8.07,-1.98,-0.09,0.01,-0.05,-1.875,4.0625,1.125,0.35345458984375,-0.015869140625,0.7734375,-0.5260009765625,-29.1875,48.5625,24.6875,-5.19,-8.08,-1.93,stop,5
9.31,1154835.879352276,27,3,3,3,0,-5.27,-8.05,-1.98,-0.07,0.02,-0.04,-2.5625,4.25,1.125,0.35321044921875,-0.01568603515625,0.773681640625,-0.52581787109375,-29.1875,48.5625,24.6875,-5.19,-8.08,-1.93,stop,5
9.32,1154835.895069317,27,3,3,3,0,-5.2,-7.99,-2.0,0.0,0.08,-0.05,-3.5625,3.9375,1.0625,0.35296630859375,-0.0155029296875,0.77392578125,-0.5255126953125,-29.1875,48.5625,24.6875,-5.19,-8.08,-1.94,stop,5
9.33,1154835.895069317,27,3,3,3,0,-5.12,-8.03,-1.98,0.07,0.04,-0.03,-4.875,3.3125,0.8125,0.352783203125,-0.01544189453125,0.7742919921875,-0.525146484375,-30.0,49.25,24.6875,-5.19,-8.08,-1.95,stop,5
9.34,1154835.90909365,27,3,3,3,0,-5.0,-8.06,-1.96,0.19,0.01,0.0,-5.375,3.0625,0.6875,0.35260009765625,-0.01544189453125,0.774658203125,-0.5247802734375,-30.0,49.25,24.6875,-5.19,-8.07,-1.96,stop,5
9.35,1154835.90909365,27,3,3,3,0,-4.86,-8.13,-1.92,0.32,-0.05,0.05,-4.625,3.1875,0.625,0.35235595703125,-0.015380859375,0.77496337890625,-0.52447509765625,-30.0,49.25,24.6875,-5.19,-8.07,-1.97,stop,5
9.36,1154835.944149924,27,3,3,3,0,-4.86,-8.17,-1.95,0.33,-0.09,0.02,-3.1875,3.25,0.4375,0.3521728515625,-0.01531982421875,0.77520751953125,-0.52423095703125,-30.0,49.25,24.6875,-5.19,-8.07,-1.98,stop,5
9.37,1154835.944149924,27,3,3,3,0,-4.92,-8.2,-2.02,0.27,-0.12,-0.03,-2.0,3.0625,0.0,0.3519287109375,-0.0152587890625,0.775390625,-0.52410888671875,-30.0,49.25,24.6875,-5.19,-8.07,-1.98,stop,5
9.38,1154835.954108095,27,3,3,3,0,-4.97,-8.21,-2.02,0.21,-0.13,-0.02,-1.75,2.5625,-0.8125,0.35174560546875,-0.0152587890625,0.77557373046875,-0.52398681640625,-29.5625,48.875,23.5625,-5.19,-8.07,-1.99,stop,5
9.39,1154835.954108095,27,3,3,3,0,-5.06,-8.18,-1.98,0.12,-0.1,0.01,-1.9375,2.6875,-1.8125,0.3514404296875,-0.01531982421875,0.77569580078125,-0.52392578125,-29.5625,48.875,23.5625,-5.18,-8.07,-2.0,stop,5
9.4,1154835.974575706,27,3,3,3,0,-5.07,-8.11,-2.06,0.1,-0.03,-0.06,-1.5625,4.1875,-3.0,0.35101318359375,-0.015380859375,0.77593994140625,-0.52392578125,-29.5625,48.875,23.5625,-5.18,-8.07,-2.0,stop,5
9.41,1154835.974575706,27,3,3,3,0,-5.06,-7.96,-1.95,0.11,0.11,0.05,-1.75,5.375,-4.0,0.3504638671875,-0.0155029296875,0.77618408203125,-0.52392578125,-29.5625,48.875,23.5625,-5.17,-8.08,-2.01,stop,5
9.42,1154835.99893683,27,3,3,3,0,-5.05,-7.66,-1.75,0.11,0.42,0.27,-5.25,5.5625,-4.5625,0.349853515625,-0.01568603515625,0.77655029296875,-0.52374267578125,-29.5625,48.875,23.5625,-5.16,-8.08,-2.02,stop,5
9.43,1154835.99893683,27,3,3,3,0,-5.0,-7.4,-1.86,0.15,0.68,0.17,-5.75,4.75,-4.4375,0.34930419921875,-0.01593017578125,0.7769775390625,-0.52349853515625,-30.6875,48.875,25.0625,-5.15,-8.08,-2.03,stop,5
9.44,1154836.019157249,27,3,3,3,0,-5.01,-7.38,-1.7,0.13,0.7,0.34,-2.125,3.25,-3.75,0.34893798828125,-0.01611328125,0.77716064453125,-0.5234375,-30.6875,48.875,25.0625,-5.15,-8.08,-2.04,stop,5
9.45,1154836.019157249,27,3,3,3,0,-5.12,-7.57,-1.81,0.02,0.51,0.23,0.125,2.6875,-3.1875,0.34857177734375,-0.0162353515625,0.7772216796875,-0.5235595703125,-30.6875,48.875,25.0625,-5.14,-8.09,-2.04,stop,5
9.46,1154836.028926332,27,3,3,3,0,-5.12,-7.57,-1.81,0.02,0.51,0.23,0.125,2.6875,-3.1875,0.34857177734375,-0.0162353515625,0.7772216796875,-0.5235595703125,-30.6875,48.875,25.0625,-5.14,-8.09,-2.04,stop,5
9.46,1154836.028926332,27,3,3,3,0,-5.25,-7.9,-1.92,-0.1,0.19,0.11,4.0,1.875,-2.625,0.34832763671875,-0.01617431640625,0.777099609375,-0.52392578125,-30.6875,48.875,25.0625,-5.14,-8.09,-2.04,stop,5
9.47,1154836.043357892,27,3,3,3,0,-5.45,-8.47,-1.93,-0.31,-0.37,0.09,5.5625,-0.25,-2.3125,0.34820556640625,-0.01617431640625,0.77685546875,-0.52435302734375,-30.6875,48.875,25.0625,-5.13,-8.1,-2.03,stop,5
9.48,1154836.043357892,27,3,3,3,0,-5.45,-8.65,-2.07,-0.32,-0.55,-0.05,4.5625,-1.4375,-2.1875,0.3482666015625,-0.0162353515625,0.776611328125,-0.52471923828125,-29.5625,48.1875,25.0625,-5.13,-8.1,-2.02,stop,5
9.49,1154836.061797792,27,3,3,3,0,-5.43,-8.73,-2.17,-0.29,-0.62,-0.15,2.5625,-1.5625,-2.25,0.3482666015625,-0.01641845703125,0.77642822265625,-0.52496337890625,-29.5625,48.1875,25.0625,-5.13,-8.1,-2.02,stop,5
9.5,1154836.061797792,27,3,3,3,0,-5.29,-8.61,-2.25,-0.16,-0.5,-0.23,-0.3125,-0.375,-2.5625,0.34814453125,-0.0166015625,0.77642822265625,-0.52508544921875,-29.5625,48.1875,25.0625,-5.13,-8.1,-2.02,stop,5
9.51,1154836.091312603,27,3,3,3,0,-5.28,-8.4,-2.17,-0.16,-0.29,-0.14,-3.375,2.375,-3.125,0.34783935546875,-0.01678466796875,0.77667236328125,-0.52490234375,-29.5625,48.1875,25.0625,-5.12,-8.11,-2.02,stop,5
9.52,1154836.091312603,27,3,3,3,0,-5.3,-8.21,-2.07,-0.18,-0.09,-0.03,-5.6875,5.4375,-3.125,0.3472900390625,-0.01690673828125,0.777099609375,-0.524658203125,-29.5625,48.1875,25.0625,-5.11,-8.11,-2.04,stop,5
9.53,1154836.108080344,27,3,3,3,0,-5.31,-8.01,-2.0,-0.2,0.09,0.05,-6.8125,7.0625,-3.125,0.34661865234375,-0.01702880859375,0.777587890625,-0.5242919921875,-29.1875,48.1875,26.25,-5.11,-8.11,-2.05,stop,5
9.54,1154836.108080344,27,3,3,3,0,-5.25,-7.86,-2.08,-0.14,0.24,0.0,-6.8125,7.25,-2.6875,0.34600830078125,-0.01708984375,0.77813720703125,-0.52392578125,-29.1875,48.1875,26.25,-5.1,-8.11,-2.07,stop,5
9.55,1154836.118517193,27,3,3,3,0,-5.15,-7.87,-2.21,-0.05,0.23,-0.12,-5.6875,5.6875,-2.0,0.34552001953125,-0.01715087890625,0.778564453125,-0.52362060546875,-29.1875,48.1875,26.25,-5.1,-8.11,-2.08,stop,5
9.56,1154836.118517193,27,3,3,3,0,-5.07,-7.9,-2.31,0.01,0.2,-0.21,-3.9375,3.875,-0.9375,0.34521484375,-0.01715087890625,0.77886962890625,-0.52337646484375,-29.1875,48.1875,26.25,-5.09,-8.11,-2.09,stop,5
9.57,1154836.150040468,27,3,3,3,0,-5.03,-7.92,-2.33,0.06,0.18,-0.23,-1.9375,2.5625,-0.25,0.34503173828125,-0.01708984375,0.779052734375,-0.52325439453125,-29.1875,48.1875,26.25,-5.09,-8.11,-2.1,stop,5
9.58,1154836.150040468,27,3,3,3,0,-4.95,-7.86,-2.05,0.13,0.24,0.04,-1.25,2.375,0.0625,0.3448486328125,-0.01702880859375,0.7791748046875,-0.52313232421875,-29.5625,48.5625,24.375,-5.09,-8.1,-2.1,stop,5
9.59,1154836.163401023,27,3,3,3,0,-4.9,-7.84,-1.9,0.18,0.26,0.21,-1.8125,3.0625,0.1875,0.34466552734375,-0.0169677734375,0.77935791015625,-0.52301025390625,-29.5625,48.5625,24.375,-5.09,-8.1,-2.11,stop,5
9.6,1154836.163401023,27,3,3,3,0,-4.86,-7.82,-1.81,0.22,0.28,0.3,-2.5625,3.5625,0.4375,0.34442138671875,-0.016845703125,0.77960205078125,-0.5228271484375,-29.5625,48.5625,24.375,-5.09,-8.1,-2.11,stop,5
9.61,1154836.178313987,27,3,3,3,0,-4.83,-7.78,-1.82,0.25,0.31,0.29,-2.625,3.3125,0.8125,0.34417724609375,-0.0167236328125,0.77978515625,-0.52264404296875,-29.5625,48.5625,24.375,-5.09,-8.1,-2.12,stop,5
9.62,1154836.178313987,27,3,3,3,0,-4.8,-7.87,-1.97,0.29,0.22,0.15,-1.9375,2.875,1.0625,0.34405517578125,-0.0166015625,0.77996826171875,-0.5224609375,-29.5625,48.5625,24.375,-5.09,-8.1,-2.13,stop,5
9.63,1154836.210578188,27,3,3,3,0,-4.81,-7.98,-2.03,0.27,0.11,0.09,-0.25,2.0,1.3125,0.343994140625,-0.01641845703125,0.780029296875,-0.5224609375,-29.1875,48.5625,25.5,-5.09,-8.1,-2.13,stop,5
9.64,1154836.210578188,27,3,3,3,0,-4.85,-8.05,-2.05,0.23,0.05,0.07,1.375,1.5,1.5625,0.34393310546875,-0.01617431640625,0.780029296875,-0.52252197265625,-29.1875,48.5625,25.5,-5.09,-8.1,-2.13,stop,5
9.65,1154836.231066876,27,3,3,3,0,-4.9,-8.09,-2.06,0.19,0.0,0.06,2.3125,1.3125,1.4375,0.34393310546875,-0.01593017578125,0.77996826171875,-0.52264404296875,-29.1875,48.5625,25.5,-5.09,-8.1,-2.12,stop,5
9.66,1154836.231066876,27,3,3,3,0,-5.02,-8.25,-2.19,0.07,-0.15,-0.06,2.625,1.0625,1.1875,0.3438720703125,-0.0157470703125,0.7799072265625,-0.52276611328125,-29.1875,48.5625,25.5,-5.09,-8.1,-2.12,stop,5
9.67,1154836.238583193,27,3,3,3,0,-5.04,-8.29,-2.19,0.05,-0.18,-0.07,1.625,1.0625,0.8125,0.3438720703125,-0.01556396484375,0.77984619140625,-0.5228271484375,-29.1875,48.5625,25.5,-5.09,-8.1,-2.12,stop,5
9.68,1154836.238583193,27,3,3,3,0,-5.05,-8.33,-2.15,0.04,-0.23,-0.02,0.125,2.0,0.25,0.34375,-0.0155029296875,0.7799072265625,-0.5228271484375,-29.5625,48.5625,25.0625,-5.09,-8.1,-2.12,stop,5
9.69,1154836.268963238,27,3,3,3,0,-5.02,-8.28,-1.97,0.07,-0.18,0.15,-0.6875,2.5,0.125,0.34356689453125,-0.015380859375,0.780029296875,-0.5228271484375,-29.5625,48.5625,25.0625,-5.09,-8.1,-2.13,stop,5
9.7,1154836.268963238,27,3,3,3,0,-5.05,-8.22,-1.98,0.04,-0.12,0.15,-1.6875,2.3125,0.3125,0.3433837890625,-0.01531982421875,0.7801513671875,-0.522705078125,-29.5625,48.5625,25.0625,-5.09,-8.1,-2.13,stop,5
9.71,1154836.283270204,27,3,3,3,0,-5.07,-8.23,-2.12,0.01,-0.13,0.01,-2.375,1.0625,0.5625,0.34332275390625,-0.01531982421875,0.7802734375,-0.52252197265625,-29.5625,48.5625,25.0625,-5.09,-8.09,-2.13,stop,5
9.72,1154836.283270204,27,3,3,3,0,-5.09,-8.28,-2.24,0.0,-0.18,-0.1,-2.0,-0.25,0.8125,0.3433837890625,-0.01531982421875,0.7803955078125,-0.5223388671875,-29.5625,48.5625,25.0625,-5.09,-8.09,-2.14,stop,5
9.73,1154836.315862123,27,3,3,3,0,-5.14,-8.21,-2.27,-0.04,-0.11,-0.13,-2.125,-0.5625,1.0,0.34344482421875,-0.01531982421875,0.78045654296875,-0.52215576171875,-29.5625,48.875,25.0625,-5.1,-8.09,-2.14,stop,5
9.74,1154836.315862123,27,3,3,3,0,-5.15,-8.18,-2.22,-0.05,-0.09,-0.07,-3.125,0.1875,0.75,0.343505859375,-0.015380859375,0.7806396484375,-0.52191162109375,-29.5625,48.875,25.0625,-5.1,-8.09,-2.14,stop,5
9.75,1154836.328874046,27,3,3,3,0,-5.11,-8.13,-2.07,-0.01,-0.04,0.07,-4.0,0.4375,0.9375,0.343505859375,-0.01544189453125,0.78082275390625,-0.5216064453125,-29.5625,48.875,25.0625,-5.1,-8.09,-2.15,stop,5
9.76,1154836.328874046,27,3,3,3,0,-5.08,-8.09,-2.02,0.01,0.0,0.13,-5.0,0.4375,1.0,0.34356689453125,-0.0155029296875,0.781005859375,-0.521240234375,-29.5625,48.875,25.0625,-5.1,-8.08,-2.16,stop,5
9.77,1154836.347449851,27,3,3,3,0,-4.98,-8.03,-2.03,0.11,0.04,0.13,-4.9375,0.4375,1.25,0.3436279296875,-0.01556396484375,0.78125,-0.5208740234375,-29.5625,48.875,25.0625,-5.1,-8.08,-2.16,stop,5
9.78,1154836.347449851,27,3,3,3,0,-4.98,-8.02,-2.07,0.12,0.05,0.09,-4.3125,0.125,1.25,0.34368896484375,-0.015625,0.78143310546875,-0.52056884765625,-30.6875,48.5625,24.6875,-5.1,-8.08,-2.17,stop,5
9.79,1154836.36254881,27,3,3,3,0,-4.98,-8.01,-2.1,0.12,0.06,0.07,-3.4375,-0.625,1.1875,0.34375,-0.01568603515625,0.7816162109375,-0.520263671875,-30.6875,48.5625,24.6875,-5.1,-8.08,-2.17,stop,5
9.8,1154836.36254881,27,3,3,3,0,-5.02,-8.0,-2.12,0.09,0.07,0.05,-2.9375,-1.375,1.125,0.3438720703125,-0.0157470703125,0.78167724609375,-0.52001953125,-30.6875,48.5625,24.6875,-5.11,-8.07,-2.18,stop,5
9.81,1154836.391262677,27,3,3,3,0,-5.02,-7.99,-2.14,0.08,0.08,0.03,-2.5,-2.0,0.8125,0.34405517578125,-0.015869140625,0.78173828125,-0.51983642578125,-30.6875,48.5625,24.6875,-5.11,-8.07,-2.18,stop,5
9.82,1154836.391262677,27,3,3,3,0,-5.02,-7.99,-2.13,0.09,0.08,0.05,-2.5625,-2.0625,0.6875,0.34423828125,-0.0159912109375,0.78179931640625,-0.5196533203125,-30.6875,48.5625,24.6875,-5.11,-8.07,-2.18,stop,5
9.83,1154836.403971458,27,3,3,3,0,-5.04,-7.98,-2.13,0.07,0.08,0.05,-2.6875,-1.875,0.25,0.3443603515625,-0.01617431640625,0.7818603515625,-0.51947021484375,-30.0,48.5625,25.875,-5.11,-8.07,-2.18,stop,5
9.84,1154836.403971458,27,3,3,3,0,-5.05,-7.99,-2.11,0.06,0.07,0.07,-2.75,-1.4375,0.0,0.344482421875,-0.01629638671875,0.781982421875,-0.519287109375,-30.0,48.5625,25.875,-5.11,-8.07,-2.19,stop,5
9.85,1154836.435491477,27,3,3,3,0,-5.06,-8.0,-2.09,0.04,0.06,0.1,-2.375,-1.1875,-0.0625,0.34454345703125,-0.01641845703125,0.78204345703125,-0.51910400390625,-30.0,48.5625,25.875,-5.11,-8.07,-2.19,stop,5
9.86,1154836.435491477,27,3,3,3,0,-5.07,-8.03,-2.04,0.04,0.03,0.14,-1.6875,-1.6875,-0.125,0.34466552734375,-0.0166015625,0.78204345703125,-0.51898193359375,-30.0,48.5625,25.875,-5.11,-8.07,-2.19,stop,5
9.87,1154836.449514427,27,3,3,3,0,-5.04,-8.01,-2.04,0.07,0.05,0.15,-1.3125,-2.125,0.0,0.34478759765625,-0.0167236328125,0.78204345703125,-0.51885986328125,-30.0,48.5625,25.875,-5.11,-8.07,-2.19,stop,5
9.88,1154836.449514427,27,3,3,3,0,-5.07,-8.02,-2.06,0.04,0.04,0.12,-1.875,-2.9375,0.0,0.344970703125,-0.01690673828125,0.78204345703125,-0.51873779296875,-29.5625,48.5625,24.6875,-5.11,-8.07,-2.19,stop,5
9.89,1154836.464326153,27,3,3,3,0,-5.08,-8.04,-2.08,0.03,0.02,0.1,-2.75,-3.8125,0.0625,0.34527587890625,-0.01715087890625,0.78204345703125,-0.5185546875,-29.5625,48.5625,24.6875,-5.12,-8.07,-2.19,stop,5
9.9,1154836.464326153,27,3,3,3,0,-5.06,-8.07,-2.12,0.05,0.0,0.06,-3.0,-4.3125,0.0625,0.34552001953125,-0.0174560546875,0.78204345703125,-0.518310546875,-29.5625,48.5625,24.6875,-5.12,-8.06,-2.19,stop,5
9.91,1154836.495588767,27,3,3,3,0,-5.05,-8.05,-2.17,0.06,0.01,0.02,-2.5,-4.5625,0.375,0.3458251953125,-0.01776123046875,0.78204345703125,-0.5181884765625,-29.5625,48.5625,24.6875,-5.12,-8.06,-2.19,stop,5
9.92,1154836.495588767,27,3,3,3,0,-5.13,-8.09,-2.17,-0.01,-0.02,0.01,-2.1875,-4.25,0.375,0.34613037109375,-0.01800537109375,0.781982421875,-0.51800537109375,-29.5625,48.5625,24.6875,-5.12,-8.06,-2.19,stop,5
9.93,1154836.508348207,27,3,3,3,0,-5.15,-8.09,-2.13,-0.02,-0.02,0.06,-2.0,-4.125,0.1875,0.346435546875,-0.01824951171875,0.781982421875,-0.51788330078125,-29.5625,48.5625,25.0625,-5.12,-8.06,-2.19,stop,5
9.94,1154836.508348207,27,3,3,3,0,-5.2,-8.09,-2.08,-0.07,-0.02,0.1,-1.875,-4.0625,0.0,0.3466796875,-0.01849365234375,0.78192138671875,-0.51776123046875,-29.5625,48.5625,25.0625,-5.12,-8.06,-2.19,stop,5
9.95,1154836.523498639,27,3,3,3,0,-5.19,-8.1,-2.15,-0.06,-0.03,0.04,-1.625,-4.0,0.0625,0.34698486328125,-0.01873779296875,0.7818603515625,-0.51763916015625,-29.5625,48.5625,25.0625,-5.13,-8.06,-2.19,stop,5
9.96,1154836.523498639,27,3,3,3,0,-5.17,-8.02,-2.09,-0.03,0.04,0.09,-1.5,-3.6875,0.0,0.34722900390625,-0.0189208984375,0.7818603515625,-0.51751708984375,-29.5625,48.5625,25.0625,-5.13,-8.06,-2.18,stop,5
9.97,1154836.538600852,27,3,3,3,0,-5.15,-7.99,-2.04,-0.01,0.07,0.14,-1.4375,-3.0,0.0,0.347412109375,-0.01910400390625,0.78179931640625,-0.51739501953125,-29.5625,48.5625,25.0625,-5.13,-8.06,-2.18,stop,5
9.98,1154836.538600852,27,3,3,3,0,-5.16,-7.93,-2.04,-0.03,0.13,0.14,-0.8125,-2.625,0.0,0.34759521484375,-0.019287109375,0.78179931640625,-0.517333984375,-30.6875,48.1875,26.25,-5.13,-8.06,-2.18,stop,5
9.99,1154836.570106305,27,3,3,3,0,-5.17,-7.82,-2.07,-0.03,0.23,0.11,-0.25,-2.75,0.25,0.3477783203125,-0.0194091796875,0.78167724609375,-0.517333984375,-30.6875,48.1875,26.25,-5.13,-8.06,-2.18,stop,5
10.0,1154836.570106305,27,3,3,3,0,-5.15,-7.8,-2.07,-0.01,0.25,0.1,0.0625,-2.75,0.4375,0.34796142578125,-0.01953125,0.7816162109375,-0.517333984375,-30.6875,48.1875,26.25,-5.13,-8.06,-2.18,stop,5
10.01,1154836.583377586,27,3,3,3,0,-5.14,-7.8,-2.14,0.0,0.25,0.03,0.3125,-3.0625,0.875,0.34820556640625,-0.01959228515625,0.781494140625,-0.51727294921875,-30.6875,48.1875,26.25,-5.13,-8.06,-2.17,stop,5
10.02,1154836.583377586,27,3,3,3,0,-5.12,-7.83,-2.23,0.01,0.23,-0.05,0.5625,-4.0,1.3125,0.34857177734375,-0.0196533203125,0.7813720703125,-0.51727294921875,-30.6875,48.1875,26.25,-5.14,-8.06,-2.17,stop,5
10.03,1154836.614857566,27,3,3,3,0,-5.19,-7.98,-2.26,-0.04,0.08,-0.09,0.8125,-4.3125,1.625,0.34893798828125,-0.01971435546875,0.78118896484375,-0.51727294921875,-30.0,48.875,25.875,-5.14,-8.06,-2.17,stop,5
10.04,1154836.614857566,27,3,3,3,0,-5.21,-8.06,-2.17,-0.06,0.0,0.0,0.125,-3.5,1.75,0.3492431640625,-0.019775390625,0.78106689453125,-0.5172119140625,-30.0,48.875,25.875,-5.14,-8.05,-2.16,stop,5
10.05,1154836.628516827,27,3,3,3,0,-5.19,-8.08,-2.13,-0.04,-0.02,0.02,-0.5625,-2.125,1.8125,0.3494873046875,-0.019775390625,0.78106689453125,-0.51715087890625,-30.0,48.875,25.875,-5.15,-8.05,-2.16,stop,5
10.06,1154836.628516827,27,3,3,3,0,-5.21,-8.11,-2.09,-0.06,-0.05,0.07,-1.125,-0.8125,1.9375,0.349609375,-0.01971435546875,0.78106689453125,-0.51702880859375,-30.0,48.875,25.875,-5.15,-8.05,-2.16,stop,5
10.07,1154836.645015851,27,3,3,3,0,-5.23,-8.09,-2.13,-0.07,-0.03,0.03,-1.3125,-0.6875,1.8125,0.3497314453125,-0.0196533203125,0.7811279296875,-0.516845703125,-30.0,48.875,25.875,-5.15,-8.05,-2.16,stop,5
10.08,1154836.645015851,27,3,3,3,0,-5.13,-7.99,-1.92,0.02,0.06,0.23,-1.625,-1.625,1.8125,0.3499755859375,-0.0196533203125,0.7811279296875,-0.51666259765625,-30.0,48.1875,26.25,-5.16,-8.05,-2.16,stop,5
10.09,1154836.673776756,27,3,3,3,0,-5.22,-7.92,-1.86,-0.05,0.11,0.3,-4.4375,-3.5,1.875,0.35028076171875,-0.01983642578125,0.78125,-0.51629638671875,-30.0,48.1875,26.25,-5.16,-8.04,-2.17,stop,5
10.1,1154836.673776756,27,3,3,3,0,-5.23,-7.98,-2.13,-0.06,0.05,0.03,-2.875,-5.5,2.0,0.3507080078125,-0.02001953125,0.78118896484375,-0.51605224609375,-30.0,48.1875,26.25,-5.17,-8.04,-2.17,stop,5
10.11,1154836.689059145,27,3,3,3,0,-5.03,-8.15,-2.33,0.14,-0.11,-0.17,1.25,-6.875,2.4375,0.351318359375,-0.0201416015625,0.78094482421875,-0.51605224609375,-30.0,48.1875,26.25,-5.17,-8.04,-2.16,stop,5
10.12,1154836.689059145,27,3,3,3,0,-4.99,-8.16,-2.48,0.18,-0.12,-0.33,3.625,-4.8125,2.1875,0.35174560546875,-0.02008056640625,0.7806396484375,-0.5162353515625,-30.0,48.1875,26.25,-5.18,-8.04,-2.15,stop,5
10.13,1154836.703891258,27,3,3,3,0,-5.0,-8.12,-2.37,0.17,-0.08,-0.22,3.9375,-1.375,1.375,0.3519287109375,-0.01995849609375,0.7803955078125,-0.51641845703125,-30.6875,48.5625,27.375,-5.18,-8.04,-2.14,stop,5
10.13,1154836.703891258,27,3,3,3,0,-5.0,-8.12,-2.37,0.17,-0.08,-0.22,3.9375,-1.375,1.375,0.3519287109375,-0.01995849609375,0.7803955078125,-0.51641845703125,-30.6875,48.5625,27.375,-5.18,-8.04,-2.14,stop,5
10.14,1154836.718175966,27,3,3,3,0,-5.07,-8.06,-2.03,0.11,-0.02,0.11,0.6875,0.5,0.5625,0.3519287109375,-0.0198974609375,0.7803955078125,-0.5164794921875,-30.6875,48.5625,27.375,-5.18,-8.04,-2.14,stop,5
10.15,1154836.718175966,27,3,3,3,0,-5.12,-8.01,-1.84,0.05,0.02,0.3,-2.5625,0.25,0.0,0.3519287109375,-0.01995849609375,0.780517578125,-0.51629638671875,-30.6875,48.5625,27.375,-5.18,-8.04,-2.14,stop,5
10.16,1154836.736637718,27,3,3,3,0,-5.06,-8.09,-2.01,0.11,-0.05,0.13,-3.5,-2.0625,0.0,0.35205078125,-0.0201416015625,0.78057861328125,-0.51605224609375,-30.6875,48.5625,27.375,-5.18,-8.03,-2.15,stop,5
10.17,1154836.736637718,27,3,3,3,0,-4.96,-8.19,-2.24,0.21,-0.15,-0.08,-2.875,-4.875,0.5,0.3524169921875,-0.02044677734375,0.78057861328125,-0.515869140625,-30.6875,48.5625,27.375,-5.18,-8.03,-2.15,stop,5
10.18,1154836.770219912,27,3,3,3,0,-4.79,-8.48,-2.38,0.39,-0.44,-0.23,-1.5625,-5.9375,0.625,0.35284423828125,-0.020751953125,0.78045654296875,-0.51568603515625,-29.1875,48.875,27.0625,-5.19,-8.03,-2.14,stop,5
10.19,1154836.770219912,27,3,3,3,0,-4.76,-8.62,-2.31,0.43,-0.58,-0.16,-0.1875,-5.4375,0.6875,0.353271484375,-0.02093505859375,0.7802734375,-0.51568603515625,-29.1875,48.875,27.0625,-5.19,-8.03,-2.14,stop,5
10.2,1154836.784200543,27,3,3,3,0,-4.74,-8.78,-2.2,0.45,-0.75,-0.06,-0.1875,-4.6875,0.625,0.35357666015625,-0.0211181640625,0.7801513671875,-0.51568603515625,-29.1875,48.875,27.0625,-5.19,-8.03,-2.13,stop,5
10.21,1154836.784200543,27,3,3,3,0,-4.77,-8.98,-2.15,0.42,-0.94,-0.01,-1.25,-3.375,0.625,0.3538818359375,-0.021240234375,0.78009033203125,-0.51556396484375,-29.1875,48.875,27.0625,-5.19,-8.03,-2.13,stop,5
10.22,1154836.793744366,27,3,3,3,0,-4.61,-9.39,-2.26,0.58,-1.36,-0.12,-2.625,-2.25,0.875,0.35406494140625,-0.0213623046875,0.7801513671875,-0.51531982421875,-29.1875,48.875,27.0625,-5.2,-8.03,-2.13,stop,5
10.23,1154836.793744366,27,3,3,3,0,-4.49,-9.6,-2.27,0.7,-1.57,-0.13,-3.0,-1.8125,0.875,0.35418701171875,-0.021484375,0.78021240234375,-0.51507568359375,-29.5625,48.5625,27.0625,-5.2,-8.03,-2.14,stop,5
10.24,1154836.809261253,27,3,3,3,0,-4.38,-9.78,-2.23,0.81,-1.75,-0.09,-1.875,-1.75,1.1875,0.3543701171875,-0.02154541015625,0.7802734375,-0.51495361328125,-29.5625,48.5625,27.0625,-5.2,-8.03,-2.14,stop,5
10.25,1154836.809261253,27,3,3,3,0,-4.23,-9.89,-2.19,0.97,-1.86,-0.05,0.4375,-2.3125,1.4375,0.3546142578125,-0.02154541015625,0.78021240234375,-0.514892578125,-29.5625,48.5625,27.0625,-5.2,-8.02,-2.14,stop,5
10.26,1154836.839283226,27,3,3,3,0,-3.87,-9.66,-1.99,1.33,-1.63,0.14,2.625,-2.9375,1.6875,0.3548583984375,-0.021484375,0.77996826171875,-0.5150146484375,-29.5625,48.5625,27.0625,-5.21,-8.02,-2.13,stop,5
10.27,1154836.839283226,27,3,3,3,0,-3.65,-9.25,-1.92,1.56,-1.23,0.19,3.625,-2.5625,1.75,0.3551025390625,-0.0213623046875,0.77972412109375,-0.51519775390625,-29.5625,48.5625,27.0625,-5.21,-8.02,-2.12,stop,5
10.28,1154836.859852521,27,3,3,3,0,-3.55,-8.87,-1.85,1.66,-0.84,0.26,3.3125,-2.1875,1.625,0.3553466796875,-0.02130126953125,0.779541015625,-0.515380859375,-30.0,48.5625,26.25,-5.21,-8.02,-2.12,stop,5
10.29,1154836.859852521,27,3,3,3,0,-3.58,-8.5,-1.68,1.63,-0.47,0.42,2.75,-2.6875,1.4375,0.3555908203125,-0.021240234375,0.779296875,-0.51556396484375,-30.0,48.5625,26.25,-5.22,-8.02,-2.11,stop,5
10.3,1154836.874491844,27,3,3,3,0,-3.63,-7.68,-1.44,1.59,0.33,0.65,2.8125,-4.0,1.25,0.35589599609375,-0.021240234375,0.779052734375,-0.51568603515625,-30.0,48.5625,26.25,-5.22,-8.02,-2.1,stop,5
10.31,1154836.874491844,27,3,3,3,0,-3.54,-7.33,-1.36,1.68,0.69,0.72,4.0,-6.1875,1.625,0.35638427734375,-0.02130126953125,0.7786865234375,-0.51593017578125,-30.0,48.5625,26.25,-5.22,-8.02,-2.09,stop,5
10.32,1154836.903874778,27,3,3,3,0,-3.47,-6.98,-1.29,1.75,1.04,0.77,7.5625,-9.625,2.8125,0.357177734375,-0.02130126953125,0.778076171875,-0.516357421875,-30.0,48.5625,26.25,-5.23,-8.02,-2.07,stop,5
10.33,1154836.903874778,27,3,3,3,0,-3.25,-6.42,-1.32,1.99,1.6,0.72,13.4375,-12.9375,5.125,0.35833740234375,-0.0211181640625,0.77703857421875,-0.51708984375,-29.5625,48.875,27.0625,-5.24,-8.02,-2.04,stop,5
10.34,1154836.915101666,27,3,3,3,0,-3.14,-6.19,-1.31,2.11,1.83,0.68,21.125,-15.4375,8.0,0.3597412109375,-0.0206298828125,0.775634765625,-0.51824951171875,-29.5625,48.875,27.0625,-5.26,-8.02,-2.0,stop,5
10.35,1154836.915101666,27,3,3,3,0,-3.09,-6.04,-1.27,2.18,1.98,0.67,28.625,-17.5625,10.9375,0.36151123046875,-0.019775390625,0.7738037109375,-0.519775390625,-29.5625,48.875,27.0625,-5.28,-8.02,-1.94,stop,5
10.36,1154836.944714948,27,3,3,3,0,-3.16,-5.95,-1.17,2.14,2.07,0.7,34.8125,-18.6875,13.3125,0.3634033203125,-0.0186767578125,0.7716064453125,-0.521728515625,-29.5625,48.875,27.0625,-5.3,-8.02,-1.87,stop,5
10.37,1154836.944714948,27,3,3,3,0,-3.48,-5.78,-1.06,1.85,2.23,0.73,38.1875,-19.0625,14.8125,0.36541748046875,-0.017333984375,0.769287109375,-0.5238037109375,-29.5625,48.875,27.0625,-5.33,-8.02,-1.8,stop,5
10.38,1154836.965677065,27,3,3,3,0,-3.71,-5.69,-1.1,1.64,2.32,0.63,39.0,-18.625,16.25,0.367431640625,-0.015869140625,0.7669677734375,-0.52587890625,-30.0,48.1875,26.6875,-5.36,-8.02,-1.73,stop,5
10.39,1154836.965677065,27,3,3,3,0,-4.02,-5.56,-1.1,1.37,2.45,0.55,37.8125,-16.5,17.75,0.36944580078125,-0.01422119140625,0.76470947265625,-0.52783203125,-30.0,48.1875,26.6875,-5.39,-8.01,-1.66,stop,5
10.4,1154836.980669619,27,3,3,3,0,-4.41,-5.4,-1.26,1.0,2.6,0.33,36.375,-12.5,19.1875,0.37115478515625,-0.01239013671875,0.76263427734375,-0.52960205078125,-30.0,48.1875,26.6875,-5.42,-8.01,-1.6,stop,5
10.4,1154836.980669619,27,3,3,3,0,-4.41,-5.4,-1.26,1.0,2.6,0.33,36.375,-12.5,19.1875,0.37115478515625,-0.01239013671875,0.76263427734375,-0.52960205078125,-30.0,48.1875,26.6875,-5.42,-8.01,-1.6,stop,5
10.41,1154836.990051984,27,3,3,3,0,-5.39,-5.07,-1.41,0.05,2.92,0.12,36.0625,-6.875,20.6875,0.37261962890625,-0.0101318359375,0.7607421875,-0.53131103515625,-30.0,48.1875,26.6875,-5.45,-8.0,-1.54,stop,5
10.42,1154836.990051984,27,3,3,3,0,-5.89,-4.91,-1.3,-0.4,3.07,0.19,37.125,0.0,22.1875,0.3736572265625,-0.00750732421875,0.759033203125,-0.5330810546875,-30.0,48.1875,26.6875,-5.48,-7.99,-1.49,stop,5
10.43,1154837.007693789,27,3,3,3,0,-6.41,-4.81,-1.18,-0.9,3.16,0.26,39.25,8.5,23.5,0.37420654296875,-0.0042724609375,0.75750732421875,-0.534912109375,-28.5,48.875,24.6875,-5.51,-7.97,-1.44,stop,5
10.44,1154837.007693789,27,3,3,3,0,-6.93,-4.9,-1.13,-1.38,3.06,0.27,41.1875,17.0,24.8125,0.374267578125,-0.00048828125,0.756103515625,-0.536865234375,-28.5,48.875,24.6875,-5.54,-7.96,-1.4,stop,5
10.45,1154837.035447736,27,3,3,3,0,-8.2,-5.8,-1.25,-2.63,2.14,0.11,41.875,23.75,26.125,0.3739013671875,0.00372314453125,0.75494384765625,-0.53875732421875,-28.5,48.875,24.6875,-5.57,-7.94,-1.37,stop,5
10.46,1154837.035447736,27,3,3,3,0,-8.58,-6.45,-1.4,-2.97,1.47,-0.06,40.4375,27.1875,27.3125,0.37335205078125,0.00811767578125,0.75390625,-0.54052734375,-28.5,48.875,24.6875,-5.6,-7.93,-1.34,stop,5
10.47,1154837.049352317,27,3,3,3,0,-8.87,-7.4,-1.57,-3.23,0.5,-0.25,37.25,26.5,26.5625,0.37286376953125,0.0123291015625,0.75299072265625,-0.54205322265625,-28.5,48.875,24.6875,-5.63,-7.91,-1.31,stop,5
10.48,1154837.049352317,27,3,3,3,0,-9.49,-9.69,-1.98,-3.83,-1.79,-0.69,34.3125,22.875,25.4375,0.37249755859375,0.01617431640625,0.7520751953125,-0.54345703125,-28.1875,49.5625,22.375,-5.66,-7.89,-1.29,stop,5
10.49,1154837.063888654,27,3,3,3,0,-9.74,-10.81,-2.26,-4.04,-2.92,-1.0,34.75,18.5,24.625,0.3724365234375,0.01983642578125,0.7509765625,-0.544921875,-28.1875,49.5625,22.375,-5.69,-7.88,-1.26,stop,5
10.5,1154837.063888654,27,3,3,3,0,-10.07,-11.66,-2.42,-4.35,-3.79,-1.19,35.4375,15.1875,22.5,0.3724365234375,0.023193359375,0.749755859375,-0.5465087890625,-28.1875,49.5625,22.375,-5.72,-7.86,-1.22,stop,5
10.51,1154837.097296002,27,3,3,3,0,-10.47,-12.29,-2.41,-4.72,-4.43,-1.21,35.5,16.5,20.9375,0.37225341796875,0.0264892578125,0.74853515625,-0.548095703125,-28.1875,49.5625,22.375,-5.75,-7.85,-1.19,stop,5
10.52,1154837.097296002,27,3,3,3,0,-10.38,-12.7,-2.64,-4.61,-4.86,-1.47,31.6875,24.5,19.1875,0.37152099609375,0.02996826171875,0.74774169921875,-0.54949951171875,-28.1875,49.5625,22.375,-5.77,-7.84,-1.17,stop,5
10.53,1154837.109011985,27,3,3,3,0,-10.31,-12.55,-2.95,-4.52,-4.72,-1.77,19.8125,34.125,16.5625,0.37005615234375,0.0333251953125,0.74786376953125,-0.55010986328125,-28.5,50.375,20.0625,-5.78,-7.82,-1.18,stop,5
10.54,1154837.109011985,27,3,3,3,0,-10.4,-12.42,-3.17,-4.6,-4.6,-1.95,3.6875,40.5,13.0625,0.3680419921875,0.0362548828125,0.74896240234375,-0.5498046875,-28.5,50.375,20.0625,-5.79,-7.81,-1.22,moving,5
10.55,1154837.12319916,27,3,3,3,0,-10.52,-12.33,-3.32,-4.72,-4.53,-2.04,-11.5,42.375,8.4375,0.36572265625,0.0384521484375,0.7508544921875,-0.54864501953125,-28.5,50.375,20.0625,-5.79,-7.8,-1.27,moving,5
10.56,1154837.12319916,27,3,3,3,0,-10.53,-11.84,-3.53,-4.74,-4.05,-2.18,-22.1875,40.0,3.8125,0.36334228515625,0.0399169921875,0.753173828125,-0.54693603515625,-28.5,50.375,20.0625,-5.79,-7.79,-1.35,moving,5
10.57,1154837.155225283,27,3,3,3,0,-10.37,-11.43,-3.45,-4.58,-3.65,-2.03,-25.375,32.875,0.625,0.361328125,0.040771484375,0.75543212890625,-0.54510498046875,-28.5,50.375,20.0625,-5.78,-7.78,-1.41,moving,5
10.58,1154837.155225283,27,3,3,3,0,-10.15,-11.01,-3.22,-4.37,-3.22,-1.75,-23.25,23.25,-1.4375,0.35980224609375,0.041015625,0.75726318359375,-0.54351806640625,-27.375,50.75,17.25,-5.78,-7.78,-1.47,moving,5
10.59,1154837.172419904,27,3,3,3,0,-9.8,-10.44,-3.01,-4.03,-2.66,-1.5,-20.375,15.0625,-2.5,0.3587646484375,0.04095458984375,0.75872802734375,-0.54217529296875,-27.375,50.75,17.25,-5.77,-7.78,-1.51,moving,5
10.6,1154837.172419904,27,3,3,3,0,-8.44,-9.12,-2.82,-2.67,-1.34,-1.26,-19.5,9.5,-3.9375,0.3580322265625,0.04052734375,0.75994873046875,-0.541015625,-27.375,50.75,17.25,-5.76,-7.77,-1.55,moving,5
10.61,1154837.187975039,27,3,3,3,0,-7.7,-8.44,-2.65,-1.95,-0.66,-1.07,-18.8125,6.8125,-6.1875,0.35736083984375,0.03985595703125,0.76104736328125,-0.5399169921875,-27.375,50.75,17.25,-5.75,-7.77,-1.58,moving,5
10.62,1154837.187975039,27,3,3,3,0,-7.12,-7.85,-2.48,-1.37,-0.07,-0.86,-18.25,5.6875,-8.0,0.35662841796875,0.0390625,0.76214599609375,-0.53887939453125,-27.375,50.75,17.25,-5.74,-7.78,-1.61,moving,5
10.63,1154837.214921857,27,3,3,3,0,-6.64,-7.28,-2.26,-0.91,0.49,-0.61,-18.875,5.0,-9.4375,0.35595703125,0.0380859375,0.76324462890625,-0.53790283203125,-27.75,51.1875,15.375,-5.73,-7.78,-1.64,moving,5
10.64,1154837.214921857,27,3,3,3,0,-5.65,-6.27,-1.68,0.05,1.51,-0.01,-19.4375,2.1875,-10.4375,0.35540771484375,0.03692626953125,0.76422119140625,-0.53692626953125,-27.75,51.1875,15.375,-5.71,-7.79,-1.67,moving,5
10.65,1154837.229860252,27,3,3,3,0,-5.26,-5.83,-1.29,0.44,1.96,0.4,-19.25,-3.5625,-10.9375,0.35516357421875,0.035400390625,0.76507568359375,-0.53594970703125,-27.75,51.1875,15.375,-5.7,-7.79,-1.69,moving,5
10.65,1154837.229860252,27,3,3,3,0,-5.26,-5.83,-1.29,0.44,1.96,0.4,-19.25,-3.5625,-10.9375,0.35516357421875,0.035400390625,0.76507568359375,-0.53594970703125,-27.75,51.1875,15.375,-5.7,-7.79,-1.69,moving,5
10.66,1154837.24502346,27,3,3,3,0,-4.94,-5.37,-0.93,0.74,2.42,0.77,-18.3125,-9.9375,-11.125,0.35540771484375,0.03363037109375,0.76568603515625,-0.53509521484375,-27.75,51.1875,15.375,-5.69,-7.8,-1.71,moving,5
10.67,1154837.24502346,27,3,3,3,0,-4.49,-4.49,-0.52,1.19,3.3,1.19,-18.1875,-15.8125,-10.9375,0.35601806640625,0.0316162109375,0.76605224609375,-0.53424072265625,-27.75,51.1875,15.375,-5.68,-7.8,-1.72,moving,5
10.68,1154837.259534935,27,3,3,3,0,-4.26,-4.02,-0.43,1.41,3.79,1.29,-18.75,-19.875,-10.3125,0.35687255859375,0.0294189453125,0.766357421875,-0.53338623046875,-26.6875,51.1875,18.0625,-5.67,-7.81,-1.72,moving,5
10.69,1154837.259534935,27,3,3,3,0,-4.05,-3.57,-0.45,1.61,4.23,1.28,-20.75,-21.875,-10.0625,0.35797119140625,0.027099609375,0.76666259765625,-0.5323486328125,-26.6875,51.1875,18.0625,-5.66,-7.81,-1.73,moving,5
10.7,1154837.273018781,27,3,3,3,0,-3.86,-3.09,-0.49,1.79,4.72,1.24,-24.125,-22.6875,-10.5625,0.35906982421875,0.02459716796875,0.76708984375,-0.53106689453125,-26.6875,51.1875,18.0625,-5.65,-7.81,-1.74,moving,5
10.71,1154837.273018781,27,3,3,3,0,-3.45,-2.44,-0.51,2.19,5.36,1.24,-28.3125,-23.0,-11.5,0.360107421875,0.02191162109375,0.7677001953125,-0.52960205078125,-26.6875,51.1875,18.0625,-5.65,-7.81,-1.76,moving,5
10.72,1154837.3043041,27,3,3,3,0,-3.2,-2.11,-0.49,2.43,5.7,1.28,-32.0,-22.75,-12.125,0.36114501953125,0.01904296875,0.76849365234375,-0.52783203125,-26.6875,51.1875,18.0625,-5.64,-7.82,-1.78,moving,5
10.73,1154837.3043041,27,3,3,3,0,-2.86,-1.92,-0.45,2.76,5.9,1.35,-34.1875,-21.75,-13.8125,0.362060546875,0.01605224609375,0.7694091796875,-0.5260009765625,-26.6875,51.1875,18.5,-5.62,-7.82,-1.8,moving,5
10.74,1154837.319716372,27,3,3,3,0,-2.46,-1.86,-0.43,3.15,5.96,1.4,-34.875,-21.0,-15.8125,0.36279296875,0.012939453125,0.7703857421875,-0.524169921875,-26.6875,51.1875,18.5,-5.61,-7.82,-1.83,moving,5
10.75,1154837.319716372,27,3,3,3,0,-1.53,-1.78,-0.22,4.06,6.04,1.63,-35.25,-20.8125,-17.6875,0.36346435546875,0.00970458984375,0.77130126953125,-0.5223388671875,-26.6875,51.1875,18.5,-5.59,-7.83,-1.86,moving,5
10.76,1154837.334350242,27,3,3,3,0,-1.0,-1.83,-0.1,4.57,6.0,1.79,-36.125,-21.25,-20.375,0.364013671875,0.0062255859375,0.7723388671875,-0.52056884765625,-26.6875,51.1875,18.5,-5.57,-7.84,-1.89,moving,5
10.77,1154837.334350242,27,3,3,3,0,-0.43,-1.75,-0.06,5.11,6.09,1.85,-36.75,-23.5,-22.5,0.36456298828125,0.00250244140625,0.77325439453125,-0.518798828125,-26.6875,51.1875,18.5,-5.55,-7.85,-1.92,moving,5
10.78,1154837.363421287,27,3,3,3,0,0.09,-1.65,0.05,5.62,6.21,1.99,-35.875,-27.3125,-24.25,0.3653564453125,-0.00152587890625,0.77398681640625,-0.51715087890625,-27.375,50.5,22.75,-5.53,-7.86,-1.94,moving,5
10.79,1154837.363421287,27,3,3,3,0,0.88,-1.9,0.23,6.38,5.97,2.19,-33.875,-32.9375,-26.375,0.36639404296875,-0.005859375,0.77447509765625,-0.51568603515625,-27.375,50.5,22.75,-5.5,-7.87,-1.95,moving,5
10.8,1154837.379257388,27,3,3,3,0,0.82,-2.5,0.36,6.31,5.38,2.32,-30.25,-39.125,-27.125,0.3677978515625,-0.0103759765625,0.7745361328125,-0.51446533203125,-27.375,50.5,22.75,-5.48,-7.89,-1.96,moving,5
10.81,1154837.379257388,27,3,3,3,0,0.71,-3.26,0.49,6.18,4.63,2.44,-25.75,-44.125,-26.0,0.36962890625,-0.01495361328125,0.77423095703125,-0.51348876953125,-27.375,50.5,22.75,-5.46,-7.9,-1.95,moving,5
10.82,1154837.394423037,27,3,3,3,0,-0.53,-6.14,0.61,4.91,1.77,2.55,-21.5625,-45.4375,-22.625,0.37164306640625,-0.0191650390625,0.77374267578125,-0.5126953125,-27.375,50.5,22.75,-5.44,-7.92,-1.94,moving,5
10.83,1154837.394423037,27,3,3,3,0,-2.19,-8.68,0.55,3.23,-0.75,2.47,-18.6875,-43.8125,-18.5625,0.37371826171875,-0.02301025390625,0.7730712890625,-0.511962890625,-27.75,49.375,24.6875,-5.43,-7.93,-1.92,moving,5
10.84,1154837.424388369,27,3,3,3,0,-4.54,-11.78,0.62,0.88,-3.84,2.53,-17.9375,-42.5625,-13.3125,0.3759765625,-0.0263671875,0.7724609375,-0.5111083984375,-27.75,49.375,24.6875,-5.43,-7.93,-1.91,moving,5
10.85,1154837.424388369,27,3,3,3,0,-7.63,-14.79,-0.55,-2.19,-6.86,1.33,-12.3125,-42.375,-3.625,0.378662109375,-0.0289306640625,0.7716064453125,-0.51025390625,-27.75,49.375,24.6875,-5.44,-7.93,-1.88,moving,5
10.86,1154837.438716413,27,3,3,3,0,-16.42,-27.54,-11.16,-10.94,-19.62,-9.33,-4.0,-72.375,14.25,0.3841552734375,-0.03131103515625,0.7694091796875,-0.50933837890625,-27.75,49.375,24.6875,-5.48,-7.92,-1.82,moving,5
10.87,1154837.438716413,27,3,3,3,0,-14.5,-25.6,-9.62,-8.93,-17.7,-7.96,31.0,-123.875,30.125,0.39385986328125,-0.03375244140625,0.763916015625,-0.51007080078125,-27.75,49.375,24.6875,-5.56,-7.9,-1.66,moving,5
10.88,1154837.45958714,27,3,3,3,0,-11.07,-17.76,-1.87,-5.48,-9.86,-0.32,18.75,-82.8125,2.25,0.3995361328125,-0.03662109375,0.76019287109375,-0.510986328125,-28.875,48.6875,28.5625,-5.59,-7.9,-1.55,moving,5
10.89,1154837.45958714,27,3,3,3,0,-9.01,-14.52,-5.99,-3.46,-6.59,-4.37,-36.9375,7.375,-26.6875,0.39776611328125,-0.03936767578125,0.76202392578125,-0.50946044921875,-28.875,48.6875,28.5625,-5.55,-7.92,-1.61,moving,5
10.9,1154837.490676374,27,3,3,3,0,-8.75,-15.02,-1.03,-3.23,-7.1,0.64,-28.4375,31.25,-14.625,0.3948974609375,-0.0399169921875,0.76434326171875,-0.5081787109375,-28.875,48.6875,28.5625,-5.52,-7.92,-1.68,moving,5
10.91,1154837.490676374,27,3,3,3,0,-8.94,-15.69,-1.01,-3.44,-7.76,0.75,-28.25,45.5,-5.6875,0.39154052734375,-0.039306640625,0.76708984375,-0.50665283203125,-28.875,48.6875,28.5625,-5.5,-7.92,-1.76,moving,5
10.92,1154837.500637108,27,3,3,3,0,-8.94,-15.69,-1.01,-3.44,-7.76,0.75,-28.25,45.5,-5.6875,0.39154052734375,-0.039306640625,0.76708984375,-0.50665283203125,-28.875,48.6875,28.5625,-5.5,-7.92,-1.76,moving,5
10.92,1154837.500637108,27,3,3,3,0,-8.58,-16.22,-3.1,-3.12,-8.3,-1.2,-49.3125,72.5625,-10.4375,0.385986328125,-0.0384521484375,0.771728515625,-0.50396728515625,-28.875,48.6875,28.5625,-5.46,-7.91,-1.9,moving,5
10.93,1154837.515900739,27,3,3,3,0,-8.03,-16.29,-3.76,-2.6,-8.38,-1.76,-31.3125,57.4375,-9.75,0.381591796875,-0.03765869140625,0.77496337890625,-0.50238037109375,-29.1875,49.0,31.375,-5.42,-7.91,-2.0,moving,5
10.94,1154837.515900739,27,3,3,3,0,-6.58,-14.84,-2.94,-1.16,-6.91,-0.93,7.8125,22.3125,-5.0625,0.3798828125,-0.0367431640625,0.77532958984375,-0.503173828125,-29.1875,49.0,31.375,-5.41,-7.92,-2.01,moving,5
10.95,1154837.545226626,27,3,3,3,0,-5.86,-13.63,-3.05,-0.45,-5.69,-1.08,35.875,3.625,-3.875,0.37957763671875,-0.03570556640625,0.77386474609375,-0.5057373046875,-29.1875,49.0,31.375,-5.4,-7.94,-1.96,moving,5
10.96,1154837.545226626,27,3,3,3,0,-5.25,-12.45,-3.11,0.14,-4.49,-1.2,44.3125,5.5,-4.625,0.37908935546875,-0.0343017578125,0.7720947265625,-0.5089111328125,-29.1875,49.0,31.375,-5.39,-7.96,-1.9,moving,5
10.97,1154837.555503278,27,3,3,3,0,-4.9,-11.53,-2.69,0.49,-3.56,-0.82,38.75,11.4375,-1.875,0.37835693359375,-0.03265380859375,0.770751953125,-0.5115966796875,-29.1875,49.0,31.375,-5.39,-7.97,-1.86,moving,5
10.98,1154837.555503278,27,3,3,3,0,-4.83,-9.9,-0.96,0.55,-1.92,0.88,27.3125,16.875,3.3125,0.37744140625,-0.03076171875,0.77008056640625,-0.51336669921875,-29.1875,49.6875,29.0,-5.39,-7.98,-1.84,moving,5
10.99,1154837.57457827,27,3,3,3,0,-4.86,-9.07,-0.9,0.52,-1.09,0.94,12.6875,24.125,6.8125,0.37615966796875,-0.02880859375,0.77032470703125,-0.51409912109375,-29.1875,49.6875,29.0,-5.39,-7.97,-1.84,moving,5
11.0,1154837.57457827,27,3,3,3,0,-4.49,-7.88,-0.73,0.9,0.08,1.13,2.3125,28.125,10.5625,0.37469482421875,-0.02679443359375,0.77117919921875,-0.51397705078125,-29.1875,49.6875,29.0,-5.39,-7.97,-1.87,moving,5
11.01,1154837.590695091,27,3,3,3,0,-2.77,-6.17,-1.2,2.63,1.78,0.68,3.4375,29.0625,13.875,0.3734130859375,-0.02447509765625,0.77197265625,-0.51385498046875,-29.1875,49.6875,29.0,-5.4,-7.95,-1.89,moving,5
11.02,1154837.590695091,27,3,3,3,0,-2.05,-5.23,-1.46,3.36,2.71,0.43,10.1875,24.875,17.0,0.37249755859375,-0.0218505859375,0.7723388671875,-0.5140380859375,-29.1875,49.6875,29.0,-5.42,-7.94,-1.9,moving,5
11.03,1154837.606026187,27,3,3,3,0,-1.56,-4.15,-1.3,3.87,3.77,0.59,18.9375,19.875,19.9375,0.3720703125,-0.01904296875,0.77215576171875,-0.51470947265625,-29.1875,49.375,27.375,-5.44,-7.93,-1.89,moving,5
11.04,1154837.606026187,27,3,3,3,0,-1.02,-3.2,-0.93,4.43,4.72,0.93,26.125,18.625,19.0625,0.3717041015625,-0.01605224609375,0.77166748046875,-0.51593017578125,-29.1875,49.375,27.375,-5.46,-7.92,-1.87,moving,5
11.05,1154837.635614321,27,3,3,3,0,-0.23,-1.53,-0.19,5.24,6.38,1.66,30.0625,23.625,13.5625,0.3707275390625,-0.01312255859375,0.77105712890625,-0.51751708984375,-29.1875,49.375,27.375,-5.47,-7.92,-1.85,moving,5
11.06,1154837.635614321,27,3,3,3,0,0.62,-0.82,0.02,6.09,7.1,1.86,33.125,31.125,4.75,0.368896484375,-0.0103759765625,0.77056884765625,-0.5196533203125,-29.1875,49.375,27.375,-5.46,-7.92,-1.84,moving,5
11.07,1154837.648569481,27,3,3,3,0,0.55,0.0,0.33,6.01,7.92,2.16,30.0,35.75,1.6875,0.3665771484375,-0.0076904296875,0.77032470703125,-0.52166748046875,-29.1875,49.375,27.375,-5.45,-7.93,-1.83,moving,5
11.08,1154837.648569481,27,3,3,3,0,0.36,0.71,0.56,5.81,8.65,2.41,20.0625,37.6875,1.75,0.36407470703125,-0.00518798828125,0.7706298828125,-0.52301025390625,-27.375,49.6875,25.875,-5.44,-7.94,-1.84,moving,5
11.09,1154837.664986961,27,3,3,3,0,0.1,1.96,0.63,5.53,9.9,2.5,7.0625,38.8125,-2.8125,0.361328125,-0.00341796875,0.77154541015625,-0.52362060546875,-27.375,49.6875,25.875,-5.43,-7.94,-1.86,moving,5
11.1,1154837.664986961,27,3,3,3,0,0.27,2.35,1.09,5.67,10.31,3.0,-4.25,39.25,-15.6875,0.35797119140625,-0.0028076171875,0.77294921875,-0.5238037109375,-27.375,49.6875,25.875,-5.39,-7.96,-1.91,moving,5
11.11,1154837.694428449,27,3,3,3,0,0.77,3.37,1.26,6.11,11.36,3.24,-16.25,49.4375,-33.5625,0.35308837890625,-0.00335693359375,0.77520751953125,-0.5238037109375,-27.375,49.6875,25.875,-5.33,-7.98,-1.98,moving,5
11.12,1154837.694428449,27,3,3,3,0,0.83,4.21,1.56,6.08,12.23,3.64,-39.5,57.1875,-48.75,0.34698486328125,-0.0052490234375,0.77874755859375,-0.52264404296875,-27.375,49.6875,25.875,-5.24,-8.01,-2.08,moving,5
11.13,1154837.710354922,27,3,3,3,0,1.53,5.13,1.79,6.64,13.19,4.04,-65.4375,77.0,-75.3125,0.3382568359375,-0.00885009765625,0.783935546875,-0.5205078125,-28.875,49.375,23.5625,-5.11,-8.06,-2.24,moving,5
11.14,1154837.710354922,27,3,3,3,0,1.73,4.38,0.55,6.67,12.49,3.02,-87.9375,105.75,-91.125,0.3267822265625,-0.01287841796875,0.7908935546875,-0.5172119140625,-28.875,49.375,23.5625,-4.93,-8.1,-2.46,moving,5
11.15,1154837.725013776,27,3,3,3,0,1.98,3.36,-0.5,6.8,11.48,2.15,-85.1875,85.5,-55.9375,0.31817626953125,-0.01531982421875,0.79705810546875,-0.51300048828125,-28.875,49.375,23.5625,-4.82,-8.11,-2.65,moving,5
11.16,1154837.725013776,27,3,3,3,0,-1.1,-0.63,-1.4,3.66,7.46,1.37,-46.875,74.1875,-8.0,0.3126220703125,-0.013916015625,0.80120849609375,-0.51007080078125,-28.875,49.375,23.5625,-4.77,-8.1,-2.78,moving,5
11.17,1154837.758925763,27,3,3,3,0,-2.14,-3.33,-1.67,2.61,4.74,1.2,-24.75,66.4375,16.25,0.30865478515625,-0.010498046875,0.80413818359375,-0.50799560546875,-28.875,49.375,23.5625,-4.76,-8.07,-2.87,moving,5
11.18,1154837.758925763,27,3,3,3,0,-2.14,-3.33,-1.67,2.61,4.74,1.2,-24.75,66.4375,16.25,0.30865478515625,-0.010498046875,0.80413818359375,-0.50799560546875,-28.875,49.375,23.5625,-4.76,-8.07,-2.87,moving,5
11.18,1154837.764301943,27,3,3,3,0,-3.36,-5.63,-4.73,1.48,2.39,-1.88,34.75,25.3125,73.8125,0.3101806640625,-0.00323486328125,0.80328369140625,-0.5084228515625,-30.25,49.0,24.25,-4.85,-8.03,-2.84,moving,5
11.19,1154837.764301943,27,3,3,3,0,-15.86,-19.03,0.1,-10.77,-11.06,2.7,125.625,-88.3125,138.0,0.32244873046875,0.00592041015625,0.79522705078125,-0.513427734375,-30.25,49.0,24.25,-5.08,-7.97,-2.59,moving,5
11.2,1154837.783894473,27,3,3,3,0,-28.91,-38.93,-9.86,-23.62,-30.97,-7.65,199.625,-125.375,102.125,0.33551025390625,0.012939453125,0.78253173828125,-0.52435302734375,-30.25,49.0,24.25,-5.28,-7.96,-2.2,moving,5
11.21,1154837.783894473,27,3,3,3,0,-31.21,-36.96,-10.48,-25.7,-28.99,-8.98,348.9375,-235.375,109.75,0.35595703125,0.0198974609375,0.75897216796875,-0.5447998046875,-30.25,49.0,24.25,-5.51,-7.97,-1.49,moving,5
11.22,1154837.799323672,27,3,3,3,0,-29.29,-18.0,-3.33,-23.6,-10.06,-2.43,244.625,-267.6875,85.625,0.37713623046875,0.02044677734375,0.738525390625,-0.55853271484375,-30.25,49.0,24.25,-5.68,-7.93,-0.89,moving,5
11.23,1154837.799323672,27,3,3,3,0,-15.4,-12.6,-7.31,-9.71,-4.66,-6.46,9.8125,-29.75,-1.8125,0.37896728515625,0.0191650390625,0.737060546875,-0.55926513671875,-30.0,49.0,20.6875,-5.68,-7.94,-0.85,moving,5
11.24,1154837.82655939,27,3,3,3,0,-14.82,-10.45,2.64,-9.16,-2.51,3.66,-67.5625,70.125,-12.4375,0.37396240234375,0.01959228515625,0.74267578125,-0.55517578125,-30.0,49.0,20.6875,-5.66,-7.94,-1.01,moving,5
11.25,1154837.82655939,27,3,3,3,0,-15.03,-10.71,3.66,-9.39,-2.78,4.9,-91.4375,98.875,-1.3125,0.36761474609375,0.02130126953125,0.750244140625,-0.54913330078125,-30.0,49.0,20.6875,-5.63,-7.92,-1.24,moving,5
11.26,1154837.843689435,27,3,3,3,0,-14.0,-11.47,-2.84,-8.42,-3.57,-1.23,-151.8125,162.75,-9.875,0.35675048828125,0.02362060546875,0.76263427734375,-0.5390625,-30.0,49.0,20.6875,-5.58,-7.89,-1.61,moving,5
11.27,1154837.843689435,27,3,3,3,0,-13.71,-11.59,-3.9,-8.17,-3.72,-1.97,-152.6875,109.75,-13.3125,0.34912109375,0.02313232421875,0.77313232421875,-0.529052734375,-30.0,49.0,20.6875,-5.53,-7.86,-1.92,moving,5
11.28,1154837.858759829,27,3,3,3,0,-10.59,-11.57,-2.09,-5.06,-3.73,-0.05,-73.0625,19.0625,-0.5625,0.34796142578125,0.02178955078125,0.77703857421875,-0.5240478515625,-28.1875,50.5,20.25,-5.52,-7.83,-2.04,moving,5
11.29,1154837.858759829,27,3,3,3,0,-8.92,-12.27,-2.88,-3.37,-4.44,-0.88,13.0,-27.1875,13.5625,0.35040283203125,0.0218505859375,0.77557373046875,-0.52459716796875,-28.1875,50.5,20.25,-5.55,-7.82,-2.0,moving,5
11.3,1154837.875179588,27,3,3,3,0,-7.63,-12.31,-4.11,-2.02,-4.49,-2.26,54.4375,-70.25,20.5625,0.35601806640625,0.021728515625,0.7708740234375,-0.5277099609375,-28.1875,50.5,20.25,-5.6,-7.82,-1.85,moving,5
11.31,1154837.875179588,27,3,3,3,0,-4.69,-9.43,-4.59,0.96,-1.59,-2.94,82.8125,-96.3125,13.5625,0.36297607421875,0.02081298828125,0.76397705078125,-0.53302001953125,-28.1875,50.5,20.25,-5.65,-7.83,-1.65,moving,5
11.32,1154837.903536522,27,3,3,3,0,-5.75,-7.35,-1.91,-0.06,0.48,-0.45,66.25,-98.9375,10.0625,0.36993408203125,0.01898193359375,0.75775146484375,-0.5372314453125,-28.1875,50.5,20.25,-5.69,-7.84,-1.46,moving,5
11.33,1154837.903536522,27,3,3,3,0,-6.0,-6.19,-0.52,-0.29,1.65,0.88,10.9375,-43.6875,-0.625,0.372802734375,0.01727294921875,0.75579833984375,-0.5380859375,-28.875,50.875,22.25,-5.7,-7.84,-1.4,moving,5
11.34,1154837.917956891,27,3,3,3,0,-5.84,-5.3,0.34,-0.15,2.55,1.8,-34.9375,11.8125,-14.5,0.37139892578125,0.0157470703125,0.7578125,-0.53619384765625,-28.875,50.875,22.25,-5.68,-7.85,-1.46,moving,5
11.35,1154837.917956891,27,3,3,3,0,-4.93,-3.64,0.55,0.7,4.21,2.14,-63.6875,44.875,-25.5625,0.36737060546875,0.01416015625,0.76226806640625,-0.53271484375,-28.875,50.875,22.25,-5.63,-7.86,-1.59,moving,5
11.36,1154837.955925601,27,3,3,3,0,-4.28,-2.93,-0.14,1.28,4.93,1.62,-84.6875,63.5625,-35.3125,0.361572265625,0.01202392578125,0.76824951171875,-0.52813720703125,-28.875,50.875,22.25,-5.57,-7.87,-1.77,moving,5
11.37,1154837.955925601,27,3,3,3,0,-3.64,-2.15,-0.51,1.85,5.72,1.44,-91.5,66.0625,-40.875,0.35540771484375,0.00946044921875,0.7745361328125,-0.523193359375,-28.875,50.875,22.25,-5.49,-7.88,-1.96,moving,5
11.38,1154837.963532575,27,3,3,3,0,-2.5,-1.5,-0.37,2.91,6.39,1.74,-79.1875,58.125,-41.8125,0.349609375,0.00689697265625,0.77996826171875,-0.51904296875,-27.75,51.1875,22.25,-5.41,-7.89,-2.12,moving,5
11.39,1154837.963532575,27,3,3,3,0,-1.14,-0.43,-0.11,4.2,7.46,2.13,-62.1875,47.0625,-35.4375,0.3448486328125,0.00469970703125,0.7841796875,-0.51580810546875,-27.75,51.1875,22.25,-5.35,-7.9,-2.25,moving,5
11.4,1154837.984833804,27,3,3,3,0,-0.8,-0.16,0.19,4.49,7.74,2.54,-48.8125,31.875,-28.125,0.34149169921875,0.0028076171875,0.787353515625,-0.5133056640625,-27.75,51.1875,22.25,-5.3,-7.9,-2.35,moving,5
11.41,1154837.984833804,27,3,3,3,0,-0.25,-0.2,0.17,5.0,7.7,2.59,-37.9375,16.0,-22.5625,0.33941650390625,0.0008544921875,0.78948974609375,-0.5113525390625,-27.75,51.1875,22.25,-5.26,-7.91,-2.41,moving,5
11.42,1154837.994833194,27,3,3,3,0,0.11,-0.2,0.48,5.35,7.7,2.94,-29.5,-1.0,-17.5,0.33868408203125,-0.00128173828125,0.790771484375,-0.50982666015625,-27.75,51.1875,22.25,-5.24,-7.91,-2.45,moving,5
11.43,1154837.994833194,27,3,3,3,0,1.63,-0.21,1.05,6.85,7.7,3.53,-23.625,-17.5,-16.8125,0.33917236328125,-0.00390625,0.79132080078125,-0.5086669921875,-28.5,48.25,25.0,-5.22,-7.92,-2.47,moving,5
11.44,1154838.012716006,27,3,3,3,0,1.63,-0.21,1.05,6.85,7.7,3.53,-23.625,-17.5,-16.8125,0.33917236328125,-0.00390625,0.79132080078125,-0.5086669921875,-28.5,48.25,25.0,-5.22,-7.92,-2.47,moving,5
11.44,1154838.012716006,27,3,3,3,0,2.36,-0.18,1.08,7.57,7.73,3.55,-19.75,-27.875,-18.3125,0.34033203125,-0.0069580078125,0.79132080078125,-0.50787353515625,-28.5,48.25,25.0,-5.21,-7.92,-2.47,moving,5
11.45,1154838.026682681,27,3,3,3,0,3.12,-0.12,1.22,8.32,7.81,3.69,-15.375,-30.875,-22.4375,0.34149169921875,-0.01031494140625,0.79107666015625,-0.5074462890625,-28.5,48.25,25.0,-5.19,-7.94,-2.46,moving,5
