timestamp,android_nano_timestamp,temperature,calib_mag,calib_accel,calib_gyro,calib_sys,acc_x,acc_y,acc_z,lacc_x,lacc_y,lacc_z,gyro_x,gyro_y,gyro_z,quat_w,quat_x,quat_y,quat_z,mag_x,mag_y,mag_z,gravity_x,gravity_y,gravity_z,label,person
4.63,1848429.30597591,23,3,3,0,3,4.69,0.06,-1.03,-4.72,-2.43,0.04,-82.8125,72.25,-49.5,0.66351318359375,0.11724853515625,-0.73577880859375,-0.06793212890625,-46.375,48.375,-7.75,9.41,2.5,-1.08,moving,3
4.64,1848429.30597591,23,3,3,0,3,3.67,0.15,-0.69,-5.73,-2.44,0.24,-71.375,66.625,-49.125,0.668212890625,0.11663818359375,-0.73095703125,-0.07470703125,-46.375,48.375,-7.75,9.4,2.59,-0.94,moving,3
4.66,1848429.319834471,23,3,3,0,3,3.01,0.36,-0.62,-6.37,-2.32,0.19,-85.625,51.6875,-43.6875,0.67205810546875,0.11474609375,-0.7269287109375,-0.0821533203125,-46.375,48.375,-7.75,9.39,2.68,-0.81,moving,3
4.66,1848429.319834471,23,3,3,0,3,3.01,0.36,-0.62,-6.37,-2.32,0.19,-85.625,51.6875,-43.6875,0.67205810546875,0.11474609375,-0.7269287109375,-0.0821533203125,-46.375,48.375,-7.75,9.39,2.68,-0.81,moving,3
4.67,1848429.335673379,23,3,3,0,3,2.66,0.46,-0.61,-6.72,-2.29,0.09,-109.5625,32.3125,-37.375,0.67486572265625,0.1109619140625,-0.723876953125,-0.0909423828125,-46.375,48.375,-7.75,9.38,2.75,-0.71,moving,3
4.68,1848429.335673379,23,3,3,0,3,1.67,0.77,-0.31,-7.69,-2.05,0.29,-127.4375,22.5625,-29.8125,0.67724609375,0.10546875,-0.72119140625,-0.10052490234375,-46.375,48.375,-7.75,9.37,2.82,-0.61,moving,3
4.69,1848429.365054645,23,3,3,0,3,0.91,0.94,0.02,-8.44,-1.93,0.52,-140.25,23.875,-26.0,0.67974853515625,0.09906005859375,-0.71826171875,-0.11065673828125,-48.1875,48.0,-6.6875,9.36,2.87,-0.5,moving,3
4.7,1848429.365054645,23,3,3,0,3,0.17,1.0,0.45,-9.17,-1.93,0.81,-154.375,37.25,-27.75,0.68310546875,0.09197998046875,-0.7142333984375,-0.12164306640625,-48.1875,48.0,-6.6875,9.34,2.93,-0.36,moving,3
4.71,1848429.378906778,23,3,3,0,3,-0.3,0.9,0.7,-9.64,-2.09,0.87,-170.125,65.375,-34.25,0.68804931640625,0.08465576171875,-0.70819091796875,-0.13372802734375,-48.1875,48.0,-6.6875,9.33,2.99,-0.17,moving,3
4.71,1848429.378906778,23,3,3,0,3,-0.57,0.17,1.04,-9.88,-2.89,0.94,-184.4375,106.0,-43.125,0.69537353515625,0.07745361328125,-0.69921875,-0.14691162109375,-48.1875,48.0,-6.6875,9.31,3.07,0.09,moving,3
4.73,1848429.394001179,23,3,3,0,3,-0.66,-0.02,1.15,-9.94,-3.18,0.69,-197.8125,152.5,-56.125,0.705078125,0.07080078125,-0.6868896484375,-0.16131591796875,-48.1875,48.0,-6.6875,9.27,3.15,0.45,moving,3
4.74,1848429.394001179,23,3,3,0,3,-0.59,-0.12,1.04,-9.8,-3.36,0.15,-211.9375,195.375,-72.8125,0.71685791015625,0.06488037109375,-0.67120361328125,-0.17718505859375,-49.375,48.0,-3.1875,9.21,3.24,0.88,moving,3
4.75,1848429.410626138,23,3,3,0,3,-0.2,-0.29,0.69,-9.32,-3.62,-0.67,-226.5,217.9375,-81.125,0.72930908203125,0.05877685546875,-0.65338134765625,-0.1942138671875,-49.375,48.0,-3.1875,9.12,3.33,1.36,moving,3
4.76,1848429.410626138,23,3,3,0,3,1.59,-0.37,-0.5,-7.42,-3.75,-2.32,-239.5,200.125,-71.375,0.740478515625,0.051025390625,-0.635986328125,-0.2113037109375,-49.375,48.0,-3.1875,9.02,3.37,1.82,moving,3
4.77,1848429.441346516,23,3,3,0,3,3.21,-0.4,-1.19,-5.73,-3.76,-3.35,-242.5,128.375,-47.8125,0.74755859375,0.04034423828125,-0.622802734375,-0.22723388671875,-49.375,48.0,-3.1875,8.95,3.36,2.16,moving,3
4.78,1848429.441346516,23,3,3,0,3,5.24,-0.61,-1.93,-3.69,-3.91,-4.23,-219.25,2.0,-10.9375,0.74810791015625,0.02667236328125,-0.6181640625,-0.23980712890625,-49.375,48.0,-3.1875,8.94,3.29,2.29,moving,3
4.78,1848429.45643465,23,3,3,0,3,9.59,-0.58,-3.01,0.56,-3.76,-5.13,-157.25,-169.6875,37.0625,0.73992919921875,0.0108642578125,-0.62591552734375,-0.24615478515625,-51.5,45.375,-1.6875,9.03,3.17,2.11,moving,3
4.79,1848429.45643465,23,3,3,0,3,12.01,-0.33,-3.93,2.81,-3.36,-5.49,-54.0625,-373.1875,82.6875,0.720947265625,-0.00518798828125,-0.6485595703125,-0.2440185546875,-51.5,45.375,-1.6875,9.19,3.03,1.55,moving,3
4.81,1848429.486458576,23,3,3,0,3,16.07,0.4,-6.02,6.71,-2.46,-6.61,85.5625,-566.6875,109.8125,0.69036865234375,-0.01806640625,-0.68511962890625,-0.231689453125,-51.5,45.375,-1.6875,9.35,2.86,0.59,moving,3
4.82,1848429.486458576,23,3,3,0,3,22.64,2.66,-7.22,13.23,-0.02,-6.55,249.5,-700.5,107.5625,0.649658203125,-0.0235595703125,-0.73065185546875,-0.208740234375,-51.5,45.375,-1.6875,9.4,2.69,-0.67,moving,3
4.83,1848429.495468342,23,3,3,0,3,39.25,22.51,23.4,29.95,20.0,25.25,359.75,-621.625,62.0625,0.6107177734375,-0.0184326171875,-0.770751953125,-0.18060302734375,-51.5,45.375,-1.6875,9.29,2.5,-1.85,moving,3
4.84,1848429.495468342,23,3,3,0,3,31.02,18.67,-3.17,21.74,16.25,-1.15,109.125,-72.125,34.75,0.6065673828125,-0.01611328125,-0.77618408203125,-0.17132568359375,-50.375,45.375,10.0625,9.28,2.41,-2.01,moving,3
4.85,1848429.516084024,23,3,3,0,3,17.51,3.9,-9.74,8.16,1.37,-8.2,-69.0,276.5,-55.875,0.6241455078125,-0.0118408203125,-0.7603759765625,-0.17926025390625,-50.375,45.375,10.0625,9.34,2.52,-1.53,moving,3
4.86,1848429.516084024,23,3,3,0,3,15.66,0.72,-7.45,6.29,-1.92,-6.31,-36.1875,228.75,-68.8125,0.6380615234375,-0.00567626953125,-0.74725341796875,-0.18560791015625,-50.375,45.375,10.0625,9.37,2.64,-1.14,moving,3
4.87,1848429.560951781,23,3,3,0,3,16.83,3.32,-1.72,7.46,0.6,-0.76,-2.1875,108.875,-41.0,0.6444091796875,-0.0013427734375,-0.74114990234375,-0.18804931640625,-50.375,45.375,10.0625,9.37,2.71,-0.96,moving,3
4.88,1848429.560951781,23,3,3,0,3,18.11,4.93,1.57,8.74,2.17,2.45,26.3125,60.4375,-28.75,0.64788818359375,0.00299072265625,-0.73822021484375,-0.18798828125,-50.375,45.375,10.0625,9.36,2.75,-0.88,moving,3
4.89,1848429.566591145,23,3,3,0,3,16.25,5.42,1.44,6.88,2.64,2.23,24.375,64.125,-14.5,0.6517333984375,0.00634765625,-0.7349853515625,-0.18719482421875,-45.375,49.75,13.5,9.37,2.77,-0.78,moving,3
4.9,1848429.566591145,23,3,3,0,3,13.48,4.11,-0.44,4.1,1.33,0.3,36.25,35.4375,-6.9375,0.65386962890625,0.0093994140625,-0.7335205078125,-0.18524169921875,-45.375,49.75,13.5,9.37,2.78,-0.74,moving,3
4.91,1848429.595123208,23,3,3,0,3,11.29,4.3,-1.6,1.92,1.53,-0.78,88.4375,-18.875,-0.625,0.65252685546875,0.01422119140625,-0.73602294921875,-0.17962646484375,-45.375,49.75,13.5,9.36,2.77,-0.82,moving,3
4.91,1848429.595123208,23,3,3,0,3,11.29,4.3,-1.6,1.92,1.53,-0.78,88.4375,-18.875,-0.625,0.65252685546875,0.01422119140625,-0.73602294921875,-0.17962646484375,-45.375,49.75,13.5,9.36,2.77,-0.82,moving,3
4.92,1848429.60607674,23,3,3,0,3,10.9,4.9,-1.48,1.55,2.14,-0.49,143.9375,-64.5625,-4.75,0.6480712890625,0.02166748046875,-0.74188232421875,-0.17071533203125,-45.375,49.75,13.5,9.35,2.75,-0.99,moving,3
4.93,1848429.60607674,23,3,3,0,3,10.12,5.04,-1.57,0.78,2.29,-0.37,175.9375,-70.375,-17.5,0.642822265625,0.03167724609375,-0.74835205078125,-0.160400390625,-45.375,49.75,13.5,9.33,2.75,-1.19,moving,3
4.94,1848429.611931151,23,3,3,0,3,8.72,4.77,-1.85,-0.58,2.0,-0.49,182.875,-42.625,-32.75,0.6390380859375,0.04351806640625,-0.75311279296875,-0.15045166015625,-48.375,48.25,9.25,9.31,2.76,-1.35,moving,3
4.95,1848429.611931151,23,3,3,0,3,5.49,3.08,-1.75,-3.79,0.28,-0.31,171.8125,0.4375,-47.625,0.63763427734375,0.05621337890625,-0.75506591796875,-0.14178466796875,-48.375,48.25,9.25,9.28,2.8,-1.43,moving,3
4.96,1848429.631313719,23,3,3,0,3,3.94,2.02,-1.4,-5.33,-0.83,0.0,152.625,59.75,-60.125,0.6400146484375,0.06939697265625,-0.75323486328125,-0.134765625,-48.375,48.25,9.25,9.27,2.86,-1.41,moving,3
4.97,1848429.631313719,23,3,3,0,3,2.47,1.04,-0.77,-6.79,-1.89,0.5,128.4375,125.4375,-67.0,0.6466064453125,0.0823974609375,-0.74725341796875,-0.1292724609375,-48.375,48.25,9.25,9.26,2.94,-1.27,moving,3
4.98,1848429.646369506,23,3,3,0,3,0.15,-0.07,0.35,-9.11,-3.1,1.37,97.3125,192.8125,-71.5,0.65753173828125,0.0947265625,-0.73681640625,-0.12554931640625,-48.375,48.25,9.25,9.26,3.03,-1.01,moving,3
4.99,1848429.646369506,23,3,3,0,3,-0.72,-0.05,0.74,-9.98,-3.21,1.38,59.3125,257.25,-77.4375,0.67254638671875,0.10589599609375,-0.72186279296875,-0.1240234375,-48.375,48.5625,4.375,9.26,3.15,-0.63,moving,3
5.0,1848429.660088825,23,3,3,0,3,-1.15,0.33,0.7,-10.39,-2.95,0.83,17.1875,313.75,-84.9375,0.69091796875,0.1156005859375,-0.70257568359375,-0.125,-48.375,48.5625,4.375,9.23,3.28,-0.13,moving,3
5.01,1848429.660088825,23,3,3,0,3,-1.29,0.54,0.63,-10.47,-2.88,0.18,-23.5625,353.9375,-89.3125,0.7115478515625,0.12347412109375,-0.67974853515625,-0.128173828125,-48.375,48.5625,4.375,9.17,3.43,0.44,moving,3
5.02,1848429.691671792,23,3,3,0,3,-1.45,0.12,-0.12,-10.54,-3.41,-1.19,-60.375,367.3125,-76.0,0.732666015625,0.12823486328125,-0.65509033203125,-0.1324462890625,-48.375,48.5625,4.375,9.08,3.54,1.06,moving,3
5.03,1848429.691671792,23,3,3,0,3,-1.24,-0.16,-0.9,-10.21,-3.75,-2.57,-87.25,349.0625,-38.0625,0.7528076171875,0.12884521484375,-0.63104248046875,-0.13592529296875,-48.375,48.5625,4.375,8.97,3.58,1.67,moving,3
5.04,1848429.710512979,23,3,3,0,3,-1.08,-0.23,-1.5,-9.96,-3.76,-3.69,-96.1875,293.75,9.625,0.7698974609375,0.12542724609375,-0.61053466796875,-0.13720703125,-51.1875,45.25,-7.0625,8.88,3.53,2.18,moving,3
5.05,1848429.710512979,23,3,3,0,3,-1.05,-0.57,-1.68,-9.87,-4.0,-4.24,-87.8125,206.5625,47.8125,0.7822265625,0.11944580078125,-0.59600830078125,-0.13641357421875,-51.1875,45.25,-7.0625,8.82,3.42,2.56,moving,3
5.06,1848429.721375243,23,3,3,0,3,0.26,-1.3,-2.56,-8.55,-4.59,-5.32,-67.8125,109.9375,73.0,0.78948974609375,0.1123046875,-0.58837890625,-0.1337890625,-51.1875,45.25,-7.0625,8.81,3.28,2.76,moving,3
5.07,1848429.721375243,23,3,3,0,3,1.4,-1.01,-3.57,-7.46,-4.14,-6.36,-30.5625,4.3125,90.125,0.791015625,0.10565185546875,-0.588623046875,-0.12908935546875,-51.1875,45.25,-7.0625,8.86,3.12,2.79,moving,3
5.08,1848429.756932087,23,3,3,0,3,3.37,-0.35,-4.82,-5.61,-3.33,-7.38,31.25,-134.1875,103.875,0.784912109375,0.1009521484375,-0.59912109375,-0.12152099609375,-51.1875,45.25,-7.0625,8.98,2.98,2.56,moving,3
5.09,1848429.756932087,23,3,3,0,3,5.79,-0.08,-5.83,-3.37,-2.91,-7.82,116.25,-327.125,122.0625,0.7677001953125,0.0989990234375,-0.62353515625,-0.10992431640625,-48.6875,45.25,-16.5625,9.17,2.83,1.98,moving,3
5.1,1848429.769607868,23,3,3,0,3,12.65,-0.4,-8.12,3.26,-3.05,-9.11,214.875,-551.0,148.5625,0.7362060546875,0.09991455078125,-0.662841796875,-0.0928955078125,-48.6875,45.25,-16.5625,9.38,2.65,0.99,moving,3
5.11,1848429.769607868,23,3,3,0,3,17.34,-0.52,-10.52,7.83,-2.89,-10.11,321.375,-765.5,181.6875,0.688720703125,0.103515625,-0.7142333984375,-0.06915283203125,-48.6875,45.25,-16.5625,9.5,2.36,-0.4,moving,3
5.12,1848429.799197671,23,3,3,0,3,24.0,0.19,-11.49,14.61,-1.73,-9.43,407.9375,-908.8125,208.625,0.627197265625,0.109130859375,-0.77020263671875,-0.03924560546875,-48.6875,45.25,-16.5625,9.39,1.93,-2.06,moving,3
5.13,1848429.799197671,23,3,3,0,3,39.25,2.14,-6.07,30.16,0.67,-2.69,376.5,-747.9375,172.5625,0.57232666015625,0.115234375,-0.81182861328125,-0.0115966796875,-48.6875,45.25,-16.5625,9.08,1.47,-3.37,moving,3
5.14,1848429.814146198,23,3,3,0,3,39.25,7.45,3.98,30.26,6.16,7.68,140.8125,-181.0625,64.0625,0.55804443359375,0.11749267578125,-0.82147216796875,-0.00018310546875,-45.75,49.25,-9.375,8.99,1.28,-3.69,moving,3
5.15,1848429.814146198,23,3,3,0,3,30.04,14.1,-1.28,20.79,12.74,1.67,-148.0625,443.125,9.75,0.59075927734375,0.1094970703125,-0.79931640625,-0.00579833984375,-45.75,49.25,-9.375,9.24,1.35,-2.96,moving,3
5.16,1848429.829869506,23,3,3,0,3,17.27,4.76,-6.2,7.78,3.18,-4.26,-171.1875,603.0625,-86.8125,0.6334228515625,0.10687255859375,-0.76617431640625,-0.01641845703125,-45.75,49.25,-9.375,9.48,1.57,-1.93,moving,3
5.17,1848429.829869506,23,3,3,0,3,10.46,0.98,-3.27,0.91,-0.8,-1.96,-89.0,359.3125,-113.6875,0.65771484375,0.1099853515625,-0.7447509765625,-0.0252685546875,-45.75,49.25,-9.375,9.55,1.78,-1.3,moving,3
5.17,1848429.842088174,23,3,3,0,3,10.46,0.98,-3.27,0.91,-0.8,-1.96,-89.0,359.3125,-113.6875,0.65771484375,0.1099853515625,-0.7447509765625,-0.0252685546875,-45.75,49.25,-9.375,9.55,1.78,-1.3,moving,3
5.18,1848429.842088174,23,3,3,0,3,11.61,3.55,-2.94,2.06,1.69,-1.73,-76.0,42.1875,-33.625,0.66107177734375,0.10791015625,-0.7418212890625,-0.03173828125,-45.75,49.25,-9.375,9.55,1.86,-1.21,moving,3
5.19,1848429.871700031,23,3,3,0,3,15.0,4.71,-0.9,5.49,2.86,0.6,-50.0625,-183.9375,10.3125,0.64959716796875,0.10382080078125,-0.7523193359375,-0.03607177734375,-42.875,53.0,-5.5,9.51,1.85,-1.5,moving,3
5.2,1848429.871700031,23,3,3,0,3,17.26,4.28,0.11,7.82,2.38,1.95,-24.0,-210.4375,-18.1875,0.63580322265625,0.10296630859375,-0.76385498046875,-0.04058837890625,-42.875,53.0,-5.5,9.44,1.89,-1.84,moving,3
5.21,1848429.877929442,23,3,3,0,3,14.69,2.77,-0.72,5.3,0.79,1.29,-29.9375,-111.5,-48.6875,0.62841796875,0.10418701171875,-0.76947021484375,-0.0462646484375,-42.875,53.0,-5.5,9.38,1.98,-2.01,moving,3
5.22,1848429.877929442,23,3,3,0,3,11.9,1.85,-1.12,2.53,-0.24,0.85,-60.75,13.0625,-58.5,0.629638671875,0.10479736328125,-0.7679443359375,-0.05340576171875,-42.875,53.0,-5.5,9.37,2.09,-1.97,moving,3
5.23,1848429.90159733,23,3,3,0,3,9.36,0.9,-0.65,-0.01,-1.33,1.13,-99.9375,95.5,-65.25,0.63653564453125,0.1041259765625,-0.7615966796875,-0.06280517578125,-42.875,53.0,-5.5,9.37,2.23,-1.78,moving,3
5.24,1848429.90159733,23,3,3,0,3,6.91,0.18,0.29,-2.47,-2.22,1.77,-133.4375,154.8125,-80.75,0.6474609375,0.1029052734375,-0.75140380859375,-0.07476806640625,-44.5625,51.0625,-3.1875,9.39,2.4,-1.47,moving,3
5.25,1848429.915742553,23,3,3,0,3,2.0,-0.24,1.55,-7.38,-2.84,2.62,-156.375,207.8125,-94.625,0.66168212890625,0.10162353515625,-0.737548828125,-0.08843994140625,-44.5625,51.0625,-3.1875,9.39,2.59,-1.06,moving,3
5.26,1848429.915742553,23,3,3,0,3,-0.03,1.13,1.56,-9.41,-1.64,2.16,-176.625,236.875,-97.1875,0.677490234375,0.09942626953125,-0.721435546875,-0.103271484375,-44.5625,51.0625,-3.1875,9.38,2.78,-0.59,moving,3
5.27,1848429.93368107,23,3,3,0,3,-1.58,2.65,1.28,-10.93,-0.31,1.39,-192.3125,239.8125,-106.8125,0.6929931640625,0.096923828125,-0.70428466796875,-0.11956787109375,-44.5625,51.0625,-3.1875,9.34,2.96,-0.1,moving,3
5.28,1848429.93368107,23,3,3,0,3,-3.39,4.14,2.04,-12.66,0.98,1.65,-196.4375,241.875,-121.5625,0.70794677734375,0.094970703125,-0.68634033203125,-0.13690185546875,-44.5625,51.0625,-3.1875,9.27,3.16,0.39,moving,3
5.29,1848429.966163899,23,3,3,0,3,-4.34,3.69,2.47,-13.51,0.35,1.54,-211.125,259.5625,-124.4375,0.723388671875,0.09246826171875,-0.6663818359375,-0.15496826171875,-48.1875,48.5625,-4.375,9.17,3.33,0.92,moving,3
5.3,1848429.966163899,23,3,3,0,3,-4.26,2.25,1.59,-13.3,-1.21,0.06,-262.125,280.25,-119.5625,0.73974609375,0.08660888671875,-0.643798828125,-0.1754150390625,-48.1875,48.5625,-4.375,9.04,3.47,1.52,moving,3
5.31,1848429.978594481,23,3,3,0,3,-3.59,0.79,0.47,-12.48,-2.72,-1.71,-326.4375,290.5,-96.4375,0.7564697265625,0.07537841796875,-0.618896484375,-0.1976318359375,-48.1875,48.5625,-4.375,8.89,3.51,2.18,moving,3
5.32,1848429.978594481,23,3,3,0,3,-3.3,0.23,-3.79,-12.01,-3.21,-6.67,-365.625,314.6875,-58.5,0.774169921875,0.05975341796875,-0.59088134765625,-0.21893310546875,-48.1875,48.5625,-4.375,8.71,3.44,2.88,moving,3
5.33,1848429.993079996,23,3,3,0,3,-2.24,-0.45,-7.61,-10.76,-3.76,-11.17,-379.375,298.6875,-54.4375,0.789794921875,0.04266357421875,-0.56268310546875,-0.24041748046875,-48.1875,48.5625,-4.375,8.51,3.31,3.56,moving,3
5.34,1848429.993079996,23,3,3,0,3,1.2,-2.44,-10.47,-7.16,-5.66,-14.44,-339.375,143.25,-86.875,0.79583740234375,0.02655029296875,-0.54510498046875,-0.26239013671875,-50.375,45.0,-6.25,8.37,3.21,3.96,moving,3
5.35,1848430.027428059,23,3,3,0,3,5.98,-3.64,-10.88,-2.43,-6.84,-14.78,-205.3125,-121.5,-77.9375,0.78851318359375,0.01318359375,-0.54852294921875,-0.27777099609375,-50.375,45.0,-6.25,8.41,3.19,3.9,moving,3
5.36,1848430.027428059,23,3,3,0,3,9.81,-0.25,-9.24,1.17,-3.46,-12.59,-3.125,-375.0625,-13.6875,0.76983642578125,0.00457763671875,-0.57391357421875,-0.2791748046875,-50.375,45.0,-6.25,8.64,3.21,3.34,moving,3
5.37,1848430.040504922,23,3,3,0,3,11.11,0.53,-9.47,2.15,-2.7,-11.81,193.625,-586.0,48.3125,0.740478515625,0.0008544921875,-0.61712646484375,-0.26605224609375,-50.375,45.0,-6.25,8.95,3.23,2.33,moving,3
5.38,1848430.040504922,23,3,3,0,3,13.06,1.41,-10.62,3.83,-1.77,-11.46,338.6875,-825.0625,86.5,0.6959228515625,-0.00103759765625,-0.67626953125,-0.2415771484375,-50.375,45.0,-6.25,9.23,3.18,0.83,moving,3
5.39,1848430.05155782,23,3,3,0,3,17.4,2.09,-9.63,8.13,-0.92,-8.6,449.6875,-1009.375,97.6875,0.635498046875,-0.00079345703125,-0.74359130859375,-0.2080078125,-52.5,42.5,0.1875,9.27,3.02,-1.03,moving,3
5.4,1848430.05155782,23,3,3,0,3,39.22,14.96,14.85,30.2,12.15,17.45,525.8125,-812.0625,24.4375,0.5811767578125,0.011962890625,-0.7952880859375,-0.171875,-52.5,42.5,0.1875,9.02,2.81,-2.6,moving,3
5.41,1848430.080809,23,3,3,0,3,36.53,33.43,8.86,27.53,30.67,11.62,214.375,-32.8125,-27.0625,0.578125,0.02423095703125,-0.800048828125,-0.15838623046875,-52.5,42.5,0.1875,8.99,2.75,-2.75,moving,3
5.42,1848430.080809,23,3,3,0,3,16.96,9.5,-14.15,7.77,6.57,-12.39,-235.1875,553.625,-44.5625,0.61578369140625,0.02313232421875,-0.76776123046875,-0.17559814453125,-52.5,42.5,0.1875,9.19,2.92,-1.76,moving,3
5.43,1848430.100205972,23,3,3,0,3,11.82,3.05,-6.86,2.59,-0.07,-5.76,-85.5625,386.8125,-116.1875,0.6396484375,0.0322265625,-0.74493408203125,-0.18670654296875,-52.5,42.5,0.1875,9.22,3.13,-1.09,moving,3
5.44,1848430.100205972,23,3,3,0,3,11.82,3.05,-6.86,2.59,-0.07,-5.76,-85.5625,386.8125,-116.1875,0.6396484375,0.0322265625,-0.74493408203125,-0.18670654296875,-52.5,42.5,0.1875,9.22,3.13,-1.09,moving,3
5.44,1848430.114386718,23,3,3,0,3,12.43,6.91,-6.0,3.19,3.72,-5.14,26.375,156.0625,-38.75,0.64898681640625,0.03875732421875,-0.73651123046875,-0.18670654296875,-45.25,47.5,16.1875,9.23,3.18,-0.86,moving,3
5.45,1848430.114386718,23,3,3,0,3,15.39,7.57,-3.19,6.17,4.39,-2.18,101.625,-59.125,-5.25,0.64471435546875,0.04388427734375,-0.74151611328125,-0.1806640625,-45.25,47.5,16.1875,9.22,3.18,-1.01,moving,3
5.46,1848430.130850463,23,3,3,0,3,18.76,7.8,2.29,9.58,4.63,3.64,102.4375,-168.1875,-11.5,0.63311767578125,0.0477294921875,-0.75244140625,-0.17529296875,-45.25,47.5,16.1875,9.17,3.17,-1.34,moving,3
5.47,1848430.130850463,23,3,3,0,3,16.42,6.82,-2.3,7.26,3.66,-0.77,26.5,-106.375,6.375,0.6260986328125,0.04718017578125,-0.75872802734375,-0.17364501953125,-45.25,47.5,16.1875,9.15,3.16,-1.52,moving,3
5.48,1848430.144735839,23,3,3,0,3,14.21,3.93,-1.66,5.06,0.77,-0.08,17.625,-25.0625,-0.8125,0.62432861328125,0.04779052734375,-0.7603759765625,-0.172607421875,-45.25,47.5,16.1875,9.14,3.15,-1.57,moving,3
5.49,1848430.144735839,23,3,3,0,3,11.68,2.0,-0.76,2.53,-1.18,0.78,49.8125,32.75,-23.1875,0.62591552734375,0.05255126953125,-0.75921630859375,-0.17041015625,-49.0,46.0625,9.25,9.14,3.18,-1.55,moving,3
5.5,1848430.176991251,23,3,3,0,3,9.31,1.84,-0.32,0.16,-1.37,1.14,66.9375,74.25,-34.3125,0.62994384765625,0.05963134765625,-0.75604248046875,-0.16754150390625,-49.0,46.0625,9.25,9.14,3.22,-1.47,moving,3
5.51,1848430.176991251,23,3,3,0,3,5.53,2.11,0.88,-3.61,-1.15,2.25,79.4375,97.25,-45.375,0.63519287109375,0.06842041015625,-0.7515869140625,-0.16424560546875,-49.0,46.0625,9.25,9.14,3.27,-1.36,moving,3
5.52,1848430.189522256,23,3,3,0,3,4.12,1.55,1.47,-5.01,-1.79,2.69,92.0,118.0,-57.0,0.6414794921875,0.07891845703125,-0.7459716796875,-0.16070556640625,-49.0,46.0625,9.25,9.13,3.34,-1.22,moving,3
5.53,1848430.189522256,23,3,3,0,3,2.54,0.73,2.22,-6.58,-2.68,3.27,96.8125,149.6875,-58.8125,0.649658203125,0.09027099609375,-0.73846435546875,-0.1566162109375,-49.0,46.0625,9.25,9.13,3.41,-1.04,moving,3
5.54,1848430.20636857,23,3,3,0,3,0.83,0.02,2.86,-8.29,-3.46,3.65,83.5625,192.0625,-53.4375,0.66046142578125,0.10107421875,-0.7281494140625,-0.1527099609375,-50.375,46.5,7.375,9.12,3.49,-0.79,moving,3
5.55,1848430.20636857,23,3,3,0,3,-1.14,-0.15,2.88,-10.26,-3.72,3.33,50.25,236.1875,-50.75,0.6741943359375,0.1103515625,-0.714599609375,-0.15032958984375,-50.375,46.5,7.375,9.12,3.56,-0.44,moving,3
5.56,1848430.235256103,23,3,3,0,3,-1.49,-0.51,2.6,-10.59,-4.15,2.61,11.9375,276.875,-49.5,0.69049072265625,0.11773681640625,-0.69781494140625,-0.14984130859375,-50.375,46.5,7.375,9.1,3.64,-0.01,moving,3
5.57,1848430.235256103,23,3,3,0,3,-1.83,-1.19,1.76,-10.9,-4.9,1.26,-32.0625,316.5625,-42.625,0.709228515625,0.12249755859375,-0.6776123046875,-0.15106201171875,-50.375,46.5,7.375,9.06,3.71,0.5,moving,3
5.58,1848430.249102823,23,3,3,0,3,-1.97,-1.27,-0.45,-10.98,-4.98,-1.56,-86.5,343.875,-4.0,0.73004150390625,0.121826171875,-0.65484619140625,-0.15264892578125,-50.375,46.5,7.375,9.01,3.7,1.1,moving,3
5.59,1848430.249102823,23,3,3,0,3,-1.88,1.14,-5.23,-10.85,-2.45,-6.89,-132.8125,299.6875,47.125,0.7489013671875,0.1146240234375,-0.63427734375,-0.15399169921875,-51.5,43.875,-4.0,8.97,3.59,1.65,moving,3
5.6,1848430.264175618,23,3,3,0,3,-0.63,1.15,-7.27,-9.59,-2.29,-9.29,-140.9375,172.125,66.0625,0.76055908203125,0.10406494140625,-0.62164306640625,-0.15570068359375,-51.5,43.875,-4.0,8.95,3.45,2.01,moving,3
5.61,1848430.264175618,23,3,3,0,3,1.93,0.67,-9.18,-7.07,-2.63,-11.23,-82.375,-10.8125,74.3125,0.76165771484375,0.09442138671875,-0.6219482421875,-0.15533447265625,-51.5,43.875,-4.0,9.0,3.3,2.04,moving,3
5.62,1848430.291220865,23,3,3,0,3,4.75,-0.09,-8.37,-4.37,-3.24,-10.04,50.1875,-217.0,108.625,0.75079345703125,0.08892822265625,-0.6378173828125,-0.14715576171875,-51.5,43.875,-4.0,9.13,3.15,1.67,moving,3
5.63,1848430.291220865,23,3,3,0,3,6.03,0.29,-7.72,-3.26,-2.66,-8.7,204.9375,-363.375,149.1875,0.73028564453125,0.08929443359375,-0.6649169921875,-0.12872314453125,-51.5,43.875,-4.0,9.29,2.95,0.97,moving,3
5.64,1848430.321319335,23,3,3,0,3,8.32,0.97,-8.37,-1.09,-1.75,-8.42,326.75,-473.0625,158.1875,0.70111083984375,0.09552001953125,-0.69903564453125,-0.10321044921875,-49.25,45.0,-10.0625,9.41,2.72,0.04,moving,3
5.65,1848430.321319335,23,3,3,0,3,10.87,1.1,-9.31,1.45,-1.36,-8.16,415.9375,-608.3125,131.75,0.66033935546875,0.10723876953125,-0.73956298828125,-0.07470703125,-49.25,45.0,-10.0625,9.42,2.47,-1.14,moving,3
5.66,1848430.33078955,23,3,3,0,3,21.01,2.1,-4.87,11.78,-0.05,-2.35,467.125,-726.875,98.5625,0.60791015625,0.1226806640625,-0.78314208984375,-0.04559326171875,-49.25,45.0,-10.0625,9.22,2.16,-2.51,moving,3
5.67,1848430.33078955,23,3,3,0,3,33.93,8.15,9.49,25.0,6.33,13.12,418.25,-606.625,72.75,0.56109619140625,0.13720703125,-0.81610107421875,-0.01959228515625,-49.25,45.0,-10.0625,8.92,1.82,-3.62,moving,3
5.68,1848430.351172607,23,3,3,0,3,38.46,19.31,4.89,29.47,17.67,8.45,37.3125,51.4375,104.0625,0.56439208984375,0.1317138671875,-0.8148193359375,-0.01123046875,-49.25,45.0,-10.0625,8.99,1.63,-3.55,moving,3
5.69,1848430.351172607,23,3,3,0,3,25.13,6.1,-9.24,15.81,4.43,-6.65,-355.625,546.4375,93.9375,0.60638427734375,0.10784912109375,-0.78741455078125,-0.02557373046875,-46.375,47.875,-3.1875,9.31,1.67,-2.58,moving,3
5.7,1848430.362889688,23,3,3,0,3,25.13,6.1,-9.24,15.81,4.43,-6.65,-355.625,546.4375,93.9375,0.60638427734375,0.10784912109375,-0.78741455078125,-0.02557373046875,-46.375,47.875,-3.1875,9.31,1.67,-2.58,moving,3
5.7,1848430.362889688,23,3,3,0,3,14.67,-2.05,-4.39,5.19,-3.91,-2.72,-266.6875,509.1875,-48.5625,0.6429443359375,0.09814453125,-0.75848388671875,-0.04156494140625,-46.375,47.875,-3.1875,9.48,1.85,-1.66,moving,3
5.71,1848430.386720295,23,3,3,0,3,12.75,-0.55,-3.82,3.21,-2.56,-2.78,-111.875,348.9375,-77.6875,0.66632080078125,0.09820556640625,-0.7374267578125,-0.05035400390625,-46.375,47.875,-3.1875,9.54,2.01,-1.04,moving,3
5.72,1848430.386720295,23,3,3,0,3,12.68,2.33,-4.14,3.15,0.22,-3.3,-0.1875,122.625,-58.75,0.67388916015625,0.1025390625,-0.72979736328125,-0.05267333984375,-46.375,47.875,-3.1875,9.53,2.1,-0.84,moving,3
5.73,1848430.402283202,23,3,3,0,3,13.42,3.28,-3.27,3.92,1.12,-2.16,72.9375,-144.5625,-40.5625,0.66375732421875,0.10870361328125,-0.7381591796875,-0.0517578125,-46.375,47.875,-3.1875,9.49,2.16,-1.11,moving,3
5.74,1848430.402283202,23,3,3,0,3,19.31,6.19,4.37,9.89,4.02,6.02,73.25,-309.6875,-15.5625,0.642822265625,0.11248779296875,-0.75604248046875,-0.05084228515625,-44.5625,51.0625,-5.5,9.41,2.17,-1.65,moving,3
5.75,1848430.417194091,23,3,3,0,3,17.67,5.84,-1.33,8.32,3.66,0.66,-19.5625,-214.1875,1.0,0.62872314453125,0.11041259765625,-0.767822265625,-0.05413818359375,-44.5625,51.0625,-5.5,9.35,2.17,-1.99,moving,3
5.76,1848430.417194091,23,3,3,0,3,14.62,2.69,-2.39,5.3,0.45,-0.3,-72.0,-75.0,-21.25,0.624267578125,0.10748291015625,-0.7713623046875,-0.06085205078125,-44.5625,51.0625,-5.5,9.31,2.23,-2.09,moving,3
5.77,1848430.447210408,23,3,3,0,3,10.14,0.44,-2.17,0.84,-1.88,-0.12,-80.5,3.3125,-43.0,0.625,0.10601806640625,-0.7703857421875,-0.068603515625,-44.5625,51.0625,-5.5,9.3,2.33,-2.05,moving,3
5.78,1848430.447210408,23,3,3,0,3,8.4,0.67,-2.03,-0.88,-1.77,-0.07,-93.875,36.0,-46.125,0.6279296875,0.104248046875,-0.76739501953125,-0.07708740234375,-44.5625,51.0625,-5.5,9.29,2.44,-1.95,moving,3
5.79,1848430.460876464,23,3,3,0,3,6.86,0.72,-1.37,-2.41,-1.84,0.46,-94.4375,43.0,-56.0,0.63128662109375,0.10308837890625,-0.76385498046875,-0.0860595703125,-45.6875,50.375,-1.6875,9.28,2.56,-1.84,moving,3
5.8,1848430.460876464,23,3,3,0,3,5.34,0.7,-0.63,-3.92,-1.99,1.08,-86.75,55.375,-68.0,0.63519287109375,0.103271484375,-0.759521484375,-0.0950927734375,-45.6875,50.375,-1.6875,9.26,2.7,-1.71,moving,3
5.81,1848430.477252278,23,3,3,0,3,2.34,1.17,0.55,-6.91,-1.66,2.1,-84.4375,75.5,-72.375,0.64031982421875,0.10400390625,-0.75390625,-0.10400390625,-45.6875,50.375,-1.6875,9.25,2.84,-1.55,moving,3
5.82,1848430.477252278,23,3,3,0,3,0.77,1.99,1.03,-8.47,-0.99,2.38,-95.5625,93.5,-70.9375,0.6466064453125,0.1041259765625,-0.74713134765625,-0.1134033203125,-45.6875,50.375,-1.6875,9.24,2.98,-1.35,moving,3
5.83,1848430.506193277,23,3,3,0,3,-0.39,2.44,1.54,-9.62,-0.67,2.66,-118.8125,103.3125,-70.1875,0.65362548828125,0.10302734375,-0.7393798828125,-0.1241455078125,-45.6875,50.375,-1.6875,9.22,3.12,-1.12,moving,3
5.84,1848430.506193277,23,3,3,0,3,-1.0,2.77,1.67,-10.21,-0.49,2.51,-149.3125,121.8125,-71.875,0.66192626953125,0.1004638671875,-0.7301025390625,-0.13677978515625,-48.1875,47.0625,-0.5625,9.2,3.26,-0.84,moving,3
5.85,1848430.51564803,23,3,3,0,3,-1.79,2.67,1.9,-10.98,-0.72,2.4,-185.0625,145.0,-71.1875,0.67181396484375,0.09600830078125,-0.71875,-0.1513671875,-48.1875,47.0625,-0.5625,9.18,3.39,-0.5,moving,3
5.86,1848430.51564803,23,3,3,0,3,-1.71,1.99,1.51,-10.86,-1.52,1.6,-228.0,176.3125,-68.375,0.68359375,0.0892333984375,-0.70458984375,-0.16815185546875,-48.1875,47.0625,-0.5625,9.15,3.52,-0.08,moving,3
5.87,1848430.530406493,23,3,3,0,3,-1.32,1.41,0.43,-10.43,-2.18,0.01,-275.6875,209.625,-58.5625,0.69744873046875,0.0794677734375,-0.687255859375,-0.18682861328125,-48.1875,47.0625,-0.5625,9.11,3.6,0.41,moving,3
5.88,1848430.530406493,23,3,3,0,3,-0.87,0.86,-0.71,-9.93,-2.76,-1.67,-317.6875,215.75,-42.9375,0.71148681640625,0.06622314453125,-0.66827392578125,-0.2069091796875,-48.1875,47.0625,-0.5625,9.05,3.63,0.96,moving,3
5.89,1848430.560672281,23,3,3,0,3,-0.08,-0.82,-2.61,-9.08,-4.43,-4.08,-353.3125,179.0,-31.8125,0.72296142578125,0.04931640625,-0.65020751953125,-0.22833251953125,-50.0,43.875,-0.1875,8.99,3.61,1.46,moving,3
5.9,1848430.560672281,23,3,3,0,3,0.99,-1.47,-4.42,-7.94,-5.01,-6.32,-376.1875,126.6875,-25.4375,0.73077392578125,0.029541015625,-0.63427734375,-0.25054931640625,-50.0,43.875,-0.1875,8.94,3.54,1.89,moving,3
5.91,1848430.575628783,23,3,3,0,3,2.28,-1.57,-7.36,-6.63,-5.01,-9.55,-360.125,44.375,-17.6875,0.7333984375,0.008544921875,-0.62322998046875,-0.2713623046875,-50.0,43.875,-0.1875,8.91,3.44,2.18,moving,3
5.92,1848430.575628783,23,3,3,0,3,6.59,-1.67,-10.05,-2.35,-5.03,-12.25,-269.5625,-99.0625,-11.125,0.72772216796875,-0.0103759765625,-0.62298583984375,-0.28668212890625,-50.0,43.875,-0.1875,8.95,3.35,2.19,moving,3
5.93,1848430.589902791,23,3,3,0,3,10.38,-1.31,-9.39,1.33,-4.62,-11.2,-105.75,-283.6875,0.75,0.71197509765625,-0.02423095703125,-0.63812255859375,-0.29205322265625,-50.0,43.875,-0.1875,9.04,3.31,1.8,moving,3
5.94,1848430.589902791,23,3,3,0,3,13.99,-1.11,-9.49,4.81,-4.39,-10.51,89.125,-465.25,35.375,0.6865234375,-0.032470703125,-0.668701171875,-0.28363037109375,-52.875,42.75,4.375,9.18,3.28,1.01,moving,3
5.95,1848430.608298095,23,3,3,0,3,17.9,-1.18,-10.07,8.63,-4.37,-9.91,293.875,-627.8125,72.4375,0.65130615234375,-0.03460693359375,-0.7120361328125,-0.2598876953125,-52.875,42.75,4.375,9.27,3.18,-0.16,moving,3
5.95,1848430.608298095,23,3,3,0,3,17.9,-1.18,-10.07,8.63,-4.37,-9.91,293.875,-627.8125,72.4375,0.65130615234375,-0.03460693359375,-0.7120361328125,-0.2598876953125,-52.875,42.75,4.375,9.27,3.18,-0.16,moving,3
5.96,1848430.621455973,23,3,3,0,3,33.34,5.13,-0.71,24.14,2.12,0.89,477.1875,-738.625,67.875,0.60662841796875,-0.02838134765625,-0.76239013671875,-0.2235107421875,-52.875,42.75,4.375,9.19,3.0,-1.6,moving,3
5.97,1848430.621455973,23,3,3,0,3,39.25,32.07,33.06,30.29,29.23,35.87,535.4375,-589.1875,-22.9375,0.56689453125,-0.010009765625,-0.80218505859375,-0.18719482421875,-52.875,42.75,4.375,8.95,2.83,-2.81,moving,3
5.98,1848430.654518839,23,3,3,0,3,26.38,26.15,-9.03,17.38,23.27,-6.41,125.375,164.25,-63.9375,0.577392578125,0.00335693359375,-0.7960205078125,-0.181640625,-52.875,42.75,4.375,9.0,2.87,-2.62,moving,3
5.99,1848430.654518839,23,3,3,0,3,12.39,6.67,-12.67,3.29,3.55,-10.75,-31.6875,430.5625,-149.9375,0.6043701171875,0.01898193359375,-0.773193359375,-0.191162109375,-47.1875,45.0,20.0,9.09,3.12,-1.92,moving,3
6.0,1848430.669480102,23,3,3,0,3,11.58,5.2,-8.65,2.47,1.92,-7.1,23.625,240.9375,-102.75,0.61871337890625,0.03118896484375,-0.760498046875,-0.19451904296875,-47.1875,45.0,20.0,9.1,3.28,-1.55,moving,3
6.01,1848430.669480102,23,3,3,0,3,14.29,7.24,-7.44,5.17,3.98,-5.91,6.625,18.1875,10.9375,0.62005615234375,0.0311279296875,-0.75970458984375,-0.19342041015625,-47.1875,45.0,20.0,9.12,3.26,-1.53,moving,3
6.02,1848430.684208048,23,3,3,0,3,17.44,7.04,-3.91,8.34,3.84,-2.13,3.4375,-153.4375,36.1875,0.61041259765625,0.0263671875,-0.76806640625,-0.191650390625,-47.1875,45.0,20.0,9.09,3.2,-1.77,moving,3
6.03,1848430.684208048,23,3,3,0,3,20.49,6.22,0.38,11.43,3.05,2.39,18.75,-141.0,14.4375,0.60113525390625,0.0240478515625,-0.77587890625,-0.18994140625,-47.1875,45.0,20.0,9.05,3.17,-2.01,moving,3
6.04,1848430.712898437,23,3,3,0,3,17.33,5.39,-0.7,8.26,2.21,1.25,27.3125,39.625,-11.0,0.603515625,0.02685546875,-0.77423095703125,-0.1885986328125,-47.5,45.6875,12.75,9.06,3.18,-1.96,moving,3
6.05,1848430.712898437,23,3,3,0,3,13.38,2.91,-1.88,4.28,-0.31,-0.14,45.625,161.25,-38.75,0.61358642578125,0.0345458984375,-0.766357421875,-0.18719482421875,-47.5,45.6875,12.75,9.09,3.22,-1.73,moving,3
6.06,1848430.725847411,23,3,3,0,3,10.64,1.69,-1.42,1.53,-1.58,0.13,75.5,137.0,-45.25,0.6217041015625,0.04388427734375,-0.760009765625,-0.18408203125,-47.5,45.6875,12.75,9.1,3.27,-1.56,moving,3
6.07,1848430.725847411,23,3,3,0,3,6.74,1.64,-0.91,-2.36,-1.66,0.56,99.8125,87.625,-34.8125,0.62652587890625,0.05303955078125,-0.7567138671875,-0.17901611328125,-47.5,45.6875,12.75,9.11,3.3,-1.47,moving,3
6.08,1848430.743434773,23,3,3,0,3,5.42,1.29,-0.5,-3.68,-2.02,0.95,128.8125,59.4375,-30.0,0.62933349609375,0.06298828125,-0.75531005859375,-0.171875,-47.5,45.6875,12.75,9.11,3.32,-1.45,moving,3
6.09,1848430.743434773,23,3,3,0,3,4.1,0.8,0.24,-4.99,-2.53,1.71,157.125,51.375,-36.25,0.6312255859375,0.07476806640625,-0.75457763671875,-0.1632080078125,-48.1875,44.5625,10.5,9.1,3.34,-1.46,moving,3
6.1,1848430.771529825,23,3,3,0,3,2.89,0.4,0.91,-6.19,-2.96,2.37,171.8125,70.0,-46.25,0.6339111328125,0.0882568359375,-0.75274658203125,-0.15399169921875,-48.1875,44.5625,10.5,9.09,3.37,-1.45,moving,3
6.11,1848430.771529825,23,3,3,0,3,-0.24,-0.33,2.73,-9.33,-3.74,4.1,171.375,120.5,-56.0,0.6396484375,0.10302734375,-0.747802734375,-0.1448974609375,-48.1875,44.5625,10.5,9.08,3.41,-1.36,moving,3
6.12,1848430.790925048,23,3,3,0,3,-1.65,-0.41,3.16,-10.74,-3.9,4.29,153.4375,207.8125,-68.875,0.6507568359375,0.11865234375,-0.73736572265625,-0.1368408203125,-48.1875,44.5625,10.5,9.09,3.49,-1.13,moving,3
6.13,1848430.790925048,23,3,3,0,3,-2.88,-0.51,3.13,-11.97,-4.12,3.83,115.1875,317.625,-85.9375,0.66864013671875,0.13446044921875,-0.719482421875,-0.13092041015625,-48.1875,44.5625,10.5,9.09,3.61,-0.7,moving,3
6.14,1848430.804859863,23,3,3,0,3,-2.58,-0.39,1.65,-11.64,-4.14,1.73,60.375,418.4375,-92.4375,0.69268798828125,0.14849853515625,-0.6942138671875,-0.1275634765625,-50.0,44.5625,2.875,9.05,3.75,-0.07,moving,3
6.15,1848430.804859863,23,3,3,0,3,-1.79,-0.03,-1.8,-10.79,-3.89,-2.43,4.9375,453.5625,-68.0,0.71875,0.1578369140625,-0.66546630859375,-0.1253662109375,-50.0,44.5625,2.875,8.99,3.86,0.63,moving,3
6.16,1848430.835500366,23,3,3,0,3,-1.17,-0.2,-3.76,-10.09,-4.08,-5.05,-44.625,401.125,-16.0,0.74200439453125,0.16021728515625,-0.63916015625,-0.1234130859375,-50.0,44.5625,2.875,8.91,3.87,1.28,moving,3
6.17,1848430.835500366,23,3,3,0,3,-0.23,0.08,-5.08,-9.11,-3.69,-6.86,-88.125,278.1875,50.1875,0.759033203125,0.1546630859375,-0.6207275390625,-0.12115478515625,-50.0,44.5625,2.875,8.87,3.77,1.78,moving,3
6.18,1848430.853132771,23,3,3,0,3,0.26,-0.14,-6.15,-8.63,-3.73,-8.17,-95.875,114.375,102.6875,0.7674560546875,0.14398193359375,-0.61346435546875,-0.11798095703125,-50.0,44.5625,2.875,8.9,3.58,2.01,moving,3
6.19,1848430.853132771,23,3,3,0,3,1.56,-1.35,-7.84,-7.43,-4.72,-9.8,-39.3125,-50.4375,126.0,0.7664794921875,0.13409423828125,-0.61798095703125,-0.11224365234375,-50.0,42.0625,-15.0625,8.99,3.37,1.96,moving,3
6.2,1848430.864464599,23,3,3,0,3,2.26,-1.12,-7.77,-6.87,-4.3,-9.34,67.625,-221.25,140.0,0.75494384765625,0.12884521484375,-0.63494873046875,-0.101806640625,-50.0,42.0625,-15.0625,9.14,3.17,1.57,moving,3
6.21,1848430.864464599,23,3,3,0,3,3.15,-0.22,-7.6,-6.15,-3.18,-8.46,185.9375,-384.125,158.3125,0.73236083984375,0.12884521484375,-0.66314697265625,-0.0853271484375,-50.0,42.0625,-15.0625,9.3,2.96,0.85,moving,3
6.21,1848430.895057779,23,3,3,0,3,3.15,-0.22,-7.6,-6.15,-3.18,-8.46,185.9375,-384.125,158.3125,0.73236083984375,0.12884521484375,-0.66314697265625,-0.0853271484375,-50.0,42.0625,-15.0625,9.3,2.96,0.85,moving,3
6.22,1848430.895057779,23,3,3,0,3,4.65,1.12,-7.48,-4.77,-1.58,-7.36,295.0625,-511.125,166.25,0.69970703125,0.13409423828125,-0.69891357421875,-0.06329345703125,-50.0,42.0625,-15.0625,9.42,2.7,-0.12,moving,3
6.23,1848430.902989379,23,3,3,0,3,8.12,2.73,-8.68,-1.28,0.31,-7.38,393.625,-605.4375,144.875,0.6575927734375,0.1456298828125,-0.73822021484375,-0.0374755859375,-50.0,42.0625,-15.0625,9.41,2.42,-1.29,moving,3
6.24,1848430.902989379,23,3,3,0,3,10.69,2.53,-9.03,1.47,0.44,-6.45,468.625,-677.25,106.3125,0.60675048828125,0.16302490234375,-0.7779541015625,-0.009765625,-46.0,45.6875,-14.6875,9.22,2.08,-2.58,moving,3
6.25,1848430.921395385,23,3,3,0,3,15.65,2.67,-5.19,6.78,0.99,-1.36,488.75,-691.125,81.8125,0.5513916015625,0.1822509765625,-0.81390380859375,0.01788330078125,-46.0,45.6875,-14.6875,8.86,1.68,-3.83,moving,3
6.26,1848430.921395385,23,3,3,0,3,36.56,18.83,1.26,27.97,17.52,5.81,315.0625,-414.5625,95.125,0.5162353515625,0.19110107421875,-0.833984375,0.0382080078125,-46.0,45.6875,-14.6875,8.58,1.31,-4.55,moving,3
6.27,1848430.937541463,23,3,3,0,3,26.57,4.73,-12.03,17.74,3.56,-7.91,-224.875,251.25,208.5,0.53717041015625,0.16485595703125,-0.826416015625,0.035400390625,-46.0,45.6875,-14.6875,8.82,1.16,-4.12,moving,3
6.28,1848430.937541463,23,3,3,0,3,24.47,-2.58,-7.83,15.34,-3.77,-4.47,-422.75,432.25,158.0625,0.57305908203125,0.13214111328125,-0.80859375,0.01849365234375,-46.0,45.6875,-14.6875,9.13,1.19,-3.35,moving,3
6.29,1848430.951123779,23,3,3,0,3,21.96,-4.07,-4.66,12.61,-5.3,-1.97,-329.875,371.5,83.5625,0.602294921875,0.10906982421875,-0.790771484375,0.003662109375,-47.1875,46.75,-6.6875,9.34,1.23,-2.69,moving,3
6.3,1848430.951123779,23,3,3,0,3,20.55,-1.93,-3.48,11.06,-3.21,-1.35,-182.1875,323.125,21.1875,0.6259765625,0.09783935546875,-0.773681640625,-0.00469970703125,-47.1875,46.75,-6.6875,9.48,1.27,-2.12,moving,3
6.31,1848430.985289916,23,3,3,0,3,19.4,0.59,-2.79,9.85,-0.8,-1.07,-10.375,240.5,-79.3125,0.64208984375,0.10272216796875,-0.75970458984375,-0.0076904296875,-47.1875,46.75,-6.6875,9.55,1.4,-1.71,moving,3
6.32,1848430.985289916,23,3,3,0,3,17.74,3.03,-1.62,8.19,1.45,-0.05,136.5,110.0,-121.8125,0.64794921875,0.11846923828125,-0.75244140625,-0.00445556640625,-47.1875,46.75,-6.6875,9.55,1.57,-1.57,moving,3
6.33,1848430.995626708,23,3,3,0,3,15.75,5.96,-0.37,6.24,4.31,1.32,168.8125,-51.625,-74.9375,0.64263916015625,0.1329345703125,-0.7545166015625,0.00189208984375,-47.1875,46.75,-6.6875,9.51,1.64,-1.7,moving,3
6.34,1848430.995626708,23,3,3,0,3,16.41,6.58,-3.18,6.97,4.94,-1.1,33.5,-218.75,-0.8125,0.62774658203125,0.13482666015625,-0.76666259765625,0.00146484375,-41.25,51.75,-7.375,9.44,1.63,-2.07,moving,3
6.35,1848431.015624674,23,3,3,0,3,16.33,2.55,-3.14,6.98,0.91,-0.68,-103.75,-253.375,21.0,0.61181640625,0.12774658203125,-0.78057861328125,-0.00726318359375,-41.25,51.75,-7.375,9.34,1.64,-2.46,moving,3
6.36,1848431.015624674,23,3,3,0,3,15.79,0.28,-2.97,6.52,-1.41,-0.27,-113.75,-166.6875,-5.75,0.60162353515625,0.1219482421875,-0.78924560546875,-0.01715087890625,-41.25,51.75,-7.375,9.27,1.7,-2.7,moving,3
6.37,1848431.041397501,23,3,3,0,3,13.44,-0.37,-3.37,4.19,-2.18,-0.66,-95.5625,-22.5625,-39.0,0.6009521484375,0.11956787109375,-0.78985595703125,-0.02606201171875,-41.25,51.75,-7.375,9.24,1.81,-2.7,moving,3
6.38,1848431.041397501,23,3,3,0,3,9.12,0.37,-2.67,-0.13,-1.56,-0.08,-90.1875,56.1875,-54.4375,0.6055908203125,0.11871337890625,-0.78607177734375,-0.03448486328125,-41.25,51.75,-7.375,9.25,1.94,-2.58,moving,3
6.39,1848431.077338663,23,3,3,0,3,7.72,0.76,-1.56,-1.53,-1.32,0.87,-98.8125,68.6875,-64.8125,0.611083984375,0.1181640625,-0.78143310546875,-0.04400634765625,-44.1875,49.6875,-4.6875,9.26,2.09,-2.44,moving,3
6.4,1848431.077338663,23,3,3,0,3,6.59,0.76,-0.58,-2.67,-1.49,1.69,-108.75,80.375,-76.6875,0.6173095703125,0.11785888671875,-0.77587890625,-0.05462646484375,-44.1875,49.6875,-4.6875,9.26,2.25,-2.27,moving,3
6.41,1848431.087680582,23,3,3,0,3,3.35,0.72,0.99,-5.91,-1.71,3.03,-115.875,116.125,-85.125,0.6258544921875,0.117919921875,-0.76812744140625,-0.06585693359375,-44.1875,49.6875,-4.6875,9.27,2.44,-2.03,moving,3
6.42,1848431.087680582,23,3,3,0,3,1.85,0.69,1.61,-7.43,-1.93,3.31,-119.6875,173.875,-95.5625,0.6380615234375,0.1187744140625,-0.7568359375,-0.0772705078125,-44.1875,49.6875,-4.6875,9.29,2.63,-1.7,moving,3
6.43,1848431.104478556,23,3,3,0,3,0.17,1.4,2.24,-9.12,-1.43,3.49,-123.5,243.6875,-110.375,0.65447998046875,0.12078857421875,-0.74102783203125,-0.08905029296875,-44.1875,49.6875,-4.6875,9.3,2.84,-1.25,moving,3
6.44,1848431.104478556,23,3,3,0,3,-1.9,2.17,3.09,-11.19,-0.89,3.79,-142.75,296.3125,-125.9375,0.673828125,0.123046875,-0.72137451171875,-0.102294921875,-46.375,47.875,-3.5625,9.28,3.07,-0.69,moving,3
6.45,1848431.119007771,23,3,3,0,3,-2.41,2.77,2.8,-11.64,-0.54,2.82,-185.5,353.75,-147.375,0.6962890625,0.12445068359375,-0.69683837890625,-0.11871337890625,-46.375,47.875,-3.5625,9.22,3.32,-0.02,moving,3
6.46,1848431.119007771,23,3,3,0,3,-1.72,2.04,1.82,-10.83,-1.51,1.03,-235.375,416.625,-159.6875,0.7218017578125,0.12408447265625,-0.666748046875,-0.1380615234375,-46.375,47.875,-3.5625,9.1,3.56,0.78,moving,3
6.47,1848431.135713867,23,3,3,0,3,-0.75,1.24,0.05,-9.65,-2.49,-1.62,-284.625,455.125,-154.1875,0.74859619140625,0.1204833984375,-0.63226318359375,-0.15924072265625,-46.375,47.875,-3.5625,8.9,3.74,1.68,moving,3
6.48,1848431.135713867,23,3,3,0,3,-0.75,1.24,0.05,-9.65,-2.49,-1.62,-284.625,455.125,-154.1875,0.74859619140625,0.1204833984375,-0.63226318359375,-0.15924072265625,-46.375,47.875,-3.5625,8.9,3.74,1.68,moving,3
6.48,1848431.145564168,23,3,3,0,3,-0.71,0.7,-1.47,-9.37,-3.12,-3.99,-319.0625,413.0625,-133.75,0.77203369140625,0.11260986328125,-0.59881591796875,-0.1810302734375,-46.375,47.875,-3.5625,8.66,3.83,2.52,moving,3
6.49,1848431.145564168,23,3,3,0,3,-2.57,0.25,-6.68,-11.01,-3.54,-9.91,-334.6875,322.0,-94.5,0.7899169921875,0.10003662109375,-0.5704345703125,-0.2015380859375,-50.0,42.75,-9.6875,8.44,3.8,3.22,moving,3
6.5,1848431.175594523,23,3,3,0,3,-2.84,-0.98,-9.97,-11.14,-4.65,-13.69,-340.9375,182.125,-50.8125,0.80059814453125,0.08221435546875,-0.55108642578125,-0.22027587890625,-50.0,42.75,-9.6875,8.29,3.67,3.71,moving,3
6.51,1848431.175594523,23,3,3,0,3,-1.35,-2.45,-11.6,-9.65,-5.97,-15.45,-303.4375,-35.8125,-30.375,0.8001708984375,0.061767578125,-0.54736328125,-0.2371826171875,-50.0,42.75,-9.6875,8.3,3.51,3.85,moving,3
6.52,1848431.196992024,23,3,3,0,3,0.96,-2.52,-10.88,-7.49,-5.95,-14.45,-180.8125,-269.1875,-23.625,0.7874755859375,0.04473876953125,-0.56207275390625,-0.248779296875,-50.0,42.75,-9.6875,8.46,3.43,3.57,moving,3
6.53,1848431.196992024,23,3,3,0,3,6.83,0.08,-9.34,-1.86,-3.35,-12.26,-5.6875,-434.3125,-5.4375,0.7655029296875,0.03515625,-0.59136962890625,-0.2509765625,-50.0,42.75,-9.6875,8.7,3.43,2.92,moving,3
6.54,1848431.206270751,23,3,3,0,3,12.39,1.35,-11.8,3.41,-2.09,-13.73,158.0625,-585.9375,32.0625,0.73443603515625,0.03118896484375,-0.63323974609375,-0.24212646484375,-50.875,42.0625,-9.6875,8.97,3.45,1.92,moving,3
6.55,1848431.206270751,23,3,3,0,3,19.97,1.54,-15.83,10.77,-1.84,-16.23,303.5625,-849.5,81.125,0.686279296875,0.02813720703125,-0.692138671875,-0.22174072265625,-50.875,42.0625,-9.6875,9.19,3.38,0.39,moving,3
6.56,1848431.242544677,23,3,3,0,3,36.2,3.49,-10.39,27.06,0.38,-8.66,440.6875,-1172.75,140.5,0.61334228515625,0.023193359375,-0.76666259765625,-0.1884765625,-50.875,42.0625,-9.6875,9.13,3.11,-1.73,moving,3
6.57,1848431.242544677,23,3,3,0,3,39.25,15.26,5.69,30.57,12.62,9.43,478.125,-1136.6875,154.1875,0.53570556640625,0.0196533203125,-0.830810546875,-0.149658203125,-50.875,42.0625,-9.6875,8.67,2.64,-3.73,moving,3
6.58,1848431.25320756,23,3,3,0,3,37.68,31.1,8.74,29.16,28.64,12.93,216.5,-235.75,24.9375,0.518310546875,0.02484130859375,-0.8443603515625,-0.13311767578125,-50.875,42.0625,-9.6875,8.51,2.45,-4.18,moving,3
6.59,1848431.25320756,23,3,3,0,3,18.34,11.13,-14.89,9.34,8.41,-12.11,-178.9375,874.75,-102.0,0.58013916015625,0.03436279296875,-0.80010986328125,-0.1485595703125,-48.6875,43.875,12.0,9.0,2.72,-2.77,moving,3
6.6,1848431.269158365,23,3,3,0,3,5.59,3.89,-6.07,-3.61,0.82,-4.68,-68.0,849.0625,-202.0,0.6351318359375,0.05584716796875,-0.75347900390625,-0.1605224609375,-48.6875,43.875,12.0,9.21,3.06,-1.39,moving,3
6.61,1848431.269158365,23,3,3,0,3,6.36,7.43,-3.63,-2.86,4.18,-3.1,-5.9375,528.5625,-111.75,0.66754150390625,0.0701904296875,-0.72283935546875,-0.164306640625,-48.6875,43.875,12.0,9.23,3.24,-0.53,moving,3
6.62,1848431.283215698,23,3,3,0,3,8.34,9.53,1.42,-0.9,6.28,1.67,-4.3125,181.75,-1.125,0.67889404296875,0.0726318359375,-0.71209716796875,-0.16351318359375,-48.6875,43.875,12.0,9.24,3.25,-0.24,moving,3
6.63,1848431.283215698,23,3,3,0,3,11.44,10.47,8.69,2.18,7.27,9.07,-19.3125,-93.25,33.25,0.67364501953125,0.068115234375,-0.71759033203125,-0.163330078125,-48.6875,43.875,12.0,9.26,3.19,-0.38,stop,3
6.64,1848431.31189506,23,3,3,0,3,11.34,4.63,3.14,2.07,1.46,3.64,-27.5625,-80.3125,23.4375,0.6690673828125,0.0638427734375,-0.7220458984375,-0.1641845703125,-48.5625,45.0625,3.25,9.26,3.16,-0.49,stop,3
6.65,1848431.31189506,23,3,3,0,3,9.72,2.57,1.4,0.46,-0.61,1.88,12.0,21.3125,-18.3125,0.6700439453125,0.0660400390625,-0.72088623046875,-0.16436767578125,-48.5625,45.0625,3.25,9.26,3.19,-0.47,stop,3
6.66,1848431.347550496,23,3,3,0,3,8.1,2.07,0.11,-1.13,-1.18,0.46,77.3125,98.875,-44.8125,0.67510986328125,0.0748291015625,-0.7159423828125,-0.16156005859375,-48.5625,45.0625,3.25,9.24,3.25,-0.35,stop,3
6.67,1848431.347550496,23,3,3,0,3,6.24,1.97,-0.26,-2.98,-1.33,-0.06,117.625,140.5625,-33.0625,0.6824951171875,0.0858154296875,-0.70904541015625,-0.1552734375,-48.5625,45.0625,3.25,9.22,3.3,-0.19,stop,3
6.68,1848431.35757434,23,3,3,0,3,3.33,0.43,0.52,-5.88,-2.88,0.56,110.0,139.0,-7.8125,0.6900634765625,0.0947265625,-0.70208740234375,-0.14788818359375,-48.5625,45.0625,3.25,9.22,3.31,-0.03,stop,3
6.69,1848431.35757434,23,3,3,0,3,2.86,0.57,0.19,-6.36,-2.72,0.07,59.5,119.1875,6.25,0.6968994140625,0.0994873046875,-0.69573974609375,-0.14288330078125,-49.25,44.6875,0.875,9.23,3.3,0.11,stop,3
6.7,1848431.37685319,23,3,3,0,3,2.86,0.83,-0.3,-6.35,-2.46,-0.56,10.0625,96.5,1.6875,0.70263671875,0.1011962890625,-0.69000244140625,-0.14129638671875,-49.25,44.6875,0.875,9.22,3.3,0.26,stop,3
6.71,1848431.37685319,23,3,3,0,3,2.7,1.89,-1.38,-6.51,-1.42,-1.77,-7.5,70.875,-4.5625,0.7069091796875,0.1019287109375,-0.685546875,-0.14141845703125,-49.25,44.6875,0.875,9.22,3.31,0.38,stop,3
6.72,1848431.389341064,23,3,3,0,3,2.85,2.17,-2.12,-6.35,-1.14,-2.57,3.25,42.3125,-1.5625,0.7093505859375,0.10272216796875,-0.68292236328125,-0.14093017578125,-49.25,44.6875,0.875,9.21,3.31,0.45,stop,3
6.73,1848431.389341064,23,3,3,0,3,3.49,2.15,-2.54,-5.72,-1.15,-2.97,30.375,2.0,4.3125,0.709228515625,0.1043701171875,-0.6832275390625,-0.13885498046875,-49.25,44.6875,0.875,9.21,3.31,0.43,stop,3
6.74,1848431.405759602,23,3,3,0,3,3.49,2.15,-2.54,-5.72,-1.15,-2.97,30.375,2.0,4.3125,0.709228515625,0.1043701171875,-0.6832275390625,-0.13885498046875,-49.25,44.6875,0.875,9.21,3.31,0.43,stop,3
6.74,1848431.405759602,23,3,3,0,3,4.38,2.22,-2.73,-4.84,-1.07,-3.06,63.3125,-43.0,9.1875,0.70611572265625,0.10723876953125,-0.686767578125,-0.1348876953125,-48.1875,44.375,-5.875,9.22,3.3,0.33,stop,3
6.75,1848431.416695109,23,3,3,0,3,7.25,2.67,-3.78,-1.97,-0.62,-3.93,98.125,-72.625,8.4375,0.700927734375,0.1119384765625,-0.69244384765625,-0.12921142578125,-48.1875,44.375,-5.875,9.23,3.29,0.15,stop,3
6.76,1848431.416695109,23,3,3,0,3,9.09,2.94,-3.76,-0.14,-0.34,-3.68,134.5,-101.5625,6.1875,0.69342041015625,0.11865234375,-0.7001953125,-0.12164306640625,-48.1875,44.375,-5.875,9.23,3.28,-0.08,stop,3
6.77,1848431.451565999,23,3,3,0,3,11.33,3.35,-3.52,2.09,0.09,-3.14,158.25,-130.25,9.75,0.68377685546875,0.126220703125,-0.70977783203125,-0.11273193359375,-48.1875,44.375,-5.875,9.23,3.26,-0.38,stop,3
6.78,1848431.451565999,23,3,3,0,3,13.05,3.89,-3.0,3.82,0.68,-2.27,163.0,-153.0625,23.8125,0.672607421875,0.13299560546875,-0.72064208984375,-0.1029052734375,-48.1875,44.375,-5.875,9.23,3.2,-0.72,stop,3
6.79,1848431.461328043,23,3,3,0,3,16.89,6.67,2.97,7.66,3.55,4.01,141.1875,-144.625,40.5625,0.66204833984375,0.13739013671875,-0.73077392578125,-0.09332275390625,-49.25,43.25,-5.0625,9.23,3.12,-1.03,stop,3
6.8,1848431.461328043,23,3,3,0,3,16.65,6.64,1.86,7.4,3.6,3.02,67.375,-52.25,40.75,0.658203125,0.1383056640625,-0.73486328125,-0.0872802734375,-49.25,43.25,-5.0625,9.25,3.04,-1.15,stop,3
6.81,1848431.476533366,23,3,3,0,3,13.2,2.88,-0.93,3.92,-0.1,0.08,-36.8125,75.75,36.875,0.66375732421875,0.1343994140625,-0.73065185546875,-0.08660888671875,-49.25,43.25,-5.0625,9.28,2.99,-1.01,stop,3
6.82,1848431.476533366,23,3,3,0,3,11.49,1.39,-1.79,2.18,-1.56,-1.0,-48.3125,123.0,23.0,0.6722412109375,0.13104248046875,-0.72344970703125,-0.0869140625,-49.25,43.25,-5.0625,9.31,2.96,-0.79,stop,3
6.83,1848431.534622518,23,3,3,0,3,10.06,1.09,-0.85,0.73,-1.86,-0.22,-9.0,103.0625,2.1875,0.6788330078125,0.13116455078125,-0.71734619140625,-0.086181640625,-49.25,43.25,-5.0625,9.32,2.95,-0.62,stop,3
6.84,1848431.534622518,23,3,3,0,3,9.78,1.82,-0.1,0.46,-1.14,0.43,40.25,64.875,-14.25,0.6822509765625,0.13494873046875,-0.713623046875,-0.08380126953125,-48.1875,44.6875,-7.0625,9.32,2.97,-0.53,stop,3
6.85,1848431.542456583,23,3,3,0,3,9.49,2.76,0.46,0.16,-0.23,0.97,69.5,39.5,-14.5625,0.68377685546875,0.1402587890625,-0.71160888671875,-0.079833984375,-48.1875,44.6875,-7.0625,9.32,2.99,-0.51,stop,3
6.86,1848431.542456583,23,3,3,0,3,9.06,3.16,0.59,-0.25,0.16,1.11,66.6875,19.0,-9.9375,0.68402099609375,0.14501953125,-0.7108154296875,-0.0760498046875,-48.1875,44.6875,-7.0625,9.32,3.0,-0.51,stop,3
6.87,1848431.54970699,23,3,3,0,3,8.38,2.75,0.02,-0.93,-0.25,0.56,43.1875,0.75,-3.4375,0.6834716796875,0.1478271484375,-0.7110595703125,-0.0736083984375,-48.1875,44.6875,-7.0625,9.31,3.0,-0.53,stop,3
6.88,1848431.54970699,23,3,3,0,3,8.27,2.57,-0.19,-1.04,-0.42,0.37,22.625,-11.25,3.5,0.6824951171875,0.14886474609375,-0.7119140625,-0.0721435546875,-48.1875,44.6875,-7.0625,9.31,3.0,-0.56,stop,3
6.89,1848431.57124174,23,3,3,0,3,8.19,2.55,-0.19,-1.12,-0.43,0.41,16.875,-17.625,6.5625,0.68121337890625,0.1494140625,-0.71319580078125,-0.0709228515625,-48.1875,44.6875,-11.1875,9.32,2.98,-0.6,stop,3
6.9,1848431.57124174,23,3,3,0,3,8.06,2.97,0.0,-1.25,0.0,0.63,25.0625,-9.9375,4.0625,0.68023681640625,0.15057373046875,-0.7139892578125,-0.0692138671875,-48.1875,44.6875,-11.1875,9.32,2.97,-0.63,stop,3
6.91,1848431.580852579,23,3,3,0,3,7.86,3.14,-0.12,-1.45,0.16,0.51,35.3125,8.0,-1.0,0.68023681640625,0.15277099609375,-0.7137451171875,-0.0670166015625,-48.1875,44.6875,-11.1875,9.32,2.97,-0.64,stop,3
6.92,1848431.580852579,23,3,3,0,3,7.84,3.05,-0.36,-1.47,0.08,0.26,38.75,17.375,-4.3125,0.6807861328125,0.15545654296875,-0.712890625,-0.0645751953125,-48.1875,44.6875,-11.1875,9.32,2.97,-0.63,stop,3
6.93,1848431.602012329,23,3,3,0,3,8.08,2.86,-0.53,-1.23,-0.11,0.09,36.0625,12.0,-2.75,0.68096923828125,0.1578369140625,-0.71234130859375,-0.0623779296875,-48.1875,44.6875,-11.1875,9.32,2.97,-0.63,stop,3
6.94,1848431.602012329,23,3,3,0,3,9.14,2.69,-0.64,-0.17,-0.27,0.02,29.25,-6.75,2.0625,0.68017578125,0.159423828125,-0.71295166015625,-0.060546875,-47.75,44.0,-10.875,9.32,2.97,-0.66,stop,3
6.95,1848431.630828694,23,3,3,0,3,9.69,2.64,-0.7,0.37,-0.31,0.0,21.6875,-22.25,5.75,0.678466796875,0.1602783203125,-0.7144775390625,-0.05914306640625,-47.75,44.0,-10.875,9.32,2.96,-0.7,stop,3
6.96,1848431.630828694,23,3,3,0,3,10.08,2.62,-0.82,0.75,-0.32,-0.07,16.0625,-22.375,6.3125,0.6768798828125,0.16070556640625,-0.71600341796875,-0.05804443359375,-47.75,44.0,-10.875,9.32,2.94,-0.75,stop,3
6.97,1848431.647008097,23,3,3,0,3,10.24,2.6,-0.96,0.92,-0.33,-0.18,13.4375,-10.0625,4.875,0.67608642578125,0.1611328125,-0.71673583984375,-0.05706787109375,-47.75,44.0,-10.875,9.32,2.93,-0.77,stop,3
6.98,1848431.647008097,23,3,3,0,3,10.11,2.46,-0.96,0.78,-0.47,-0.18,11.6875,3.9375,3.25,0.6761474609375,0.16168212890625,-0.71661376953125,-0.05609130859375,-47.75,44.0,-10.875,9.32,2.93,-0.77,stop,3
6.99,1848431.658828939,23,3,3,0,3,9.99,2.38,-0.91,0.66,-0.54,-0.14,10.6875,12.1875,1.8125,0.6767578125,0.1622314453125,-0.71600341796875,-0.05517578125,-47.75,44.0,-12.0,9.32,2.92,-0.76,stop,3
7.0,1848431.658828939,23,3,3,0,3,9.94,2.35,-0.84,0.61,-0.56,-0.09,12.75,14.5,2.0625,0.677490234375,0.16290283203125,-0.71527099609375,-0.05401611328125,-47.75,44.0,-12.0,9.33,2.92,-0.74,stop,3
7.01,1848431.674432902,23,3,3,0,3,9.98,2.42,-0.73,0.65,-0.48,0.01,16.5625,9.0625,3.25,0.67779541015625,0.16375732421875,-0.71484375,-0.05267333984375,-47.75,44.0,-12.0,9.33,2.91,-0.74,stop,3
7.02,1848431.674432902,23,3,3,0,3,9.98,2.42,-0.73,0.65,-0.48,0.01,16.5625,9.0625,3.25,0.67779541015625,0.16375732421875,-0.71484375,-0.05267333984375,-47.75,44.0,-12.0,9.33,2.91,-0.74,stop,3
7.02,1848431.701303996,23,3,3,0,3,10.09,2.59,-0.38,0.76,-0.3,0.36,18.4375,-1.3125,4.9375,0.67742919921875,0.16455078125,-0.715087890625,-0.05120849609375,-47.75,44.0,-12.0,9.33,2.9,-0.75,stop,3
7.03,1848431.701303996,23,3,3,0,3,10.04,2.58,-0.28,0.7,-0.3,0.49,18.1875,-8.25,6.0,0.67669677734375,0.16522216796875,-0.71575927734375,-0.04986572265625,-47.75,44.0,-12.0,9.33,2.89,-0.77,stop,3
7.04,1848431.707438069,23,3,3,0,3,9.9,2.53,-0.28,0.56,-0.34,0.51,17.4375,-8.5,5.5625,0.6759033203125,0.16583251953125,-0.7164306640625,-0.048583984375,-46.75,44.0,-13.5625,9.33,2.88,-0.8,stop,3
7.05,1848431.707438069,23,3,3,0,3,9.61,2.4,-0.41,0.26,-0.46,0.4,18.0625,-6.9375,5.5,0.67523193359375,0.16650390625,-0.717041015625,-0.04718017578125,-46.75,44.0,-13.5625,9.34,2.86,-0.82,stop,3
7.06,1848431.736671712,23,3,3,0,3,9.52,2.39,-0.55,0.17,-0.45,0.28,18.25,-9.9375,6.4375,0.67431640625,0.16717529296875,-0.7177734375,-0.04583740234375,-46.75,44.0,-13.5625,9.34,2.85,-0.84,stop,3
7.07,1848431.736671712,23,3,3,0,3,9.52,2.43,-0.48,0.18,-0.4,0.39,18.0625,-14.9375,8.0,0.67315673828125,0.16766357421875,-0.7188720703125,-0.04443359375,-46.75,44.0,-13.5625,9.34,2.84,-0.88,stop,3
7.08,1848431.745400512,23,3,3,0,3,9.54,2.54,-0.32,0.2,-0.27,0.59,16.0,-18.625,9.4375,0.67181396484375,0.16796875,-0.72015380859375,-0.04315185546875,-46.75,44.0,-13.5625,9.34,2.82,-0.91,stop,3
7.09,1848431.745400512,23,3,3,0,3,9.53,2.51,-0.56,0.18,-0.28,0.38,9.625,-17.375,10.5,0.67059326171875,0.16778564453125,-0.72137451171875,-0.04217529296875,-47.5,45.0625,-12.75,9.34,2.8,-0.95,stop,3
7.1,1848431.778312052,23,3,3,0,3,9.57,2.38,-0.71,0.22,-0.39,0.26,2.625,-14.5,10.375,0.669677734375,0.167236328125,-0.722412109375,-0.0416259765625,-47.5,45.0625,-12.75,9.35,2.78,-0.97,stop,3
7.11,1848431.778312052,23,3,3,0,3,9.69,2.38,-0.71,0.2,0.0,-0.08,0.0625,-12.3125,9.5,0.68328857421875,0.1502685546875,-0.7139892578125,-0.02679443359375,-47.5,45.0625,-12.75,9.48,2.38,-0.63,stop,3
7.12,1848431.795051432,23,3,3,0,3,9.79,2.42,-0.63,0.3,0.04,0.01,-1.375,-7.6875,7.375,0.682861328125,0.14971923828125,-0.714599609375,-0.02655029296875,-47.5,45.0625,-12.75,9.49,2.37,-0.64,stop,3
7.13,1848431.795051432,23,3,3,0,3,9.62,2.26,-0.74,0.13,-0.1,-0.09,-4.75,1.9375,4.0625,0.68304443359375,0.149169921875,-0.71453857421875,-0.02655029296875,-47.5,45.0625,-12.75,9.49,2.37,-0.64,stop,3
7.14,1848431.805813436,23,3,3,0,3,9.61,2.22,-0.65,0.11,-0.14,-0.03,-7.1875,8.875,0.9375,0.68365478515625,0.148681640625,-0.7139892578125,-0.02679443359375,-47.1875,45.0625,-12.0,9.49,2.36,-0.62,stop,3
7.15,1848431.805813436,23,3,3,0,3,9.67,2.16,-0.54,0.18,-0.2,0.06,-7.3125,8.9375,-0.6875,0.68426513671875,0.1483154296875,-0.71343994140625,-0.02716064453125,-47.1875,45.0625,-12.0,9.49,2.37,-0.6,stop,3
7.16,1848431.841474935,23,3,3,0,3,9.7,2.17,-0.5,0.2,-0.19,0.09,-5.5625,6.875,-1.4375,0.684814453125,0.14801025390625,-0.7130126953125,-0.0274658203125,-47.1875,45.0625,-12.0,9.49,2.37,-0.59,stop,3
7.17,1848431.841474935,23,3,3,0,3,9.69,2.15,-0.51,0.19,-0.21,0.06,-4.625,5.0,-1.0,0.6851806640625,0.14776611328125,-0.71270751953125,-0.0277099609375,-47.1875,45.0625,-12.0,9.49,2.37,-0.58,stop,3
7.18,1848431.853867472,23,3,3,0,3,9.6,2.15,-0.62,0.1,-0.21,-0.04,-5.25,2.8125,-0.0625,0.6854248046875,0.14739990234375,-0.7125244140625,-0.0279541015625,-47.1875,45.0625,-12.0,9.49,2.37,-0.57,stop,3
7.19,1848431.853867472,23,3,3,0,3,9.57,2.13,-0.66,0.07,-0.23,-0.09,-5.25,0.5625,0.6875,0.68548583984375,0.14697265625,-0.7125244140625,-0.02813720703125,-46.375,44.6875,-12.0,9.49,2.36,-0.57,stop,3
7.2,1848431.866983276,23,3,3,0,3,9.55,2.17,-0.57,0.05,-0.19,0.0,-3.3125,-1.625,1.4375,0.6854248046875,0.14666748046875,-0.712646484375,-0.0281982421875,-46.375,44.6875,-12.0,9.49,2.36,-0.57,stop,3
7.21,1848431.866983276,23,3,3,0,3,9.57,2.23,-0.5,0.07,-0.13,0.07,-0.9375,-2.625,1.375,0.685302734375,0.146484375,-0.71282958984375,-0.0281982421875,-46.375,44.6875,-12.0,9.5,2.36,-0.58,stop,3
7.22,1848431.902330851,23,3,3,0,3,9.56,2.23,-0.51,0.06,-0.12,0.06,0.75,-2.125,1.375,0.68511962890625,0.1463623046875,-0.7130126953125,-0.028076171875,-46.375,44.6875,-12.0,9.5,2.35,-0.58,stop,3
7.23,1848431.902330851,23,3,3,0,3,9.59,2.22,-0.56,0.09,-0.13,0.01,2.875,-1.8125,1.125,0.68499755859375,0.146484375,-0.713134765625,-0.02777099609375,-46.375,44.6875,-12.0,9.5,2.35,-0.58,stop,3
7.24,1848431.911227539,23,3,3,0,3,9.59,2.24,-0.53,0.09,-0.11,0.05,5.5,-1.8125,0.75,0.684814453125,0.146728515625,-0.7132568359375,-0.02740478515625,-46.375,44.6875,-12.375,9.5,2.35,-0.59,stop,3
7.25,1848431.911227539,23,3,3,0,3,9.56,2.29,-0.56,0.06,-0.05,0.03,7.625,-1.375,0.3125,0.68463134765625,0.14715576171875,-0.71337890625,-0.02691650390625,-46.375,44.6875,-12.375,9.5,2.35,-0.59,stop,3
7.26,1848431.926248983,23,3,3,0,3,9.52,2.33,-0.62,0.02,-0.01,-0.02,7.1875,-0.3125,0.0625,0.68450927734375,0.1475830078125,-0.71337890625,-0.0264892578125,-46.375,44.6875,-12.375,9.5,2.35,-0.6,stop,3
7.27,1848431.926248983,23,3,3,0,3,9.48,2.34,-0.65,-0.01,0.0,-0.05,5.8125,0.75,0.3125,0.68450927734375,0.14788818359375,-0.71337890625,-0.02606201171875,-46.375,44.6875,-12.375,9.5,2.35,-0.6,stop,3
7.28,1848431.960842814,23,3,3,0,3,9.39,2.35,-0.76,-0.11,0.0,-0.15,4.6875,1.1875,0.75,0.68450927734375,0.14813232421875,-0.71331787109375,-0.02569580078125,-46.375,44.6875,-12.375,9.5,2.34,-0.6,stop,3
7.29,1848431.960842814,23,3,3,0,3,9.38,2.35,-0.76,-0.12,0.0,-0.16,3.9375,2.0625,1.3125,0.6845703125,0.1483154296875,-0.7132568359375,-0.025390625,-47.1875,44.6875,-12.0,9.5,2.34,-0.6,stop,3
7.3,1848431.973869181,23,3,3,0,3,9.42,2.37,-0.76,-0.07,0.03,-0.16,3.6875,1.875,2.0625,0.6845703125,0.1484375,-0.71319580078125,-0.02496337890625,-47.1875,44.6875,-12.0,9.5,2.34,-0.6,stop,3
7.31,1848431.973869181,23,3,3,0,3,9.48,2.42,-0.72,-0.02,0.08,-0.12,2.9375,1.375,2.75,0.68463134765625,0.1484375,-0.71319580078125,-0.02459716796875,-47.1875,44.6875,-12.0,9.5,2.33,-0.6,stop,3
7.32,1848431.986475871,23,3,3,0,3,9.58,2.44,-0.63,0.08,0.11,-0.03,0.8125,2.125,3.6875,0.68475341796875,0.14825439453125,-0.713134765625,-0.02435302734375,-47.1875,44.6875,-12.0,9.5,2.33,-0.59,stop,3
7.33,1848431.986475871,23,3,3,0,3,9.64,2.46,-0.53,0.13,0.14,0.05,-1.5625,2.75,4.4375,0.6849365234375,0.14788818359375,-0.7130126953125,-0.02410888671875,-47.1875,44.6875,-12.0,9.5,2.32,-0.59,stop,3
7.34,1848432.017581584,23,3,3,0,3,9.66,2.48,-0.47,0.15,0.16,0.11,-3.3125,3.625,4.6875,0.6851806640625,0.1474609375,-0.712890625,-0.0240478515625,-47.1875,44.6875,-12.6875,9.51,2.31,-0.58,stop,3
7.35,1848432.017581584,23,3,3,0,3,9.55,2.45,-0.67,0.04,0.14,-0.09,-4.5625,4.875,4.5,0.685546875,0.14691162109375,-0.712646484375,-0.02398681640625,-47.1875,44.6875,-12.6875,9.51,2.31,-0.57,stop,3
7.36,1848432.051198405,23,3,3,0,3,9.5,2.39,-0.88,-0.01,0.08,-0.31,-4.375,5.0,4.25,0.6859130859375,0.14642333984375,-0.71240234375,-0.02398681640625,-47.1875,44.6875,-12.6875,9.51,2.3,-0.56,stop,3
7.37,1848432.051198405,23,3,3,0,3,9.5,2.38,-0.84,-0.01,0.08,-0.28,-0.875,3.5,3.3125,0.68603515625,0.146240234375,-0.71234130859375,-0.0238037109375,-47.1875,44.6875,-12.6875,9.51,2.29,-0.56,stop,3
7.38,1848432.061298787,23,3,3,0,3,9.49,2.46,-0.73,-0.02,0.16,-0.16,2.9375,3.1875,2.375,0.6861572265625,0.14630126953125,-0.71221923828125,-0.02349853515625,-47.1875,44.6875,-12.6875,9.51,2.29,-0.56,stop,3
7.39,1848432.061298787,23,3,3,0,3,9.42,2.39,-0.67,-0.09,0.1,-0.11,1.125,4.375,2.125,0.68634033203125,0.14630126953125,-0.7120361328125,-0.02325439453125,-46.375,45.0625,-13.0625,9.51,2.29,-0.55,stop,3
7.4,1848432.081913859,23,3,3,0,3,9.35,2.26,-0.75,-0.16,-0.02,-0.2,-3.75,5.125,2.4375,0.6866455078125,0.14593505859375,-0.7117919921875,-0.0233154296875,-46.375,45.0625,-13.0625,9.51,2.29,-0.54,stop,3
7.41,1848432.081913859,23,3,3,0,3,9.34,2.19,-0.86,-0.17,-0.09,-0.32,-6.75,5.3125,2.5625,0.68701171875,0.14544677734375,-0.7115478515625,-0.02349853515625,-46.375,45.0625,-13.0625,9.52,2.28,-0.53,stop,3
7.42,1848432.096122843,23,3,3,0,3,9.45,2.25,-0.72,-0.06,-0.02,-0.19,-3.8125,2.75,2.5,0.6871337890625,0.14508056640625,-0.71148681640625,-0.0235595703125,-46.375,45.0625,-13.0625,9.52,2.28,-0.53,stop,3
7.43,1848432.096122843,23,3,3,0,3,9.54,2.47,-0.54,0.02,0.19,0.0,-0.25,0.4375,2.5,0.6871337890625,0.1448974609375,-0.7115478515625,-0.0234375,-46.375,45.0625,-13.0625,9.52,2.27,-0.53,stop,3
7.44,1848432.108478882,23,3,3,0,3,9.58,2.36,-0.59,0.05,0.08,-0.06,-0.75,-0.1875,2.125,0.6871337890625,0.144775390625,-0.71160888671875,-0.0233154296875,-46.75,45.375,-12.6875,9.52,2.27,-0.53,stop,3
7.45,1848432.108478882,23,3,3,0,3,9.61,2.35,-0.61,0.09,0.07,-0.07,-0.6875,-1.0625,1.5,0.68707275390625,0.1446533203125,-0.711669921875,-0.0233154296875,-46.75,45.375,-12.6875,9.52,2.27,-0.53,stop,3
7.46,1848432.135932739,23,3,3,0,3,9.62,2.39,-0.6,0.1,0.12,-0.06,0.75,-1.125,0.625,0.68695068359375,0.1446533203125,-0.7117919921875,-0.02325439453125,-46.75,45.375,-12.6875,9.52,2.27,-0.54,stop,3
7.47,1848432.135932739,23,3,3,0,3,9.59,2.4,-0.6,0.07,0.13,-0.06,1.125,0.5625,-0.375,0.68695068359375,0.14471435546875,-0.7117919921875,-0.023193359375,-46.75,45.375,-12.6875,9.52,2.27,-0.54,stop,3
7.48,1848432.156258992,23,3,3,0,3,9.56,2.38,-0.62,0.04,0.11,-0.08,-0.0625,1.25,-0.875,0.68701171875,0.144775390625,-0.711669921875,-0.02325439453125,-46.75,45.375,-12.6875,9.52,2.27,-0.53,stop,3
7.49,1848432.156258992,23,3,3,0,3,9.52,2.36,-0.67,0.0,0.08,-0.14,-0.875,0.875,-1.1875,0.68707275390625,0.14483642578125,-0.71160888671875,-0.02337646484375,-46.75,45.375,-12.375,9.52,2.27,-0.53,stop,3
7.5,1848432.1688573,23,3,3,0,3,9.48,2.38,-0.76,-0.04,0.1,-0.22,0.25,0.125,-1.75,0.68701171875,0.14495849609375,-0.711669921875,-0.02349853515625,-46.75,45.375,-12.375,9.52,2.28,-0.53,stop,3
7.51,1848432.1688573,23,3,3,0,3,9.43,2.4,-0.84,-0.08,0.12,-0.29,2.0625,-1.0,-2.1875,0.68682861328125,0.145263671875,-0.71173095703125,-0.0235595703125,-46.75,45.375,-12.375,9.52,2.28,-0.54,stop,3
7.52,1848432.198800659,23,3,3,0,3,9.43,2.39,-0.88,-0.08,0.1,-0.32,3.625,-1.875,-2.6875,0.6865234375,0.145751953125,-0.7119140625,-0.0235595703125,-46.75,45.375,-12.375,9.51,2.29,-0.55,stop,3
7.53,1848432.198800659,23,3,3,0,3,9.4,2.48,-0.88,-0.11,0.18,-0.32,4.625,-2.3125,-2.75,0.68621826171875,0.14630126953125,-0.712158203125,-0.02349853515625,-46.75,45.375,-12.375,9.51,2.29,-0.56,stop,3
7.54,1848432.213517863,23,3,3,0,3,9.42,2.56,-0.86,-0.09,0.26,-0.28,4.625,-3.3125,-3.0625,0.685791015625,0.1468505859375,-0.71246337890625,-0.0235595703125,-47.1875,45.0625,-12.75,9.51,2.3,-0.57,stop,3
7.55,1848432.213517863,23,3,3,0,3,9.45,2.6,-0.84,-0.05,0.29,-0.26,3.75,-5.0,-2.625,0.685302734375,0.1473388671875,-0.71282958984375,-0.023681640625,-47.1875,45.0625,-12.75,9.51,2.31,-0.58,stop,3
7.56,1848432.228554281,23,3,3,0,3,9.47,2.64,-0.8,-0.03,0.32,-0.2,2.75,-6.6875,-2.25,0.6846923828125,0.1478271484375,-0.7132568359375,-0.0238037109375,-47.1875,45.0625,-12.75,9.5,2.31,-0.6,stop,3
7.57,1848432.228554281,23,3,3,0,3,9.49,2.71,-0.79,-0.01,0.39,-0.18,1.75,-8.375,-1.8125,0.68402099609375,0.14813232421875,-0.71380615234375,-0.02410888671875,-47.1875,45.0625,-12.75,9.5,2.32,-0.61,stop,3
7.58,1848432.260408651,23,3,3,0,3,9.53,2.77,-0.88,0.03,0.44,-0.24,1.375,-10.0,-1.0625,0.68328857421875,0.14849853515625,-0.7144775390625,-0.02435302734375,-47.1875,45.0625,-12.75,9.5,2.33,-0.63,stop,3
7.59,1848432.260408651,23,3,3,0,3,9.49,2.74,-0.94,0.0,0.4,-0.28,1.625,-11.25,-0.6875,0.68243408203125,0.1488037109375,-0.7152099609375,-0.024658203125,-46.375,45.0625,-12.375,9.5,2.33,-0.66,stop,3
7.6,1848432.275782389,23,3,3,0,3,9.49,2.74,-0.9,0.0,0.39,-0.22,3.0,-11.4375,-1.0,0.68157958984375,0.14923095703125,-0.7159423828125,-0.02484130859375,-46.375,45.0625,-12.375,9.49,2.34,-0.68,stop,3
7.61,1848432.275782389,23,3,3,0,3,9.47,2.73,-0.91,-0.01,0.38,-0.2,3.8125,-9.625,-1.5625,0.6807861328125,0.14971923828125,-0.716552734375,-0.0250244140625,-46.375,45.0625,-12.375,9.49,2.35,-0.7,stop,3
7.62,1848432.292042887,23,3,3,0,3,9.48,2.59,-0.98,0.0,0.24,-0.25,2.5,-8.0,-1.8125,0.68011474609375,0.150146484375,-0.71710205078125,-0.02520751953125,-46.375,45.0625,-12.375,9.49,2.35,-0.72,stop,3
7.63,1848432.292042887,23,3,3,0,3,9.52,2.58,-0.95,0.04,0.21,-0.21,1.1875,-7.5,-1.375,0.6795654296875,0.150390625,-0.71759033203125,-0.02545166015625,-46.375,45.0625,-12.375,9.48,2.36,-0.73,stop,3
7.64,1848432.321241374,23,3,3,0,3,9.55,2.6,-0.84,0.07,0.23,-0.09,0.25,-7.125,-1.25,0.67901611328125,0.1505126953125,-0.718017578125,-0.02569580078125,-46.75,45.0625,-12.375,9.48,2.36,-0.75,stop,3
7.65,1848432.321241374,23,3,3,0,3,9.52,2.63,-0.8,0.03,0.26,-0.04,-0.6875,-6.6875,-1.125,0.6785888671875,0.150634765625,-0.71844482421875,-0.02593994140625,-46.75,45.0625,-12.375,9.48,2.37,-0.76,stop,3
7.66,1848432.334847941,23,3,3,0,3,9.5,2.62,-0.92,0.01,0.25,-0.14,-1.25,-6.8125,-1.3125,0.67816162109375,0.15069580078125,-0.7188720703125,-0.0262451171875,-46.75,45.0625,-12.375,9.48,2.37,-0.77,stop,3
7.67,1848432.334847941,23,3,3,0,3,9.47,2.63,-0.91,0.0,0.25,-0.12,-0.5625,-6.875,-1.5,0.67767333984375,0.15081787109375,-0.71923828125,-0.02655029296875,-46.75,45.0625,-12.375,9.48,2.37,-0.78,stop,3
7.68,1848432.350901245,23,3,3,0,3,9.46,2.62,-0.94,-0.01,0.23,-0.14,0.0,-6.3125,-1.875,0.67724609375,0.1510009765625,-0.7196044921875,-0.02685546875,-46.75,45.0625,-12.375,9.47,2.38,-0.79,stop,3
7.69,1848432.350901245,23,3,3,0,3,9.53,2.58,-0.87,0.05,0.19,-0.06,0.125,-6.1875,-1.9375,0.67681884765625,0.151123046875,-0.719970703125,-0.027099609375,-46.0,44.6875,-11.1875,9.47,2.38,-0.8,stop,3
7.7,1848432.376272949,23,3,3,0,3,9.52,2.56,-0.85,0.05,0.16,-0.03,-0.0625,-5.4375,-2.25,0.67645263671875,0.15130615234375,-0.72027587890625,-0.02734375,-46.0,44.6875,-11.1875,9.47,2.39,-0.81,stop,3
7.71,1848432.376272949,23,3,3,0,3,9.52,2.55,-0.84,0.05,0.15,-0.02,-1.125,-4.3125,-2.5,0.6761474609375,0.15142822265625,-0.72052001953125,-0.02764892578125,-46.0,44.6875,-11.1875,9.47,2.39,-0.82,stop,3
7.72,1848432.394144572,23,3,3,0,3,9.53,2.56,-0.82,0.06,0.15,0.0,-2.25,-3.5,-2.625,0.67596435546875,0.1514892578125,-0.720703125,-0.02801513671875,-46.0,44.6875,-11.1875,9.47,2.4,-0.83,stop,3
7.73,1848432.394144572,23,3,3,0,3,9.51,2.53,-0.85,0.04,0.12,-0.02,-2.625,-3.25,-2.875,0.67578125,0.1514892578125,-0.7208251953125,-0.02838134765625,-46.0,44.6875,-11.1875,9.46,2.4,-0.83,stop,3
7.74,1848432.405835449,23,3,3,0,3,9.52,2.54,-0.87,0.05,0.12,-0.03,-2.4375,-2.6875,-3.125,0.67559814453125,0.15155029296875,-0.720947265625,-0.02880859375,-47.1875,45.0625,-12.0,9.46,2.41,-0.83,stop,3
7.75,1848432.405835449,23,3,3,0,3,9.51,2.54,-0.89,0.04,0.12,-0.05,-2.0,-2.3125,-3.375,0.67547607421875,0.15167236328125,-0.7210693359375,-0.0291748046875,-47.1875,45.0625,-12.0,9.46,2.42,-0.84,stop,3
7.76,1848432.454438273,23,3,3,0,3,9.5,2.55,-0.94,0.04,0.12,-0.09,-1.375,-1.875,-3.6875,0.67535400390625,0.15185546875,-0.72113037109375,-0.029541015625,-47.1875,45.0625,-12.0,9.46,2.42,-0.84,stop,3
7.77,1848432.454438273,23,3,3,0,3,9.51,2.56,-0.96,0.05,0.13,-0.11,-1.8125,-1.375,-3.6875,0.67523193359375,0.1519775390625,-0.72113037109375,-0.0299072265625,-47.1875,45.0625,-12.0,9.46,2.43,-0.84,stop,3
7.78,1848432.461413412,23,3,3,0,3,9.5,2.56,-1.0,0.04,0.11,-0.15,-3.25,-0.8125,-3.6875,0.6751708984375,0.15203857421875,-0.72119140625,-0.03033447265625,-47.1875,45.0625,-12.0,9.45,2.44,-0.84,stop,3
7.79,1848432.461413412,23,3,3,0,3,9.49,2.57,-0.99,0.03,0.12,-0.14,-4.8125,0.0625,-3.5,0.67523193359375,0.1519775390625,-0.72113037109375,-0.0308837890625,-47.75,44.375,-12.0,9.45,2.44,-0.84,stop,3
7.8,1848432.480875977,23,3,3,0,3,9.48,2.59,-0.98,0.03,0.13,-0.14,-5.5,0.625,-3.5,0.67529296875,0.15191650390625,-0.7210693359375,-0.03143310546875,-47.75,44.375,-12.0,9.45,2.45,-0.84,stop,3
7.81,1848432.480875977,23,3,3,0,3,9.47,2.59,-1.05,0.01,0.13,-0.21,-6.0,0.6875,-3.4375,0.67535400390625,0.15185546875,-0.72100830078125,-0.03204345703125,-47.75,44.375,-12.0,9.45,2.46,-0.84,stop,3
7.82,1848432.499323364,23,3,3,0,3,9.48,2.61,-1.07,0.03,0.14,-0.23,-5.8125,0.6875,-3.5,0.6754150390625,0.15179443359375,-0.720947265625,-0.03265380859375,-47.75,44.375,-12.0,9.45,2.47,-0.83,stop,3
7.83,1848432.499323364,23,3,3,0,3,9.48,2.62,-1.09,0.03,0.14,-0.25,-5.0625,0.9375,-3.75,0.6754150390625,0.1517333984375,-0.72088623046875,-0.03326416015625,-47.75,44.375,-12.0,9.45,2.48,-0.83,stop,3
7.84,1848432.514008301,23,3,3,0,3,9.5,2.7,-1.02,0.05,0.21,-0.19,-4.375,1.0,-3.8125,0.67547607421875,0.15179443359375,-0.7208251953125,-0.03375244140625,-47.5,44.0,-10.875,9.44,2.48,-0.83,stop,3
7.85,1848432.514008301,23,3,3,0,3,9.48,2.74,-0.98,0.03,0.25,-0.15,-4.3125,1.5,-4.0,0.675537109375,0.15185546875,-0.720703125,-0.0343017578125,-47.5,44.0,-10.875,9.44,2.49,-0.83,stop,3
7.86,1848432.528429037,23,3,3,0,3,9.49,2.81,-0.94,0.04,0.3,-0.11,-5.0625,2.25,-4.0625,0.6756591796875,0.15191650390625,-0.72052001953125,-0.034912109375,-47.5,44.0,-10.875,9.44,2.5,-0.82,stop,3
7.87,1848432.528429037,23,3,3,0,3,9.48,2.85,-0.89,0.03,0.33,-0.07,-6.6875,2.875,-3.75,0.6759033203125,0.15185546875,-0.7203369140625,-0.03564453125,-47.5,44.0,-10.875,9.44,2.51,-0.82,stop,3
7.88,1848432.555669515,23,3,3,0,3,9.35,2.79,-1.14,-0.08,0.26,-0.32,-8.75,3.125,-3.5625,0.67608642578125,0.1517333984375,-0.7200927734375,-0.03643798828125,-47.5,44.0,-10.875,9.44,2.52,-0.81,stop,3
7.89,1848432.555669515,23,3,3,0,3,9.36,2.71,-1.19,-0.07,0.17,-0.38,-8.5,2.5,-3.25,0.67620849609375,0.15155029296875,-0.72003173828125,-0.0372314453125,-47.5,44.6875,-11.5625,9.43,2.53,-0.81,stop,3
7.9,1848432.570665975,23,3,3,0,3,9.41,2.8,-1.04,-0.02,0.25,-0.23,-4.0625,0.625,-3.75,0.6761474609375,0.15167236328125,-0.72003173828125,-0.037841796875,-47.5,44.6875,-11.5625,9.43,2.54,-0.81,stop,3
7.91,1848432.570665975,23,3,3,0,3,9.42,2.84,-0.93,0.0,0.28,-0.12,-1.25,0.0,-3.9375,0.676025390625,0.1519775390625,-0.72003173828125,-0.03826904296875,-47.5,44.6875,-11.5625,9.43,2.55,-0.81,stop,3
7.92,1848432.58880603,23,3,3,0,3,9.36,2.64,-0.99,-0.06,0.08,-0.17,-4.125,1.1875,-3.375,0.67608642578125,0.15203857421875,-0.71990966796875,-0.03875732421875,-47.5,44.6875,-11.5625,9.43,2.56,-0.81,stop,3
7.93,1848432.58880603,23,3,3,0,3,9.33,2.61,-1.1,-0.09,0.04,-0.29,-7.4375,2.5625,-2.8125,0.67620849609375,0.15185546875,-0.71978759765625,-0.0394287109375,-47.5,44.6875,-11.5625,9.42,2.57,-0.8,stop,3
7.94,1848432.621862508,23,3,3,0,3,9.37,2.66,-1.03,-0.05,0.08,-0.23,-7.875,2.5,-2.3125,0.6763916015625,0.15155029296875,-0.71966552734375,-0.0400390625,-48.1875,44.0,-11.1875,9.42,2.57,-0.8,stop,3
7.95,1848432.621862508,23,3,3,0,3,9.5,2.83,-0.76,0.07,0.25,0.03,-5.4375,-0.0625,-1.5625,0.67645263671875,0.1513671875,-0.71966552734375,-0.04052734375,-48.1875,44.0,-11.1875,9.42,2.58,-0.8,stop,3
7.96,1848432.633872396,23,3,3,0,3,9.43,2.87,-0.75,0.01,0.29,0.04,-4.75,-1.1875,-1.125,0.6763916015625,0.1512451171875,-0.71966552734375,-0.04095458984375,-48.1875,44.0,-11.1875,9.42,2.58,-0.8,stop,3
7.97,1848432.633872396,23,3,3,0,3,9.47,2.82,-0.84,0.05,0.24,-0.04,-3.9375,-1.3125,-0.9375,0.67633056640625,0.151123046875,-0.7197265625,-0.04132080078125,-48.1875,44.0,-11.1875,9.42,2.58,-0.8,stop,3
7.98,1848432.650533529,23,3,3,0,3,9.51,2.87,-0.79,0.09,0.28,0.0,-0.125,-2.625,-1.375,0.6761474609375,0.1512451171875,-0.7198486328125,-0.04150390625,-48.1875,44.0,-11.1875,9.42,2.59,-0.8,stop,3
7.99,1848432.650533529,23,3,3,0,3,9.5,2.91,-0.77,0.07,0.31,0.03,2.125,-2.3125,-1.75,0.67596435546875,0.15155029296875,-0.719970703125,-0.04156494140625,-48.1875,43.5625,-11.5625,9.42,2.59,-0.81,stop,3
8.0,1848432.676224243,23,3,3,0,3,9.48,2.82,-0.77,0.06,0.22,0.03,0.25,-0.375,-1.5,0.67596435546875,0.15167236328125,-0.719970703125,-0.041748046875,-48.1875,43.5625,-11.5625,9.42,2.6,-0.81,stop,3
8.01,1848432.676224243,23,3,3,0,3,9.42,2.77,-0.84,0.0,0.17,-0.03,-2.5,0.4375,-0.9375,0.67596435546875,0.151611328125,-0.71990966796875,-0.0419921875,-48.1875,43.5625,-11.5625,9.42,2.6,-0.8,stop,3
8.02,1848432.695322307,23,3,3,0,3,9.33,2.72,-0.9,-0.08,0.11,-0.1,-2.9375,0.375,-0.8125,0.676025390625,0.15155029296875,-0.71990966796875,-0.04229736328125,-48.1875,43.5625,-11.5625,9.41,2.6,-0.8,stop,3
8.03,1848432.695322307,23,3,3,0,3,9.26,2.7,-0.94,-0.15,0.09,-0.13,-1.25,0.0,-1.0625,0.67596435546875,0.15155029296875,-0.71990966796875,-0.04248046875,-48.1875,43.5625,-11.5625,9.41,2.6,-0.8,stop,3
8.04,1848432.71040682,23,3,3,0,3,9.29,2.73,-0.95,-0.12,0.12,-0.14,0.875,-0.9375,-1.25,0.6759033203125,0.1517333984375,-0.719970703125,-0.04254150390625,-47.5,43.5625,-10.5,9.41,2.61,-0.81,stop,3
8.05,1848432.71040682,23,3,3,0,3,9.31,2.74,-0.91,-0.09,0.12,-0.09,2.0,-1.4375,-1.3125,0.67572021484375,0.1519775390625,-0.7200927734375,-0.04254150390625,-47.5,43.5625,-10.5,9.41,2.61,-0.81,stop,3
8.06,1848432.742585165,23,3,3,0,3,9.3,2.76,-0.88,-0.11,0.14,-0.06,2.1875,-1.125,-1.1875,0.67559814453125,0.1522216796875,-0.72015380859375,-0.04254150390625,-47.5,43.5625,-10.5,9.41,2.61,-0.81,stop,3
8.07,1848432.742585165,23,3,3,0,3,9.37,2.79,-0.83,-0.03,0.17,-0.01,1.75,-0.9375,-1.0625,0.67547607421875,0.1524658203125,-0.72021484375,-0.04254150390625,-47.5,43.5625,-10.5,9.41,2.62,-0.82,stop,3
8.08,1848432.7568726,23,3,3,0,3,9.42,2.8,-0.78,0.01,0.17,0.03,1.0,-1.3125,-0.5625,0.67535400390625,0.152587890625,-0.72027587890625,-0.04254150390625,-47.5,43.5625,-10.5,9.41,2.62,-0.82,stop,3
8.09,1848432.7568726,23,3,3,0,3,9.44,2.81,-0.81,0.03,0.18,0.01,0.5,-1.5,-0.25,0.67529296875,0.152587890625,-0.7203369140625,-0.0426025390625,-47.75,44.0,-10.5,9.41,2.62,-0.82,stop,3
8.1,1848432.770904338,23,3,3,0,3,9.46,2.79,-0.88,0.04,0.17,-0.05,0.5625,-1.25,-0.25,0.6751708984375,0.15264892578125,-0.720458984375,-0.0426025390625,-47.75,44.0,-10.5,9.41,2.62,-0.83,stop,3
8.11,1848432.770904338,23,3,3,0,3,9.46,2.73,-1.01,0.05,0.1,-0.18,1.375,-1.0625,0.0,0.675048828125,0.15277099609375,-0.72052001953125,-0.04254150390625,-47.75,44.0,-10.5,9.41,2.62,-0.83,stop,3
8.12,1848432.796210083,23,3,3,0,3,9.47,2.78,-0.96,0.06,0.16,-0.12,2.5625,-0.75,-0.0625,0.6749267578125,0.1529541015625,-0.7205810546875,-0.04241943359375,-47.75,44.0,-10.5,9.41,2.62,-0.83,stop,3
8.13,1848432.796210083,23,3,3,0,3,9.47,2.85,-0.87,0.06,0.22,-0.03,4.25,-0.1875,-0.375,0.67486572265625,0.15325927734375,-0.72064208984375,-0.042236328125,-47.75,44.0,-10.5,9.41,2.62,-0.83,stop,3
8.14,1848432.813764364,23,3,3,0,3,9.45,2.83,-0.86,0.04,0.2,-0.02,3.0625,0.5625,-0.375,0.67486572265625,0.1534423828125,-0.7205810546875,-0.04205322265625,-46.75,43.1875,-11.1875,9.41,2.62,-0.83,stop,3
8.15,1848432.813764364,23,3,3,0,3,9.42,2.81,-0.83,0.01,0.18,0.0,0.875,1.1875,0.0625,0.6749267578125,0.153564453125,-0.72052001953125,-0.0419921875,-46.75,43.1875,-11.1875,9.41,2.62,-0.83,stop,3
8.16,1848432.826066976,23,3,3,0,3,9.45,2.84,-0.78,0.04,0.22,0.04,0.1875,0.6875,0.5,0.6749267578125,0.153564453125,-0.720458984375,-0.04205322265625,-46.75,43.1875,-11.1875,9.41,2.62,-0.83,stop,3
8.17,1848432.826066976,23,3,3,0,3,9.42,2.84,-0.77,0.01,0.21,0.05,0.75,-0.0625,0.875,0.6749267578125,0.15362548828125,-0.720458984375,-0.0419921875,-46.75,43.1875,-11.1875,9.41,2.62,-0.83,stop,3
8.18,1848432.862502401,23,3,3,0,3,9.36,2.78,-0.85,-0.04,0.15,-0.01,1.3125,0.0,1.0,0.6749267578125,0.1536865234375,-0.72052001953125,-0.0418701171875,-46.75,43.1875,-11.1875,9.41,2.62,-0.83,stop,3
8.2,1848432.862502401,23,3,3,0,3,9.36,2.8,-0.83,-0.04,0.17,0.0,2.5625,0.75,0.375,0.6749267578125,0.15386962890625,-0.720458984375,-0.041748046875,-47.75,44.0,-12.0,9.41,2.62,-0.83,stop,3
8.2,1848432.875282186,23,3,3,0,3,9.37,2.79,-0.81,-0.03,0.16,0.02,3.3125,0.625,0.4375,0.6749267578125,0.15411376953125,-0.72039794921875,-0.04156494140625,-47.75,44.0,-12.0,9.41,2.62,-0.83,stop,3
8.21,1848432.875282186,23,3,3,0,3,9.41,2.8,-0.85,0.0,0.17,-0.01,3.125,0.4375,0.375,0.67486572265625,0.15435791015625,-0.72039794921875,-0.04144287109375,-47.75,44.0,-12.0,9.41,2.62,-0.83,stop,3
8.22,1848432.885900065,23,3,3,0,3,9.4,2.82,-0.84,0.0,0.19,0.0,2.8125,0.6875,0.8125,0.67486572265625,0.15447998046875,-0.72039794921875,-0.04119873046875,-47.75,44.0,-12.0,9.41,2.62,-0.84,stop,3
8.23,1848432.885900065,23,3,3,0,3,9.41,2.83,-0.82,0.0,0.2,0.01,3.125,0.5,0.875,0.67486572265625,0.1546630859375,-0.72039794921875,-0.041015625,-47.75,44.0,-12.0,9.41,2.62,-0.84,stop,3
8.24,1848432.921206462,23,3,3,0,3,9.43,2.85,-0.83,0.02,0.23,0.01,3.9375,0.0625,1.125,0.6748046875,0.15484619140625,-0.720458984375,-0.040771484375,-46.375,44.0,-9.6875,9.41,2.62,-0.84,stop,3
8.25,1848432.921206462,23,3,3,0,3,9.43,2.82,-0.82,0.02,0.19,0.02,4.5,0.0,0.9375,0.67474365234375,0.15509033203125,-0.720458984375,-0.04046630859375,-46.375,44.0,-9.6875,9.41,2.62,-0.84,stop,3
8.26,1848432.937268026,23,3,3,0,3,9.47,2.84,-0.85,0.06,0.22,0.0,5.3125,0.0,0.8125,0.6746826171875,0.1553955078125,-0.720458984375,-0.04010009765625,-46.375,44.0,-9.6875,9.41,2.62,-0.84,stop,3
8.28,1848432.937268026,23,3,3,0,3,9.45,2.87,-0.8,0.04,0.25,0.04,6.5625,-0.125,0.75,0.674560546875,0.15582275390625,-0.720458984375,-0.03973388671875,-46.375,44.0,-9.6875,9.41,2.62,-0.85,stop,3
8.28,1848432.951993693,23,3,3,0,3,9.45,2.88,-0.77,0.04,0.26,0.07,8.4375,-0.25,0.625,0.6744384765625,0.15631103515625,-0.72052001953125,-0.0391845703125,-46.375,44.0,-9.6875,9.41,2.62,-0.85,stop,3
8.29,1848432.951993693,23,3,3,0,3,9.43,2.91,-0.79,0.02,0.29,0.05,10.3125,-0.1875,0.125,0.67431640625,0.156982421875,-0.72052001953125,-0.03863525390625,-47.5,44.375,-12.0,9.41,2.62,-0.85,stop,3
8.3,1848432.981674398,23,3,3,0,3,9.5,2.99,-0.74,0.09,0.36,0.11,11.6875,0.25,-0.0625,0.6741943359375,0.15777587890625,-0.720458984375,-0.03802490234375,-47.5,44.375,-12.0,9.4,2.62,-0.86,stop,3
8.31,1848432.981674398,23,3,3,0,3,9.62,3.02,-0.75,0.21,0.4,0.1,12.3125,1.3125,-0.25,0.67413330078125,0.15863037109375,-0.72039794921875,-0.037353515625,-47.5,44.375,-12.0,9.4,2.62,-0.86,stop,3
8.32,1848432.99615621,23,3,3,0,3,9.78,3.08,-0.71,0.37,0.45,0.14,12.6875,2.4375,-0.3125,0.6741943359375,0.15948486328125,-0.72021484375,-0.03668212890625,-47.5,44.375,-12.0,9.4,2.62,-0.86,stop,3
8.33,1848432.99615621,23,3,3,0,3,9.87,3.14,-0.6,0.46,0.51,0.25,13.3125,3.25,-0.3125,0.6741943359375,0.1602783203125,-0.72003173828125,-0.03582763671875,-47.5,44.375,-12.0,9.4,2.62,-0.86,stop,3
8.35,1848433.010732422,23,3,3,0,3,9.78,3.18,-0.54,0.37,0.55,0.32,14.125,5.75,-0.75,0.67437744140625,0.16119384765625,-0.7197265625,-0.034912109375,-47.75,44.0,-11.5625,9.4,2.62,-0.86,stop,3
8.36,1848433.010732422,23,3,3,0,3,9.66,3.28,-0.47,0.25,0.66,0.37,16.375,9.75,-1.25,0.67474365234375,0.16229248046875,-0.71917724609375,-0.0338134765625,-47.75,44.0,-11.5625,9.41,2.62,-0.85,stop,3
8.37,1848433.037835938,23,3,3,0,3,9.51,3.33,-0.41,0.1,0.71,0.42,20.5625,12.875,-1.6875,0.67523193359375,0.16363525390625,-0.71844482421875,-0.03240966796875,-47.75,44.0,-11.5625,9.41,2.62,-0.84,stop,3
8.37,1848433.037835938,23,3,3,0,3,9.32,3.22,-0.28,-0.08,0.59,0.54,26.9375,15.0,-2.0625,0.67578125,0.1654052734375,-0.7176513671875,-0.0306396484375,-47.75,44.0,-11.5625,9.41,2.62,-0.83,stop,3
8.38,1848433.055652507,23,3,3,0,3,9.18,3.05,-0.23,-0.22,0.42,0.59,35.375,14.125,-2.0625,0.6761474609375,0.16766357421875,-0.71685791015625,-0.02838134765625,-47.75,44.0,-11.5625,9.41,2.62,-0.82,stop,3
8.39,1848433.055652507,23,3,3,0,3,9.03,2.92,-0.17,-0.38,0.3,0.64,47.9375,12.8125,-1.0,0.67626953125,0.17059326171875,-0.7161865234375,-0.0252685546875,-48.1875,44.375,-12.375,9.41,2.61,-0.82,stop,3
8.4,1848433.065983928,23,3,3,0,3,9.03,2.92,-0.17,-0.38,0.3,0.64,47.9375,12.8125,-1.0,0.67626953125,0.17059326171875,-0.7161865234375,-0.0252685546875,-48.1875,44.375,-12.375,9.41,2.61,-0.82,stop,3
8.41,1848433.065983928,23,3,3,0,3,8.83,2.75,-0.23,-0.58,0.14,0.59,61.125,12.625,0.5,0.6761474609375,0.17425537109375,-0.715576171875,-0.021240234375,-48.1875,44.375,-12.375,9.41,2.6,-0.83,stop,3
8.42,1848433.083346355,23,3,3,0,3,8.04,2.26,-0.94,-1.37,-0.32,-0.1,75.0,13.25,2.5,0.67578125,0.17852783203125,-0.7149658203125,-0.0162353515625,-48.1875,44.375,-12.375,9.41,2.59,-0.84,stop,3
8.43,1848433.083346355,23,3,3,0,3,7.5,1.97,-1.06,-1.91,-0.59,-0.19,92.75,11.25,4.4375,0.675048828125,0.18377685546875,-0.7144775390625,-0.010009765625,-48.1875,44.375,-12.375,9.42,2.57,-0.86,stop,3
8.44,1848433.102076091,23,3,3,0,3,7.02,1.87,-0.93,-2.4,-0.66,-0.02,113.75,4.5625,7.0625,0.6734619140625,0.19000244140625,-0.71435546875,-0.00244140625,-48.1875,44.375,-12.375,9.42,2.54,-0.91,stop,3
8.45,1848433.102076091,23,3,3,0,3,6.5,1.8,-0.76,-2.92,-0.69,0.21,131.0,-5.4375,16.3125,0.6708984375,0.1966552734375,-0.7149658203125,0.006591796875,-48.1875,43.5625,-16.1875,9.43,2.49,-0.97,stop,3
8.45,1848433.128647787,23,3,3,0,3,5.57,1.3,-0.48,-3.86,-1.14,0.56,131.0,-5.4375,16.3125,0.66827392578125,0.20330810546875,-0.71539306640625,0.015625,-48.1875,43.5625,-16.1875,9.43,2.44,-1.04,stop,3
8.46,1848433.128647787,23,3,3,0,3,5.37,0.78,-0.57,-4.07,-1.6,0.52,128.3125,-5.25,21.5625,0.66558837890625,0.20947265625,-0.71588134765625,0.0247802734375,-48.1875,43.5625,-16.1875,9.44,2.38,-1.1,stop,3
8.47,1848433.146764323,23,3,3,0,3,5.43,0.22,-0.59,-4.02,-2.09,0.56,125.3125,-1.6875,26.6875,0.6630859375,0.215087890625,-0.7161865234375,0.03411865234375,-48.1875,43.5625,-16.1875,9.45,2.31,-1.15,stop,3
8.48,1848433.146764323,23,3,3,0,3,6.64,-0.37,-1.17,-2.82,-2.61,0.03,126.75,-0.3125,34.0,0.66058349609375,0.22027587890625,-0.71636962890625,0.04400634765625,-48.1875,43.5625,-16.1875,9.47,2.23,-1.21,stop,3
8.5,1848433.175571371,23,3,3,0,3,7.99,-0.63,-1.88,-1.48,-2.73,-0.54,128.25,-48.1875,62.125,0.65478515625,0.22393798828125,-0.71978759765625,0.0546875,-47.1875,42.5625,-19.1875,9.48,2.1,-1.33,stop,3
8.51,1848433.175571371,23,3,3,0,3,10.32,-0.97,-2.97,0.82,-2.94,-1.51,128.25,-48.1875,62.125,0.64892578125,0.2275390625,-0.72308349609375,0.0653076171875,-47.1875,42.5625,-19.1875,9.49,1.97,-1.46,stop,3
8.52,1848433.191834636,23,3,3,0,3,13.76,-1.26,-4.11,4.3,-3.01,-2.17,109.625,-265.4375,115.5625,0.62908935546875,0.2279052734375,-0.739501953125,0.073486328125,-47.1875,42.5625,-19.1875,9.45,1.74,-1.93,stop,3
8.53,1848433.191834636,23,3,3,0,3,22.98,-0.57,-6.91,13.64,-2.01,-4.28,93.25,-402.75,162.6875,0.59979248046875,0.2249755859375,-0.763671875,0.08038330078125,-47.1875,42.5625,-19.1875,9.33,1.44,-2.62,stop,3
8.53,1848433.205748902,23,3,3,0,3,26.69,0.26,-7.57,17.52,-0.86,-4.27,69.25,-411.5,175.0625,0.5693359375,0.2196044921875,-0.78753662109375,0.08599853515625,-47.1875,42.5625,-19.1875,9.16,1.12,-3.3,stop,3
8.54,1848433.205748902,23,3,3,0,3,28.05,1.25,-9.02,19.0,0.31,-5.36,31.1875,-214.9375,103.9375,0.55303955078125,0.215576171875,-0.7998046875,0.08917236328125,-46.375,41.5,-21.5625,9.05,0.93,-3.65,stop,3
8.55,1848433.237920329,23,3,3,0,3,24.17,3.37,-8.99,15.07,2.43,-5.46,17.375,80.6875,-9.4375,0.55841064453125,0.2164306640625,-0.79559326171875,0.0914306640625,-46.375,41.5,-21.5625,9.1,0.94,-3.52,stop,3
8.56,1848433.237920329,23,3,3,0,3,13.37,6.71,-8.39,4.13,5.66,-5.28,13.5625,258.625,-71.4375,0.5765380859375,0.219970703125,-0.78131103515625,0.09381103515625,-46.375,41.5,-21.5625,9.23,1.04,-3.11,stop,3
8.58,1848433.25106364,23,3,3,0,3,10.23,7.43,-7.39,0.9,6.21,-4.65,-59.3125,223.0,-89.3125,0.59344482421875,0.22119140625,-0.7686767578125,0.0894775390625,-46.375,41.5,-21.5625,9.33,1.22,-2.74,stop,3
8.59,1848433.25106364,23,3,3,0,3,9.34,6.5,-6.17,-0.03,5.08,-3.66,-140.6875,121.4375,-77.0625,0.60479736328125,0.21807861328125,-0.76190185546875,0.07843017578125,-46.375,41.5,-21.5625,9.37,1.41,-2.51,stop,3
8.6,1848433.260764364,23,3,3,0,3,8.88,5.05,-4.19,-0.49,3.48,-1.82,-169.1875,59.375,-48.6875,0.6121826171875,0.21197509765625,-0.7589111328125,0.06573486328125,-46.75,44.6875,-15.0625,9.38,1.56,-2.37,stop,3
8.61,1848433.260764364,23,3,3,0,3,7.93,2.61,-1.28,-1.45,0.92,0.99,-162.125,28.8125,-35.0,0.61724853515625,0.2054443359375,-0.757568359375,0.05364990234375,-46.75,44.6875,-15.0625,9.38,1.69,-2.27,stop,3
8.62,1848433.301746867,23,3,3,0,3,7.02,2.06,-0.22,-2.35,0.25,2.0,-154.5625,2.6875,-33.5625,0.62030029296875,0.19927978515625,-0.75750732421875,0.0416259765625,-46.75,44.6875,-15.0625,9.37,1.8,-2.22,stop,3
8.62,1848433.301746867,23,3,3,0,3,6.05,1.69,0.52,-3.3,-0.23,2.72,-161.0,-14.5,-33.6875,0.6221923828125,0.19287109375,-0.7581787109375,0.0289306640625,-46.75,44.6875,-15.0625,9.36,1.92,-2.19,stop,3
8.63,1848433.312229004,23,3,3,0,3,4.09,1.27,0.9,-5.24,-0.77,3.06,-177.4375,-11.5625,-36.875,0.6243896484375,0.1856689453125,-0.758544921875,0.01495361328125,-46.75,44.6875,-15.0625,9.34,2.05,-2.15,moving,3
8.65,1848433.312229004,23,3,3,0,3,3.52,0.92,0.78,-5.81,-1.27,2.85,-195.9375,7.5,-44.5,0.62799072265625,0.17791748046875,-0.757568359375,-0.00030517578125,-46.0,43.5,-16.5625,9.33,2.19,-2.07,moving,3
8.66,1848433.341476929,23,3,3,0,3,2.83,0.64,0.7,-6.48,-1.7,2.63,-210.1875,33.1875,-52.1875,0.63336181640625,0.16986083984375,-0.75482177734375,-0.01654052734375,-46.0,43.5,-16.5625,9.32,2.35,-1.93,moving,3
8.67,1848433.341476929,23,3,3,0,3,2.08,0.49,0.83,-7.23,-2.02,2.56,-216.3125,72.25,-61.1875,0.64111328125,0.1619873046875,-0.74945068359375,-0.0330810546875,-46.0,43.5,-16.5625,9.31,2.52,-1.72,moving,3
8.67,1848433.351935547,23,3,3,0,3,2.08,0.49,0.83,-7.23,-2.02,2.56,-216.3125,72.25,-61.1875,0.64111328125,0.1619873046875,-0.74945068359375,-0.0330810546875,-46.0,43.5,-16.5625,9.31,2.52,-1.72,moving,3
8.68,1848433.351935547,23,3,3,0,3,1.1,-0.06,1.08,-8.21,-2.76,2.5,-222.3125,125.125,-71.25,0.65203857421875,0.154541015625,-0.7406005859375,-0.04986572265625,-46.0,43.5,-16.5625,9.32,2.7,-1.41,moving,3
8.69,1848433.36023816,23,3,3,0,3,0.65,-0.26,0.93,-8.66,-3.14,1.96,-238.625,168.375,-81.625,0.66552734375,0.14697265625,-0.7286376953125,-0.067626953125,-46.0,43.5,-16.5625,9.31,2.88,-1.02,moving,3
8.7,1848433.36023816,23,3,3,0,3,0.29,-0.55,0.7,-9.0,-3.62,1.28,-265.1875,187.0,-92.4375,0.67999267578125,0.13848876953125,-0.7147216796875,-0.08740234375,-47.5,45.0,-9.375,9.29,3.07,-0.58,moving,3
8.71,1848433.387528199,23,3,3,0,3,0.28,-0.8,0.57,-8.96,-4.06,0.69,-297.125,183.1875,-100.9375,0.69384765625,0.12847900390625,-0.70001220703125,-0.10968017578125,-47.5,45.0,-9.375,9.25,3.25,-0.12,moving,3
8.72,1848433.387528199,23,3,3,0,3,0.96,-0.94,0.16,-8.21,-4.36,-0.17,-320.5,177.6875,-105.75,0.7069091796875,0.1171875,-0.68463134765625,-0.133544921875,-47.5,45.0,-9.375,9.18,3.41,0.34,moving,3
8.73,1848433.400890341,23,3,3,0,3,1.26,-1.08,-0.28,-7.83,-4.63,-1.11,-328.3125,176.625,-103.9375,0.71917724609375,0.10516357421875,-0.66845703125,-0.15771484375,-47.5,45.0,-9.375,9.1,3.55,0.82,moving,3
8.74,1848433.400890341,23,3,3,0,3,1.63,-0.83,-1.17,-7.37,-4.47,-2.45,-319.5625,161.875,-92.375,0.72991943359375,0.0926513671875,-0.6527099609375,-0.1805419921875,-47.5,45.0,-9.375,9.01,3.63,1.28,moving,3
8.75,1848433.415450237,23,3,3,0,3,2.16,-0.31,-2.4,-6.78,-3.99,-4.03,-292.125,100.3125,-71.3125,0.736572265625,0.0797119140625,-0.64093017578125,-0.2008056640625,-50.875,43.5,-7.0625,8.94,3.67,1.62,moving,3
8.76,1848433.415450237,23,3,3,0,3,4.17,0.6,-5.1,-4.75,-3.05,-6.85,-243.6875,-22.0,-36.75,0.7362060546875,0.065673828125,-0.63763427734375,-0.2169189453125,-50.875,43.5,-7.0625,8.92,3.66,1.74,moving,3
8.77,1848433.44684192,23,3,3,0,3,7.82,1.44,-7.58,-1.17,-2.14,-9.1,-164.5625,-214.625,13.75,0.72528076171875,0.05029296875,-0.648193359375,-0.22637939453125,-50.875,43.5,-7.0625,8.99,3.59,1.51,moving,3
8.78,1848433.44684192,23,3,3,0,3,14.84,2.15,-10.69,5.69,-1.29,-11.38,-27.625,-530.25,86.875,0.69635009765625,0.0330810546875,-0.68084716796875,-0.2244873046875,-50.875,43.5,-7.0625,9.15,3.45,0.69,moving,3
8.78,1848433.455906902,23,3,3,0,3,21.92,1.95,-13.68,12.68,-1.21,-12.83,177.125,-898.125,173.5625,0.643798828125,0.01593017578125,-0.73699951171875,-0.205322265625,-50.875,43.5,-7.0625,9.24,3.16,-0.85,moving,3
8.8,1848433.455906902,23,3,3,0,3,34.78,8.48,-8.72,25.7,5.69,-6.26,311.9375,-906.25,181.75,0.586181640625,0.0054931640625,-0.7908935546875,-0.17572021484375,-51.875,41.6875,-1.25,9.07,2.78,-2.46,moving,3
8.81,1848433.47400171,23,3,3,0,3,33.99,12.56,-12.91,25.06,9.97,-9.78,156.1875,-379.875,75.25,0.5606689453125,0.00244140625,-0.81219482421875,-0.1611328125,-51.875,41.6875,-1.25,8.92,2.59,-3.13,moving,3
8.82,1848433.47400171,23,3,3,0,3,27.38,10.69,-8.01,18.38,7.99,-5.18,27.375,199.25,-73.9375,0.5736083984375,0.0118408203125,-0.802734375,-0.1627197265625,-51.875,41.6875,-1.25,8.99,2.69,-2.83,moving,3
8.83,1848433.487378948,23,3,3,0,3,18.87,15.22,10.44,9.69,12.34,12.38,-13.9375,563.125,-109.75,0.6107177734375,0.02679443359375,-0.77325439453125,-0.16839599609375,-51.875,41.6875,-1.25,9.17,2.87,-1.93,moving,3
8.84,1848433.487378948,23,3,3,0,3,14.24,14.28,11.9,4.98,11.16,12.79,-253.3125,567.6875,-118.0625,0.6468505859375,0.029541015625,-0.7379150390625,-0.19012451171875,-51.875,41.6875,-1.25,9.25,3.12,-0.89,moving,3
8.85,1848433.522923951,23,3,3,0,3,11.84,4.61,3.75,2.6,1.31,3.71,-374.0,446.375,-90.5,0.67413330078125,0.02166748046875,-0.70538330078125,-0.2178955078125,-43.1875,47.5,18.375,9.23,3.3,0.03,moving,3
8.86,1848433.522923951,23,3,3,0,3,12.05,0.07,0.4,2.83,-3.19,-0.34,-225.4375,365.4375,11.25,0.69677734375,0.0146484375,-0.67913818359375,-0.230224609375,-43.1875,47.5,18.375,9.21,3.26,0.75,moving,3
8.87,1848433.537318197,23,3,3,0,3,10.08,0.14,1.06,0.86,-3.02,-0.04,-50.9375,204.75,57.875,0.71002197265625,0.01220703125,-0.6656494140625,-0.22943115234375,-43.1875,47.5,18.375,9.21,3.16,1.11,moving,3
8.88,1848433.537318197,23,3,3,0,3,9.67,0.45,0.68,0.46,-2.7,-0.46,116.6875,65.6875,18.0625,0.7139892578125,0.01971435546875,-0.66387939453125,-0.22149658203125,-43.1875,47.5,18.375,9.21,3.16,1.15,moving,3
8.89,1848433.562381796,23,3,3,0,3,8.64,0.51,0.23,-0.57,-2.7,-0.68,269.0625,-53.75,-4.125,0.71014404296875,0.03564453125,-0.6722412109375,-0.2061767578125,-43.1875,47.5,18.375,9.21,3.21,0.91,moving,3
8.9,1848433.562381796,23,3,3,0,3,6.75,0.76,-0.25,-2.49,-2.47,-0.68,373.3125,-170.875,11.3125,0.69873046875,0.05499267578125,-0.68914794921875,-0.18402099609375,-50.375,42.75,7.25,9.24,3.24,0.43,moving,3
8.91,1848433.580349325,23,3,3,0,3,3.61,1.93,-0.64,-5.64,-1.28,-0.38,421.125,-280.375,15.1875,0.67938232421875,0.0751953125,-0.71240234375,-0.158935546875,-50.375,42.75,7.25,9.25,3.22,-0.25,moving,3
8.92,1848433.580349325,23,3,3,0,3,2.81,2.01,0.3,-6.4,-1.17,1.31,423.375,-316.5,-6.5,0.65618896484375,0.09619140625,-0.7362060546875,-0.13494873046875,-50.375,42.75,7.25,9.21,3.18,-1.0,moving,3
8.93,1848433.589632772,23,3,3,0,3,2.62,1.88,0.84,-6.51,-1.27,2.44,377.625,-244.1875,-37.375,0.6363525390625,0.11724853515625,-0.75372314453125,-0.11480712890625,-50.375,42.75,7.25,9.14,3.16,-1.6,moving,3
8.94,1848433.589632772,23,3,3,0,3,2.62,1.88,0.84,-6.51,-1.27,2.44,377.625,-244.1875,-37.375,0.6363525390625,0.11724853515625,-0.75372314453125,-0.11480712890625,-50.375,42.75,7.25,9.14,3.16,-1.6,moving,3
8.94,1848433.609096111,23,3,3,0,3,2.41,1.35,0.81,-6.66,-1.8,2.75,308.875,-107.5,-62.25,0.625244140625,0.1373291015625,-0.7618408203125,-0.0989990234375,-50.375,42.75,7.25,9.07,3.16,-1.94,moving,3
8.95,1848433.609096111,23,3,3,0,3,1.19,0.15,0.66,-7.84,-3.05,2.67,242.1875,44.3125,-80.25,0.62445068359375,0.15625,-0.7603759765625,-0.08673095703125,-49.375,44.25,0.75,9.04,3.2,-2.01,moving,3
8.96,1848433.637162191,23,3,3,0,3,0.24,-0.13,0.85,-8.8,-3.43,2.68,182.6875,177.25,-94.0625,0.6328125,0.1737060546875,-0.7506103515625,-0.07733154296875,-49.375,44.25,0.75,9.05,3.29,-1.83,moving,3
8.97,1848433.637162191,23,3,3,0,3,-0.52,-0.11,0.84,-9.6,-3.52,2.28,128.1875,302.0,-102.0,0.649658203125,0.189453125,-0.73291015625,-0.0699462890625,-49.375,44.25,0.75,9.07,3.41,-1.43,moving,3
8.98,1848433.646710857,23,3,3,0,3,-0.35,0.43,-1.39,-9.45,-3.12,-0.55,79.375,407.5625,-96.125,0.67333984375,0.202392578125,-0.70819091796875,-0.06353759765625,-49.375,44.25,0.75,9.1,3.55,-0.83,moving,3
8.99,1848433.646710857,23,3,3,0,3,-0.16,0.5,-2.37,-9.26,-3.15,-2.21,34.9375,434.1875,-64.0625,0.69866943359375,0.210693359375,-0.6812744140625,-0.05743408203125,-49.375,44.25,0.75,9.09,3.65,-0.16,moving,3
9.0,1848433.669295696,23,3,3,0,3,0.08,0.66,-3.41,-9.0,-3.0,-3.86,-6.8125,387.3125,-7.4375,0.72137451171875,0.2125244140625,-0.6571044921875,-0.0511474609375,-52.25,41.6875,-7.875,9.08,3.66,0.45,moving,3
9.01,1848433.669295696,23,3,3,0,3,0.8,0.74,-4.28,-8.27,-2.83,-5.23,-25.375,304.0,53.25,0.7392578125,0.20916748046875,-0.638671875,-0.0435791015625,-52.25,41.6875,-7.875,9.08,3.57,0.94,moving,3
9.02,1848433.680884522,23,3,3,0,3,2.61,0.5,-5.51,-6.49,-2.9,-6.78,-11.8125,195.5625,102.125,0.7506103515625,0.20343017578125,-0.62774658203125,-0.03411865234375,-52.25,41.6875,-7.875,9.1,3.41,1.26,moving,3
9.03,1848433.680884522,23,3,3,0,3,4.89,0.07,-6.47,-4.27,-3.11,-7.81,33.0,55.5625,144.625,0.75341796875,0.19781494140625,-0.626708984375,-0.0218505859375,-52.25,41.6875,-7.875,9.17,3.19,1.33,moving,3
9.04,1848433.711218303,23,3,3,0,3,9.12,-0.41,-8.25,-0.19,-3.29,-9.27,102.25,-163.9375,204.8125,0.7427978515625,0.19293212890625,-0.64105224609375,-0.005615234375,-52.25,41.6875,-7.875,9.31,2.88,1.01,moving,3
9.05,1848433.711218303,23,3,3,0,3,15.52,-0.45,-10.93,6.02,-2.87,-10.99,196.75,-526.8125,295.125,0.7091064453125,0.18865966796875,-0.67926025390625,0.015625,-48.1875,38.75,-24.0,9.5,2.41,0.05,moving,3
9.06,1848433.730235922,23,3,3,0,3,25.82,0.18,-15.39,16.32,-1.57,-13.7,326.0,-985.125,368.375,0.641845703125,0.1875,-0.74237060546875,0.04132080078125,-48.1875,38.75,-24.0,9.49,1.75,-1.69,moving,3
9.07,1848433.730235922,23,3,3,0,3,29.19,2.39,-8.47,20.17,1.36,-4.75,361.1875,-1203.5,344.4375,0.55316162109375,0.18853759765625,-0.80889892578125,0.06390380859375,-48.1875,38.75,-24.0,9.01,1.03,-3.72,moving,3
9.08,1848433.744857097,23,3,3,0,3,37.22,3.15,-6.23,28.71,2.49,-1.39,74.3125,-722.625,208.875,0.49871826171875,0.18096923828125,-0.844970703125,0.0672607421875,-48.1875,38.75,-24.0,8.5,0.65,-4.84,moving,3
9.09,1848433.744857097,23,3,3,0,3,39.16,3.12,-3.73,30.58,2.48,0.98,-274.1875,64.3125,164.25,0.506591796875,0.156494140625,-0.8460693359375,0.05517578125,-48.1875,38.75,-24.0,8.57,0.63,-4.71,moving,3
9.1,1848433.776399008,23,3,3,0,3,21.95,2.51,-6.0,12.91,1.77,-2.28,-341.0625,619.25,98.875,0.55535888671875,0.13092041015625,-0.82012939453125,0.04278564453125,-44.5625,45.25,-14.75,9.04,0.73,-3.72,moving,3
9.11,1848433.776399008,23,3,3,0,3,17.27,1.15,-4.95,7.85,0.19,-2.4,-197.375,707.4375,-71.25,0.607177734375,0.12353515625,-0.7841796875,0.033203125,-44.5625,45.25,-14.75,9.41,0.96,-2.55,moving,3
9.12,1848433.788392986,23,3,3,0,3,14.28,0.52,-1.85,4.7,-0.78,-0.2,-59.625,540.6875,-198.5,0.64453125,0.1322021484375,-0.75262451171875,0.0244140625,-44.5625,45.25,-14.75,9.57,1.31,-1.64,moving,3
9.13,1848433.788392986,23,3,3,0,3,7.81,3.44,2.18,-1.79,1.77,3.21,-8.8125,366.3125,-209.1875,0.668701171875,0.14459228515625,-0.72918701171875,0.01629638671875,-44.5625,45.25,-14.75,9.6,1.66,-1.03,moving,3
9.14,1848433.805626059,23,3,3,0,3,4.47,5.63,0.73,-5.12,3.77,1.48,-65.25,157.375,-111.5,0.6795654296875,0.1475830078125,-0.71856689453125,0.00762939453125,-44.5625,45.25,-14.75,9.59,1.85,-0.74,moving,3
9.15,1848433.805626059,23,3,3,0,3,5.32,4.77,-1.39,-4.26,2.86,-0.61,-100.4375,-37.75,-21.8125,0.678466796875,0.14306640625,-0.7205810546875,-0.00042724609375,-41.6875,51.375,-11.0,9.58,1.9,-0.77,moving,3
9.16,1848433.833373699,23,3,3,0,3,5.48,3.05,-1.0,-4.07,1.14,0.06,-73.6875,-190.9375,8.8125,0.667236328125,0.13812255859375,-0.73187255859375,-0.0069580078125,-41.6875,51.375,-11.0,9.55,1.9,-1.07,moving,3
9.17,1848433.833373699,23,3,3,0,3,4.83,2.72,0.94,-4.67,0.8,2.37,-33.5625,-218.25,-3.875,0.653564453125,0.13623046875,-0.744384765625,-0.01190185546875,-41.6875,51.375,-11.0,9.51,1.92,-1.42,moving,3
9.18,1848433.866400066,23,3,3,0,3,3.76,3.02,0.11,-5.69,1.04,1.77,-23.4375,-149.75,-32.1875,0.64404296875,0.1368408203125,-0.75244140625,-0.01708984375,-41.6875,51.375,-11.0,9.45,1.98,-1.66,moving,3
9.19,1848433.866400066,23,3,3,0,3,2.47,3.24,-0.6,-6.93,1.15,1.2,-50.75,-96.5625,-57.1875,0.63818359375,0.1375732421875,-0.757080078125,-0.0247802734375,-41.6875,51.375,-11.0,9.4,2.08,-1.8,moving,3
9.2,1848433.875739462,23,3,3,0,3,2.47,3.24,-0.6,-6.93,1.15,1.2,-50.75,-96.5625,-57.1875,0.63818359375,0.1375732421875,-0.757080078125,-0.0247802734375,-41.6875,51.375,-11.0,9.4,2.08,-1.8,moving,3
9.2,1848433.875739462,23,3,3,0,3,1.54,2.72,-0.68,-7.82,0.48,1.17,-83.625,-53.25,-78.4375,0.63543701171875,0.13800048828125,-0.7589111328125,-0.0352783203125,-45.0,47.375,-11.6875,9.36,2.24,-1.86,moving,3
9.21,1848433.883730022,23,3,3,0,3,-0.74,1.56,1.29,-10.07,-0.86,3.09,-108.5625,12.6875,-93.0,0.63726806640625,0.13818359375,-0.7567138671875,-0.0474853515625,-45.0,47.375,-11.6875,9.32,2.43,-1.79,moving,3
9.22,1848433.883730022,23,3,3,0,3,-1.3,1.34,2.17,-10.61,-1.31,3.72,-129.875,121.9375,-118.75,0.646240234375,0.1392822265625,-0.747802734375,-0.06121826171875,-45.0,47.375,-11.6875,9.31,2.66,-1.54,moving,3
9.23,1848433.907568645,23,3,3,0,3,-0.89,0.85,3.62,-10.19,-2.09,4.67,-163.875,253.125,-158.125,0.66357421875,0.14166259765625,-0.73046875,-0.07769775390625,-45.0,47.375,-11.6875,9.29,2.95,-1.05,moving,3
9.24,1848433.907568645,23,3,3,0,3,-0.28,0.56,3.78,-9.52,-2.71,4.09,-230.1875,385.375,-180.5625,0.68914794921875,0.142333984375,-0.7037353515625,-0.09796142578125,-45.0,47.375,-11.6875,9.23,3.27,-0.3,moving,3
9.25,1848433.918591676,23,3,3,0,3,-0.73,-0.06,0.84,-9.86,-3.59,0.17,-311.0,492.0,-166.3125,0.72076416015625,0.13787841796875,-0.66845703125,-0.12078857421875,-48.1875,46.0,-6.75,9.12,3.53,0.66,moving,3
9.26,1848433.918591676,23,3,3,0,3,0.02,-1.16,-1.03,-8.9,-4.82,-2.76,-408.625,509.75,-133.1875,0.75274658203125,0.1251220703125,-0.62945556640625,-0.1466064453125,-48.1875,46.0,-6.75,8.93,3.65,1.72,moving,3
9.27,1848433.939554119,23,3,3,0,3,0.27,-1.39,-3.42,-8.43,-5.01,-6.11,-510.5,412.375,-100.5,0.77838134765625,0.10223388671875,-0.59375,-0.17645263671875,-48.1875,46.0,-6.75,8.71,3.61,2.68,moving,3
9.28,1848433.939554119,23,3,3,0,3,0.58,-1.79,-9.73,-7.94,-5.23,-13.14,-558.25,251.25,-83.3125,0.79388427734375,0.0723876953125,-0.56658935546875,-0.20849609375,-48.1875,46.0,-6.75,8.52,3.44,3.4,moving,3
9.29,1848433.953970582,23,3,3,0,3,2.84,-2.43,-11.3,-5.62,-5.7,-15.02,-479.5625,21.5,-82.4375,0.7957763671875,0.04364013671875,-0.55535888671875,-0.237548828125,-48.1875,46.0,-6.75,8.46,3.26,3.72,moving,3
9.3,1848433.953970582,23,3,3,0,3,6.29,-1.47,-9.69,-2.29,-4.65,-13.18,-280.625,-259.9375,-57.4375,0.7825927734375,0.02154541015625,-0.5670166015625,-0.2559814453125,-50.375,41.5625,-12.875,8.59,3.17,3.49,moving,3
9.31,1848433.988183717,23,3,3,0,3,10.25,-0.2,-9.21,1.35,-3.32,-11.89,-49.5,-546.0,14.625,0.755126953125,0.0052490234375,-0.6025390625,-0.2581787109375,-50.375,41.5625,-12.875,8.89,3.12,2.68,moving,3
9.32,1848433.988183717,23,3,3,0,3,18.23,0.37,-11.67,8.97,-2.64,-12.88,182.125,-869.625,105.8125,0.70953369140625,-0.00787353515625,-0.6619873046875,-0.24127197265625,-50.375,41.5625,-12.875,9.25,3.02,1.2,moving,3
9.33,1848433.998390178,23,3,3,0,3,24.86,1.58,-11.26,15.5,-1.19,-10.4,424.5625,-1141.1875,156.75,0.6435546875,-0.01458740234375,-0.7373046875,-0.205078125,-50.375,41.5625,-12.875,9.36,2.78,-0.85,moving,3
9.34,1848433.998390178,23,3,3,0,3,36.12,3.67,-12.24,27.07,1.24,-9.38,612.5625,-1071.0,91.8125,0.57373046875,-0.0052490234375,-0.8035888671875,-0.158203125,-50.375,41.5625,-12.875,9.05,2.43,-2.86,moving,3
9.35,1848434.014166708,23,3,3,0,3,39.25,7.54,-14.63,30.53,5.39,-10.69,537.875,-556.4375,-21.0,0.53338623046875,0.01544189453125,-0.8370361328125,-0.12103271484375,-51.25,43.0625,4.25,8.72,2.14,-3.93,moving,3
9.36,1848434.014166708,23,3,3,0,3,38.88,26.43,7.2,30.09,24.32,11.0,255.25,153.6875,-91.1875,0.5430908203125,0.03558349609375,-0.8321533203125,-0.10638427734375,-51.25,43.0625,4.25,8.78,2.11,-3.8,moving,3
9.37,1848434.046260865,23,3,3,0,3,23.49,30.32,-2.36,14.32,28.07,0.27,-142.25,707.5,-40.4375,0.59326171875,0.0382080078125,-0.795654296875,-0.11614990234375,-51.25,43.0625,4.25,9.17,2.25,-2.63,moving,3
9.38,1848434.046260865,23,3,3,0,3,11.39,12.6,-7.51,2.04,10.12,-5.9,-289.4375,565.0,-71.0,0.6317138671875,0.03387451171875,-0.7620849609375,-0.1378173828125,-51.25,43.0625,4.25,9.35,2.47,-1.6,moving,3
9.39,1848434.060282675,23,3,3,0,3,10.88,4.48,-1.78,1.48,1.92,-0.68,-173.75,267.4375,-24.3125,0.64947509765625,0.02911376953125,-0.74493408203125,-0.14990234375,-51.25,43.0625,4.25,9.4,2.56,-1.09,moving,3
9.4,1848434.060282675,23,3,3,0,3,12.45,3.3,2.97,3.01,0.83,3.9,-41.375,90.3125,58.75,0.6561279296875,0.024169921875,-0.7393798828125,-0.1490478515625,-41.0625,50.6875,11.875,9.44,2.47,-0.92,moving,3
9.41,1848434.074826132,23,3,3,0,3,13.39,2.49,4.14,3.94,0.08,5.12,66.6875,-18.0625,30.9375,0.65521240234375,0.0257568359375,-0.7413330078125,-0.14300537109375,-41.0625,50.6875,11.875,9.45,2.41,-0.98,moving,3
9.42,1848434.074826132,23,3,3,0,3,12.4,1.69,2.75,2.96,-0.72,3.85,168.625,-20.3125,-26.625,0.653076171875,0.036865234375,-0.7445068359375,-0.1336669921875,-41.0625,50.6875,11.875,9.43,2.42,-1.09,moving,3
9.43,1848434.105306967,23,3,3,0,3,8.65,1.65,1.01,-0.76,-0.8,2.16,256.9375,26.375,-52.6875,0.65313720703125,0.05523681640625,-0.74566650390625,-0.119873046875,-41.0625,50.6875,11.875,9.42,2.46,-1.15,moving,3
9.44,1848434.105306967,23,3,3,0,3,6.21,1.56,0.27,-3.2,-0.92,1.44,291.3125,73.25,-52.9375,0.65570068359375,0.0760498046875,-0.7440185546875,-0.10357666015625,-41.0625,50.6875,11.875,9.41,2.48,-1.16,moving,3
9.45,1848434.118585328,23,3,3,0,3,4.33,1.34,-0.27,-5.08,-1.14,0.83,254.0,98.6875,-29.625,0.65997314453125,0.0933837890625,-0.740234375,-0.08807373046875,-44.375,49.5625,6.5625,9.42,2.48,-1.11,moving,3
9.46,1848434.118585328,23,3,3,0,3,3.1,0.56,-0.18,-6.33,-1.87,0.82,171.25,108.875,4.9375,0.66552734375,0.103759765625,-0.7352294921875,-0.07586669921875,-44.375,49.5625,6.5625,9.44,2.44,-1.0,moving,3
9.46,1848434.13286255,23,3,3,0,3,3.1,0.56,-0.18,-6.33,-1.87,0.82,171.25,108.875,4.9375,0.66552734375,0.103759765625,-0.7352294921875,-0.07586669921875,-44.375,49.5625,6.5625,9.44,2.44,-1.0,moving,3
9.47,1848434.13286255,23,3,3,0,3,0.95,-0.46,0.61,-8.51,-2.84,1.47,74.9375,109.9375,31.0,0.6719970703125,0.1068115234375,-0.7296142578125,-0.0682373046875,-44.375,49.5625,6.5625,9.47,2.38,-0.85,moving,3
9.48,1848434.148845582,23,3,3,0,3,-0.08,-0.73,1.24,-9.58,-3.06,1.91,-3.3125,114.5,34.3125,0.67950439453125,0.10516357421875,-0.72314453125,-0.06536865234375,-44.375,49.5625,6.5625,9.5,2.32,-0.66,moving,3
9.49,1848434.148845582,23,3,3,0,3,-0.95,-0.92,2.03,-10.48,-3.22,2.41,-51.625,158.4375,20.75,0.69000244140625,0.1016845703125,-0.713623046875,-0.06597900390625,-44.375,49.5625,6.5625,9.52,2.29,-0.38,moving,3
9.5,1848434.161076254,23,3,3,0,3,-1.67,-0.32,2.11,-11.2,-2.63,2.05,-72.1875,250.5625,-6.625,0.70599365234375,0.09918212890625,-0.6978759765625,-0.06866455078125,-46.5625,47.375,-4.5,9.52,2.31,0.06,moving,3
9.51,1848434.161076254,23,3,3,0,3,-2.99,-0.34,1.79,-12.48,-2.71,1.1,-70.8125,360.5625,-38.75,0.72796630859375,0.09930419921875,-0.674560546875,-0.07220458984375,-46.5625,47.375,-4.5,9.49,2.37,0.68,moving,3
9.52,1848434.196536174,23,3,3,0,3,-2.23,-1.41,0.02,-11.61,-3.86,-1.44,-63.25,457.75,-53.625,0.75445556640625,0.10125732421875,-0.64410400390625,-0.0753173828125,-46.5625,47.375,-4.5,9.38,2.44,1.46,moving,3
9.53,1848434.196536174,23,3,3,0,3,-1.49,-3.16,-2.49,-10.7,-5.64,-4.76,-39.875,484.375,-24.1875,0.7811279296875,0.10308837890625,-0.6112060546875,-0.07476806640625,-46.5625,47.375,-4.5,9.21,2.47,2.27,moving,3
9.54,1848434.208969443,23,3,3,0,3,-2.2,-3.24,-3.25,-11.23,-5.67,-6.22,-6.9375,439.875,28.375,0.80426025390625,0.1038818359375,-0.5810546875,-0.0692138671875,-46.5625,47.375,-4.5,9.02,2.42,2.97,moving,3
9.55,1848434.208969443,23,3,3,0,3,-0.94,-0.55,-6.69,-9.77,-2.93,-10.23,29.4375,368.5625,42.9375,0.82244873046875,0.10595703125,-0.55548095703125,-0.06134033203125,-44.375,48.875,-12.5,8.83,2.37,3.53,moving,3
9.56,1848434.220935426,23,3,3,0,3,1.5,-0.72,-7.47,-7.21,-3.1,-11.26,91.9375,193.9375,34.5,0.8310546875,0.11187744140625,-0.54229736328125,-0.0526123046875,-44.375,48.875,-12.5,8.72,2.38,3.79,moving,3
9.57,1848434.220935426,23,3,3,0,3,5.01,-1.44,-6.22,-3.78,-3.82,-9.84,165.6875,-70.5,71.8125,0.8262939453125,0.12017822265625,-0.548828125,-0.040283203125,-44.375,48.875,-12.5,8.79,2.38,3.61,moving,3
9.58,1848434.271808351,23,3,3,0,3,7.85,-1.01,-5.14,-1.2,-3.28,-8.14,237.3125,-330.75,159.125,0.80792236328125,0.12841796875,-0.57476806640625,-0.0208740234375,-44.375,48.875,-12.5,9.05,2.27,3.0,moving,3
9.59,1848434.271808351,23,3,3,0,3,14.36,0.09,-7.37,4.97,-1.94,-9.31,325.9375,-588.9375,230.25,0.77362060546875,0.13848876953125,-0.6182861328125,0.00506591796875,-44.375,48.875,-12.5,9.39,2.03,1.93,moving,3
9.6,1848434.276936769,23,3,3,0,3,19.18,0.0,-10.67,9.52,-1.67,-10.96,438.4375,-905.0625,265.1875,0.7164306640625,0.153564453125,-0.67962646484375,0.03558349609375,-38.25,48.5,-26.1875,9.65,1.68,0.28,moving,3
9.61,1848434.276936769,23,3,3,0,3,24.27,0.01,-13.64,14.71,-1.13,-11.75,559.9375,-1218.875,274.8125,0.63134765625,0.1748046875,-0.75238037109375,0.069091796875,-38.25,48.5,-26.1875,9.55,1.14,-1.89,moving,3
9.62,1848434.288994711,23,3,3,0,3,37.64,5.34,-4.26,28.69,4.89,-0.29,547.6875,-1235.5,254.5625,0.53643798828125,0.19427490234375,-0.815185546875,0.09954833984375,-38.25,48.5,-26.1875,8.95,0.45,-3.96,moving,3
9.63,1848434.288994711,23,3,3,0,3,39.25,12.04,-18.02,30.74,11.98,-13.13,128.4375,-600.0625,196.125,0.48907470703125,0.1912841796875,-0.84417724609375,0.1075439453125,-38.25,48.5,-26.1875,8.5,0.05,-4.88,moving,3
9.64,1848434.316013307,23,3,3,0,3,37.04,13.94,-8.68,28.45,13.87,-3.96,-260.75,107.0625,139.5,0.49981689453125,0.16876220703125,-0.8441162109375,0.09600830078125,-38.25,48.5,-26.1875,8.59,0.06,-4.72,moving,3
9.65,1848434.316013307,23,3,3,0,3,26.7,2.06,-5.08,17.6,1.83,-1.43,-308.125,689.125,39.0625,0.55352783203125,0.14642333984375,-0.81549072265625,0.08502197265625,-42.5625,47.75,-15.875,9.09,0.22,-3.65,moving,3
9.66,1848434.325765992,23,3,3,0,3,14.26,-2.79,-4.06,4.75,-3.21,-1.68,-246.875,777.1875,-38.75,0.61065673828125,0.13116455078125,-0.77734375,0.07525634765625,-42.5625,47.75,-15.875,9.5,0.42,-2.38,moving,3
9.67,1848434.325765992,23,3,3,0,3,11.55,0.82,-2.99,1.88,0.14,-1.51,-193.625,527.6875,-115.5,0.6485595703125,0.12506103515625,-0.748291015625,0.06195068359375,-42.5625,47.75,-15.875,9.67,0.68,-1.48,moving,3
9.68,1848434.359856731,23,3,3,0,3,12.32,0.92,-1.72,2.61,-0.1,-0.77,-83.9375,311.5,-196.6875,0.67047119140625,0.13140869140625,-0.72857666015625,0.0487060546875,-42.5625,47.75,-15.875,9.7,1.03,-0.94,moving,3
9.69,1848434.359856731,23,3,3,0,3,10.95,0.44,0.31,1.26,-0.86,1.03,-15.3125,129.875,-162.5625,0.679443359375,0.1402587890625,-0.71905517578125,0.03973388671875,-42.5625,47.75,-15.875,9.69,1.3,-0.72,moving,3
9.7,1848434.375806275,23,3,3,0,3,6.59,2.22,-1.27,-3.08,0.82,-0.53,-39.1875,-18.625,-49.125,0.67889404296875,0.14111328125,-0.7197265625,0.03411865234375,-39.0,52.5,-14.375,9.67,1.39,-0.74,moving,3
9.71,1848434.375806275,23,3,3,0,3,6.99,1.46,-2.61,-2.66,0.07,-1.63,-62.625,-150.125,11.25,0.67010498046875,0.1370849609375,-0.7288818359375,0.02899169921875,-39.0,52.5,-14.375,9.65,1.38,-0.98,moving,3
9.72,1848434.390600424,23,3,3,0,3,7.26,0.85,-2.79,-2.34,-0.5,-1.38,-54.9375,-261.875,26.25,0.65386962890625,0.13287353515625,-0.74444580078125,0.02386474609375,-39.0,52.5,-14.375,9.6,1.35,-1.41,moving,3
9.72,1848434.390600424,23,3,3,0,3,7.26,0.85,-2.79,-2.34,-0.5,-1.38,-54.9375,-261.875,26.25,0.65386962890625,0.13287353515625,-0.74444580078125,0.02386474609375,-39.0,52.5,-14.375,9.6,1.35,-1.41,moving,3
9.73,1848434.406763836,23,3,3,0,3,7.37,0.94,-2.34,-2.14,-0.37,-0.4,-42.5,-319.125,25.125,0.63330078125,0.12945556640625,-0.76275634765625,0.01885986328125,-39.0,52.5,-14.375,9.52,1.32,-1.93,moving,3
9.74,1848434.406763836,23,3,3,0,3,7.87,0.63,-0.53,-1.54,-0.7,1.83,-28.9375,-268.375,1.625,0.6156005859375,0.12811279296875,-0.7774658203125,0.01397705078125,-39.0,52.5,-14.375,9.42,1.33,-2.37,moving,3
9.75,1848434.418244182,23,3,3,0,3,6.18,0.42,-0.4,-3.16,-0.96,2.21,-32.875,-152.25,-25.625,0.6055908203125,0.1282958984375,-0.78533935546875,0.0086669921875,-42.0,49.5625,-14.6875,9.34,1.39,-2.61,moving,3
9.76,1848434.418244182,23,3,3,0,3,4.42,0.48,0.13,-4.89,-1.01,2.79,-65.625,-33.5,-47.0,0.60400390625,0.1280517578125,-0.78662109375,0.00128173828125,-42.0,49.5625,-14.6875,9.32,1.49,-2.65,moving,3
9.77,1848434.450750327,23,3,3,0,3,2.48,0.89,0.04,-6.85,-0.76,2.54,-103.1875,76.625,-70.75,0.6103515625,0.12750244140625,-0.78173828125,-0.0086669921875,-42.0,49.5625,-14.6875,9.33,1.65,-2.49,moving,3
9.78,1848434.450750327,23,3,3,0,3,1.76,1.47,1.04,-7.6,-0.39,3.24,-122.9375,155.625,-100.375,0.62213134765625,0.12786865234375,-0.77215576171875,-0.02069091796875,-42.0,49.5625,-14.6875,9.36,1.87,-2.2,moving,3
9.79,1848434.465795126,23,3,3,0,3,0.33,2.57,2.51,-9.06,0.42,4.3,-140.75,223.125,-136.6875,0.63824462890625,0.12982177734375,-0.75799560546875,-0.03509521484375,-42.0,49.5625,-14.6875,9.39,2.14,-1.79,moving,3
9.8,1848434.465795126,23,3,3,0,3,-1.04,3.28,3.01,-10.46,0.8,4.21,-169.3125,322.9375,-174.0,0.6605224609375,0.1328125,-0.73712158203125,-0.05230712890625,-43.375,49.875,-5.875,9.41,2.47,-1.19,moving,3
9.81,1848434.480128907,23,3,3,0,3,-2.11,2.24,0.79,-11.49,-0.57,1.2,-213.8125,419.0,-187.125,0.68841552734375,0.13433837890625,-0.70916748046875,-0.0718994140625,-43.375,49.875,-5.875,9.38,2.81,-0.41,moving,3
9.82,1848434.480128907,23,3,3,0,3,-1.51,1.62,-1.36,-10.8,-1.47,-1.81,-295.375,435.375,-178.0,0.716796875,0.13018798828125,-0.67828369140625,-0.09564208984375,-43.375,49.875,-5.875,9.29,3.1,0.45,moving,3
9.83,1848434.496247438,23,3,3,0,3,-1.14,1.3,-3.17,-10.29,-1.99,-4.42,-392.1875,360.75,-157.875,0.74041748046875,0.117919921875,-0.64990234375,-0.12451171875,-43.375,49.875,-5.875,9.15,3.29,1.24,moving,3
9.84,1848434.496247438,23,3,3,0,3,-1.0,0.67,-4.06,-10.01,-2.68,-5.98,-477.1875,245.875,-120.9375,0.757080078125,0.09649658203125,-0.62689208984375,-0.15667724609375,-43.375,49.875,-5.875,9.01,3.35,1.91,moving,3
9.85,1848434.521117596,23,3,3,0,3,0.25,-1.27,-5.69,-8.66,-4.54,-8.13,-536.0,140.5,-70.75,0.76739501953125,0.06683349609375,-0.6090087890625,-0.18927001953125,-47.375,45.1875,-10.0625,8.91,3.26,2.44,moving,3
9.86,1848434.521117596,23,3,3,0,3,0.12,-2.25,-9.1,-8.74,-5.33,-11.91,-536.1875,43.3125,-39.25,0.77130126953125,0.03375244140625,-0.59637451171875,-0.2198486328125,-47.375,45.1875,-10.0625,8.87,3.08,2.8,moving,3
9.87,1848434.541375815,23,3,3,0,3,1.78,-3.53,-12.43,-7.12,-6.48,-15.28,-432.875,-116.9375,-49.6875,0.764892578125,0.0050048828125,-0.5953369140625,-0.24591064453125,-47.375,45.1875,-10.0625,8.9,2.94,2.85,moving,3
9.88,1848434.541375815,23,3,3,0,3,6.72,-3.73,-12.47,-2.31,-6.65,-14.88,-227.375,-361.9375,-50.25,0.74456787109375,-0.01531982421875,-0.61419677734375,-0.26104736328125,-47.375,45.1875,-10.0625,9.04,2.92,2.4,moving,3
9.89,1848434.556052288,23,3,3,0,3,18.45,-3.17,-11.96,9.18,-6.08,-13.33,15.6875,-643.5625,9.5,0.70916748046875,-0.0294189453125,-0.65533447265625,-0.25830078125,-47.375,45.1875,-10.0625,9.26,2.91,1.36,moving,3
9.9,1848434.556052288,23,3,3,0,3,24.6,-2.46,-13.87,15.2,-5.24,-13.61,276.625,-910.625,97.5,0.65771484375,-0.0382080078125,-0.7152099609375,-0.23333740234375,-49.1875,45.1875,-0.875,9.4,2.77,-0.25,moving,3
9.91,1848434.586907268,23,3,3,0,3,32.45,-0.06,-14.17,23.22,-2.52,-11.98,540.875,-1037.25,123.375,0.5941162109375,-0.03582763671875,-0.78125,-0.18804931640625,-49.1875,45.1875,-0.875,9.23,2.46,-2.18,moving,3
9.92,1848434.586907268,23,3,3,0,3,39.25,7.49,-6.4,30.4,5.41,-2.71,676.625,-775.875,21.8125,0.54150390625,-0.014892578125,-0.8292236328125,-0.13775634765625,-49.1875,45.1875,-0.875,8.84,2.08,-3.68,moving,3
9.93,1848434.599170045,23,3,3,0,3,39.23,30.86,17.56,30.47,28.86,21.47,441.3125,-48.0,-135.5,0.5364990234375,0.01513671875,-0.8363037109375,-0.112060546875,-49.1875,45.1875,-0.875,8.76,1.99,-3.91,moving,3
9.94,1848434.599170045,23,3,3,0,3,28.08,33.81,-0.98,18.95,31.6,1.82,-32.5625,701.0625,-125.875,0.58526611328125,0.02960205078125,-0.80145263671875,-0.11920166015625,-49.1875,45.1875,-0.875,9.13,2.21,-2.8,moving,3
9.95,1848434.61745101,23,3,3,0,3,9.23,11.36,-12.37,-0.08,8.87,-10.6,-152.0625,608.0625,-131.5625,0.62579345703125,0.03729248046875,-0.767333984375,-0.134765625,-41.0,48.1875,21.375,9.31,2.48,-1.76,moving,3
9.96,1848434.61745101,23,3,3,0,3,9.94,2.86,-3.79,0.58,0.26,-2.44,-60.3125,245.0,-58.25,0.64154052734375,0.040771484375,-0.7529296875,-0.14117431640625,-41.0,48.1875,21.375,9.36,2.59,-1.34,moving,3
9.97,1848434.648097657,23,3,3,0,3,11.8,3.06,-0.39,2.42,0.53,0.92,30.4375,24.8125,38.0,0.64349365234375,0.04034423828125,-0.75201416015625,-0.136962890625,-41.0,48.1875,21.375,9.38,2.52,-1.31,moving,3
9.98,1848434.648097657,23,3,3,0,3,11.8,3.06,-0.39,2.42,0.53,0.92,30.4375,24.8125,38.0,0.64349365234375,0.04034423828125,-0.75201416015625,-0.136962890625,-41.0,48.1875,21.375,9.38,2.52,-1.31,moving,3
9.98,1848434.65777234,23,3,3,0,3,13.75,3.36,5.61,4.39,0.9,7.16,67.75,-121.875,34.125,0.63555908203125,0.04046630859375,-0.759765625,-0.13104248046875,-41.0,48.1875,21.375,9.36,2.45,-1.54,moving,3
9.99,1848434.65777234,23,3,3,0,3,13.66,2.19,4.38,4.31,-0.27,6.05,59.3125,-57.5625,-19.375,0.63128662109375,0.04437255859375,-0.7635498046875,-0.12841796875,-41.0,48.1875,21.375,9.34,2.47,-1.66,moving,3
10.0,1848434.676144288,23,3,3,0,3,10.0,-0.36,1.44,0.66,-2.9,3.03,87.5625,68.5625,-58.5,0.634765625,0.05389404296875,-0.760498046875,-0.12554931640625,-44.6875,48.875,7.0,9.33,2.54,-1.59,moving,3
10.01,1848434.676144288,23,3,3,0,3,7.8,-0.84,0.6,-1.55,-3.45,1.91,138.125,209.3125,-62.9375,0.64715576171875,0.0679931640625,-0.75,-0.11883544921875,-44.6875,48.875,7.0,9.36,2.61,-1.31,moving,3
10.02,1848434.69064913,23,3,3,0,3,4.89,-0.82,-0.14,-4.5,-3.45,0.74,152.9375,306.25,-26.8125,0.6656494140625,0.08154296875,-0.73382568359375,-0.1085205078125,-44.6875,48.875,7.0,9.4,2.62,-0.88,moving,3
10.03,1848434.69064913,23,3,3,0,3,2.05,-1.23,-0.17,-7.39,-3.82,0.25,120.5,314.6875,14.875,0.684814453125,0.09051513671875,-0.71649169921875,-0.09765625,-44.6875,48.875,7.0,9.44,2.58,-0.42,moving,3
10.04,1848434.701631145,23,3,3,0,3,-2.18,-2.75,1.07,-11.66,-5.28,1.04,60.125,291.1875,33.375,0.7025146484375,0.094482421875,-0.69964599609375,-0.08953857421875,-44.6875,48.875,7.0,9.47,2.53,0.03,moving,3
10.05,1848434.701631145,23,3,3,0,3,-3.27,-2.39,0.71,-12.74,-4.88,0.19,-3.5,293.6875,21.625,0.72039794921875,0.09521484375,-0.68157958984375,-0.08599853515625,-45.375,48.1875,0.5,9.46,2.49,0.51,moving,3
10.06,1848434.737531577,23,3,3,0,3,-3.97,-1.83,0.24,-13.39,-4.35,-0.81,-37.8125,320.75,-17.3125,0.7393798828125,0.09625244140625,-0.6607666015625,-0.086669921875,-45.375,48.1875,0.5,9.41,2.51,1.06,moving,3
10.07,1848434.737531577,23,3,3,0,3,-2.61,-2.04,-0.93,-11.92,-4.63,-2.61,-36.4375,367.0625,-52.1875,0.760009765625,0.09967041015625,-0.63604736328125,-0.0889892578125,-45.375,48.1875,0.5,9.3,2.59,1.67,moving,3
10.08,1848434.74994035,23,3,3,0,3,-2.71,-1.85,-1.83,-11.85,-4.52,-4.17,-8.75,409.6875,-45.5625,0.78192138671875,0.104736328125,-0.6080322265625,-0.0888671875,-45.375,48.1875,0.5,9.14,2.66,2.34,moving,3
10.09,1848434.74994035,23,3,3,0,3,-2.85,-1.51,-3.61,-11.78,-4.21,-6.63,38.875,440.875,-8.0,0.80426025390625,0.11114501953125,-0.5777587890625,-0.08331298828125,-45.375,48.1875,0.5,8.93,2.69,3.01,moving,3
10.1,1848434.763199139,23,3,3,0,3,-2.61,-0.96,-5.18,-11.32,-3.66,-8.79,92.0625,409.625,29.5625,0.82366943359375,0.1190185546875,-0.54962158203125,-0.07257080078125,-43.1875,48.875,-12.0625,8.71,2.7,3.6,moving,3
10.11,1848434.763199139,23,3,3,0,3,0.91,-0.6,-5.82,-7.63,-3.33,-9.78,147.6875,283.4375,48.8125,0.835693359375,0.1290283203125,-0.530517578125,-0.05902099609375,-43.1875,48.875,-12.0625,8.54,2.72,3.95,moving,3
10.12,1848434.797594606,23,3,3,0,3,2.86,-0.58,-4.96,-5.64,-3.35,-8.97,205.4375,96.0,69.375,0.8380126953125,0.1412353515625,-0.5252685546875,-0.0433349609375,-43.1875,48.875,-12.0625,8.51,2.76,4.0,moving,3
10.13,1848434.797594606,23,3,3,0,3,4.16,-0.04,-4.36,-4.46,-2.8,-8.1,250.0,-94.125,114.0625,0.83074951171875,0.1539306640625,-0.53436279296875,-0.02471923828125,-43.1875,48.875,-12.0625,8.63,2.76,3.74,moving,3
10.14,1848434.810215496,23,3,3,0,3,5.86,0.38,-4.33,-3.02,-2.29,-7.49,281.4375,-293.625,167.625,0.81304931640625,0.16571044921875,-0.55810546875,-0.00335693359375,-43.1875,48.875,-12.0625,8.88,2.67,3.15,moving,3
10.15,1848434.810215496,23,3,3,0,3,13.14,2.62,-6.5,3.9,0.14,-8.64,317.0625,-551.125,218.5,0.78033447265625,0.1771240234375,-0.5994873046875,0.01959228515625,-37.5,47.0,-27.75,9.24,2.48,2.14,moving,3
10.16,1848434.824186687,23,3,3,0,3,17.23,3.7,-7.72,7.67,1.56,-8.27,391.8125,-870.875,264.625,0.72552490234375,0.19073486328125,-0.65972900390625,0.04443359375,-37.5,47.0,-27.75,9.55,2.13,0.55,moving,3
10.17,1848434.824186687,23,3,3,0,3,23.32,3.45,-12.07,13.76,1.85,-10.57,494.75,-1138.125,300.25,0.6466064453125,0.2078857421875,-0.7303466796875,0.07257080078125,-37.5,47.0,-27.75,9.55,1.59,-1.5,moving,3
10.18,1848434.856875408,23,3,3,0,3,34.7,3.01,-18.71,25.66,2.17,-15.0,563.0,-1285.75,310.0,0.54815673828125,0.22625732421875,-0.7987060546875,0.101806640625,-37.5,47.0,-27.75,9.03,0.83,-3.7,moving,3
10.19,1848434.856875408,23,3,3,0,3,39.24,2.44,-13.54,30.92,2.21,-8.35,369.0625,-954.625,213.9375,0.470458984375,0.23651123046875,-0.84185791015625,0.118408203125,-37.5,47.0,-27.75,8.31,0.22,-5.19,moving,3
10.2,1848434.871170574,23,3,3,0,3,37.76,13.27,-16.1,29.5,13.18,-10.81,-181.625,-69.1875,203.9375,0.46685791015625,0.2147216796875,-0.85052490234375,0.11199951171875,-41.5,45.5625,-23.1875,8.25,0.09,-5.28,moving,3
10.21,1848434.871170574,23,3,3,0,3,28.43,6.45,-11.89,19.69,6.18,-7.45,-431.3125,561.875,133.5,0.51422119140625,0.181396484375,-0.832763671875,0.09576416015625,-41.5,45.5625,-23.1875,8.73,0.26,-4.44,moving,3
10.22,1848434.883823366,23,3,3,0,3,16.83,-2.26,-0.11,7.61,-2.8,3.18,-334.375,715.9375,-31.3125,0.57037353515625,0.16229248046875,-0.80108642578125,0.0811767578125,-41.5,45.5625,-23.1875,9.22,0.54,-3.29,moving,3
10.23,1848434.883823366,23,3,3,0,3,13.4,-1.25,2.46,3.89,-2.15,4.67,-243.5625,648.6875,-151.1875,0.6190185546875,0.1558837890625,-0.76690673828125,0.065673828125,-41.5,45.5625,-23.1875,9.51,0.9,-2.2,moving,3
10.24,1848434.900339804,23,3,3,0,3,13.4,-1.25,2.46,3.89,-2.15,4.67,-243.5625,648.6875,-151.1875,0.6190185546875,0.1558837890625,-0.76690673828125,0.065673828125,-41.5,45.5625,-23.1875,9.51,0.9,-2.2,moving,3
10.24,1848434.900339804,23,3,3,0,3,10.95,0.75,4.0,1.31,-0.57,5.24,-202.375,556.625,-221.9375,0.65924072265625,0.1563720703125,-0.73394775390625,0.04766845703125,-41.5,45.5625,-23.1875,9.63,1.33,-1.23,moving,3
10.25,1848434.913049318,23,3,3,0,3,6.35,2.17,4.33,-3.29,0.46,4.76,-210.4375,449.75,-207.75,0.69097900390625,0.155517578125,-0.70538330078125,0.02838134765625,-41.6875,50.1875,-11.6875,9.64,1.71,-0.42,moving,3
10.26,1848434.913049318,23,3,3,0,3,1.56,2.93,1.81,-8.04,1.01,1.59,-239.8125,341.4375,-120.0,0.71502685546875,0.14752197265625,-0.68328857421875,0.010986328125,-41.6875,50.1875,-11.6875,9.61,1.92,0.22,moving,3
10.27,1848434.94629122,23,3,3,0,3,1.61,2.52,-0.15,-7.96,0.54,-0.86,-240.5,241.125,-49.1875,0.732177734375,0.13519287109375,-0.66754150390625,-0.0032958984375,-41.6875,50.1875,-11.6875,9.57,1.98,0.7,moving,3
10.28,1848434.94629122,23,3,3,0,3,1.06,2.3,-1.65,-8.49,0.31,-2.6,-193.0625,106.9375,-21.625,0.74053955078125,0.1241455078125,-0.6602783203125,-0.01470947265625,-41.6875,50.1875,-11.6875,9.55,1.99,0.95,moving,3
10.29,1848434.956067221,23,3,3,0,3,0.3,2.16,-2.43,-9.24,0.15,-3.36,-111.375,-35.25,-21.125,0.7396240234375,0.11810302734375,-0.66217041015625,-0.0228271484375,-41.6875,50.1875,-11.6875,9.55,2.01,0.93,moving,3
10.3,1848434.956067221,23,3,3,0,3,-0.76,1.73,-1.77,-10.33,-0.32,-2.43,-23.0,-168.0625,-32.8125,0.72998046875,0.1181640625,-0.672607421875,-0.02801513671875,-40.875,49.0625,-18.5625,9.56,2.06,0.66,moving,3
10.31,1848434.975315309,23,3,3,0,3,-0.92,1.36,-0.45,-10.49,-0.77,-0.65,52.75,-263.6875,-47.4375,0.713623046875,0.1236572265625,-0.6888427734375,-0.03070068359375,-40.875,49.0625,-18.5625,9.56,2.14,0.2,moving,3
10.32,1848434.975315309,23,3,3,0,3,-0.74,1.04,1.66,-10.28,-1.2,1.99,89.5,-295.6875,-60.1875,0.6944580078125,0.13201904296875,-0.70660400390625,-0.0322265625,-40.875,49.0625,-18.5625,9.54,2.24,-0.32,moving,3
10.33,1848435.007850994,23,3,3,0,3,-0.2,1.11,1.94,-9.69,-1.24,2.67,83.0,-218.0625,-76.1875,0.6796875,0.14111328125,-0.718994140625,-0.03424072265625,-40.875,49.0625,-18.5625,9.48,2.36,-0.72,moving,3
10.34,1848435.007850994,23,3,3,0,3,0.0,1.53,2.54,-9.43,-0.98,3.44,57.0,-91.1875,-99.125,0.6728515625,0.15045166015625,-0.72332763671875,-0.03765869140625,-40.875,49.0625,-18.5625,9.43,2.52,-0.89,moving,3
10.35,1848435.023609132,23,3,3,0,3,-0.93,2.53,2.71,-10.32,-0.18,3.52,-12.375,49.1875,-117.375,0.67572021484375,0.15728759765625,-0.71881103515625,-0.04473876953125,-42.75,48.375,-13.25,9.38,2.71,-0.81,moving,3
10.36,1848435.023609132,23,3,3,0,3,-2.12,3.42,2.02,-11.46,0.47,2.42,-117.75,212.5,-138.8125,0.68988037109375,0.15985107421875,-0.7037353515625,-0.057373046875,-42.75,48.375,-13.25,9.34,2.95,-0.4,moving,3
10.37,1848435.035321535,23,3,3,0,3,-2.66,3.2,1.45,-11.92,-0.02,1.16,-233.4375,350.6875,-165.25,0.7132568359375,0.1575927734375,-0.67864990234375,-0.07672119140625,-42.75,48.375,-13.25,9.25,3.22,0.28,moving,3
10.38,1848435.035321535,23,3,3,0,3,-1.34,-0.11,-0.52,-10.44,-3.58,-1.68,-353.875,420.75,-176.875,0.74090576171875,0.14874267578125,-0.6468505859375,-0.102783203125,-42.75,48.375,-13.25,9.09,3.46,1.16,moving,3
10.39,1848435.067039715,23,3,3,0,3,-0.67,-1.35,-1.6,-9.55,-4.93,-3.7,-465.125,409.875,-160.5,0.76739501953125,0.1312255859375,-0.6131591796875,-0.13385009765625,-42.75,48.375,-13.25,8.88,3.58,2.09,moving,3
10.4,1848435.067039715,23,3,3,0,3,1.24,-2.35,-2.89,-7.41,-5.88,-5.83,-544.4375,336.875,-126.0625,0.78887939453125,0.10528564453125,-0.58184814453125,-0.16729736328125,-48.1875,44.375,-13.6875,8.65,3.53,2.94,moving,3
