timestamp,android_nano_timestamp,temperature,calib_mag,calib_accel,calib_gyro,calib_sys,acc_x,acc_y,acc_z,lacc_x,lacc_y,lacc_z,gyro_x,gyro_y,gyro_z,quat_w,quat_x,quat_y,quat_z,mag_x,mag_y,mag_z,gravity_x,gravity_y,gravity_z,label,person
4.38,30156.908251744,31,0,1,0,0,2.83,0.12,-2.56,-6.58,-0.11,0.14,48.125,163.0625,-35.75,0.5950927734375,0.13623046875,-0.78717041015625,0.08734130859375,18.25,37.375,5.0,9.42,0.24,-2.71,moving,11
4.39,30156.908251744,31,0,1,0,0,2.21,-0.01,-2.55,-7.3,-0.29,-0.19,76.375,213.625,-44.3125,0.60906982421875,0.1416015625,-0.77484130859375,0.09283447265625,18.25,37.375,5.0,9.51,0.28,-2.36,moving,11
4.4,30156.939039464,31,0,1,0,0,1.33,0.59,-3.3,-8.26,0.28,-1.34,68.9375,239.875,-34.0625,0.62457275390625,0.14556884765625,-0.76092529296875,0.0986328125,15.75,36.0,5.0,9.6,0.31,-1.96,moving,11
4.41,30156.939039464,31,0,1,0,0,0.96,1.16,-3.62,-8.7,0.83,-2.02,32.0625,219.5,-18.1875,0.6387939453125,0.1466064453125,-0.748291015625,0.1025390625,15.75,36.0,5.0,9.66,0.33,-1.59,moving,11
4.42,30156.954556147,31,0,1,0,0,0.71,1.34,-3.73,-8.99,0.99,-2.4,-15.75,160.1875,-6.0,0.6494140625,0.1446533203125,-0.7393798828125,0.10321044921875,15.75,36.0,5.0,9.71,0.34,-1.32,moving,11
4.43,30156.954556147,31,0,1,0,0,0.44,1.01,-3.58,-9.28,0.66,-2.4,-53.0625,85.125,5.375,0.655517578125,0.14056396484375,-0.73504638671875,0.10113525390625,15.75,36.0,5.0,9.72,0.34,-1.17,moving,11
4.44,30156.98332169,31,0,1,0,0,0.11,0.31,-3.17,-9.61,-0.02,-2.02,-68.9375,10.75,15.6875,0.65692138671875,0.135498046875,-0.7352294921875,0.0977783203125,15.75,36.0,5.0,9.73,0.33,-1.15,moving,11
4.45,30156.98332169,31,0,1,0,0,0.33,0.32,-3.08,-9.39,0.0,-1.83,-57.75,-60.25,17.8125,0.653564453125,0.13153076171875,-0.7393798828125,0.0943603515625,14.0,36.6875,1.1875,9.72,0.31,-1.25,moving,11
4.46,30156.987398513,31,0,1,0,0,0.63,0.42,-2.76,-9.05,0.11,-1.31,-26.4375,-120.0,8.75,0.64599609375,0.1304931640625,-0.74652099609375,0.091796875,14.0,36.6875,1.1875,9.69,0.3,-1.45,moving,11
4.46,30156.987398513,31,0,1,0,0,0.63,0.42,-2.76,-9.05,0.11,-1.31,-26.4375,-120.0,8.75,0.64599609375,0.1304931640625,-0.74652099609375,0.091796875,14.0,36.6875,1.1875,9.69,0.3,-1.45,moving,11
4.47,30156.99770259,31,0,1,0,0,1.14,0.43,-2.46,-8.5,0.11,-0.74,8.5,-155.4375,-2.8125,0.6357421875,0.13238525390625,-0.75506591796875,0.09039306640625,14.0,36.6875,1.1875,9.64,0.31,-1.71,moving,11
4.48,30156.99770259,31,0,1,0,0,1.69,-0.24,-1.29,-7.9,-0.56,0.7,31.75,-164.75,-9.8125,0.62451171875,0.13604736328125,-0.7637939453125,0.09002685546875,14.0,36.6875,1.1875,9.59,0.31,-1.99,moving,11
4.49,30157.030185419,31,0,1,0,0,1.72,-0.56,-0.64,-7.81,-0.88,1.6,36.125,-144.5625,-10.0,0.61444091796875,0.13983154296875,-0.77117919921875,0.09014892578125,14.0,36.6875,1.1875,9.54,0.32,-2.24,moving,11
4.5,30157.030185419,31,0,1,0,0,1.62,-0.69,-0.12,-7.87,-1.01,2.28,26.0,-102.4375,-5.4375,0.60723876953125,0.14239501953125,-0.77642822265625,0.09033203125,6.0,38.25,4.5,9.49,0.32,-2.41,moving,11
4.51,30157.043987136,31,0,1,0,0,0.79,-0.37,0.27,-8.68,-0.69,2.77,9.3125,-50.625,0.0,0.60369873046875,0.143310546875,-0.77899169921875,0.09033203125,6.0,38.25,4.5,9.47,0.31,-2.49,moving,11
4.52,30157.043987136,31,0,1,0,0,0.2,-0.18,0.36,-9.27,-0.49,2.86,-8.5,-3.625,6.25,0.603515625,0.1424560546875,-0.77935791015625,0.09002685546875,6.0,38.25,4.5,9.47,0.3,-2.5,moving,11
4.53,30157.059822586,31,0,1,0,0,-0.2,0.07,0.31,-9.69,-0.23,2.76,-29.375,28.25,10.875,0.60565185546875,0.13995361328125,-0.77825927734375,0.0889892578125,6.0,38.25,4.5,9.48,0.3,-2.45,moving,11
4.54,30157.059822586,31,0,1,0,0,-0.09,0.05,-0.04,-9.6,-0.24,2.35,-49.0625,34.25,14.625,0.60845947265625,0.13604736328125,-0.7769775390625,0.08685302734375,6.0,38.25,4.5,9.5,0.3,-2.39,moving,11
4.55,30157.088153518,31,0,1,0,0,1.43,-0.11,-1.12,-8.07,-0.4,1.26,-63.25,3.5,22.125,0.6092529296875,0.13116455078125,-0.77752685546875,0.083740234375,7.375,38.25,4.1875,9.5,0.29,-2.38,moving,11
4.56,30157.088153518,31,0,1,0,0,2.77,-0.41,-2.04,-6.7,-0.68,0.46,-65.375,-72.6875,32.0625,0.60479736328125,0.12603759765625,-0.7822265625,0.0802001953125,7.375,38.25,4.1875,9.47,0.26,-2.5,moving,11
4.57,30157.102385208,31,0,1,0,0,4.42,-0.83,-3.23,-4.96,-1.05,-0.41,-46.625,-192.375,41.0,0.591796875,0.12213134765625,-0.79302978515625,0.0770263671875,7.375,38.25,4.1875,9.38,0.21,-2.82,moving,11
4.58,30157.102385208,31,0,1,0,0,6.76,-1.24,-4.87,-2.43,-1.38,-1.49,-9.0625,-347.1875,49.0,0.5672607421875,0.12054443359375,-0.8111572265625,0.0751953125,7.375,38.25,4.1875,9.2,0.14,-3.38,moving,11
4.59,30157.117972732,31,0,1,0,0,14.87,-2.18,-10.3,6.0,-2.22,-6.12,36.625,-510.5,54.3125,0.52984619140625,0.12176513671875,-0.8359375,0.0750732421875,7.375,38.25,4.1875,8.86,0.03,-4.18,moving,11
4.6,30157.117972732,31,0,1,0,0,21.62,-1.73,-13.95,13.24,-1.6,-8.86,95.75,-597.75,57.9375,0.48419189453125,0.12567138671875,-0.86236572265625,0.0782470703125,5.0,37.875,7.5625,8.38,-0.13,-5.08,moving,11
4.61,30157.149354568,31,0,1,0,0,29.98,-0.72,-20.55,22.05,-0.4,-14.8,155.0625,-469.1875,30.375,0.446533203125,0.13299560546875,-0.880615234375,0.08599853515625,5.0,37.875,7.5625,7.93,-0.32,-5.75,moving,11
4.62,30157.149354568,31,0,1,0,0,39.22,2.56,-30.68,31.42,2.99,-24.74,228.5625,-146.9375,-89.125,0.43316650390625,0.14984130859375,-0.88330078125,0.09832763671875,5.0,37.875,7.5625,7.79,-0.43,-5.93,moving,11
4.63,30157.16390124,31,0,1,0,0,39.19,6.37,-12.85,31.13,6.81,-7.28,195.5,253.6875,-136.0625,0.4510498046875,0.16546630859375,-0.869873046875,0.11151123046875,5.0,37.875,7.5625,8.05,-0.43,-5.57,moving,11
4.64,30157.16390124,31,0,1,0,0,34.97,7.22,-9.42,26.44,7.52,-4.6,-60.1875,522.1875,-56.125,0.4915771484375,0.162109375,-0.84820556640625,0.1121826171875,5.0,37.875,7.5625,8.53,-0.3,-4.82,moving,11
4.65,30157.178366572,31,0,1,0,0,22.09,0.67,-8.65,13.18,0.8,-4.55,-70.5,479.6875,-77.625,0.5283203125,0.15997314453125,-0.82647705078125,0.11029052734375,12.375,39.25,10.6875,8.91,-0.13,-4.09,moving,11
4.66,30157.178366572,31,0,1,0,0,10.25,-6.5,-3.23,1.08,-6.5,0.26,-19.5,379.25,-73.6875,0.55633544921875,0.16064453125,-0.8077392578125,0.1107177734375,12.375,39.25,10.6875,9.16,0.0,-3.49,moving,11
4.67,30157.209566767,31,0,1,0,0,7.8,-5.59,-4.52,-1.51,-5.67,-1.47,-86.1875,275.9375,-20.6875,0.5770263671875,0.15521240234375,-0.79461669921875,0.107421875,12.375,39.25,10.6875,9.31,0.08,-3.04,moving,11
4.68,30157.209566767,31,0,1,0,0,6.8,-2.12,-5.95,-2.57,-2.25,-3.11,-187.0625,122.6875,30.9375,0.587646484375,0.1424560546875,-0.79046630859375,0.09765625,12.375,39.25,10.6875,9.38,0.12,-2.84,moving,11
4.69,30157.225070714,31,0,1,0,0,6.25,3.87,-6.46,-3.11,3.68,-3.58,-227.75,-26.6875,32.125,0.5882568359375,0.1287841796875,-0.79400634765625,0.083251953125,12.375,39.25,10.6875,9.37,0.18,-2.88,moving,11
4.7,30157.225070714,31,0,1,0,0,6.06,3.61,-4.98,-3.27,3.33,-1.98,-182.375,-75.6875,6.6875,0.58489990234375,0.1195068359375,-0.7991943359375,0.07012939453125,5.0625,39.0625,7.875,9.33,0.27,-3.0,moving,11
4.71,30157.238827387,31,0,1,0,0,6.01,1.98,-3.15,-3.31,1.63,-0.15,-78.125,1.9375,-19.625,0.5859375,0.11688232421875,-0.79937744140625,0.06365966796875,5.0625,39.0625,7.875,9.33,0.34,-2.99,moving,11
4.72,30157.238827387,31,0,1,0,0,5.44,0.5,-1.28,-3.95,0.09,1.48,21.875,140.25,-45.25,0.595703125,0.120361328125,-0.79156494140625,0.0643310546875,5.0625,39.0625,7.875,9.39,0.4,-2.76,moving,11
4.73,30157.269423375,31,0,1,0,0,3.95,-0.05,-0.55,-5.55,-0.54,1.77,60.5,265.1875,-64.25,0.613525390625,0.12640380859375,-0.7764892578125,0.06793212890625,5.0625,39.0625,7.875,9.51,0.48,-2.33,moving,11
4.74,30157.269423375,31,0,1,0,0,2.91,0.31,-1.03,-6.71,-0.24,0.73,53.625,337.5625,-53.0,0.63580322265625,0.130859375,-0.7572021484375,0.0723876953125,5.0625,39.0625,7.875,9.62,0.55,-1.77,moving,11
4.75,30157.27465893,31,0,1,0,0,2.91,0.31,-1.03,-6.71,-0.24,0.73,53.625,337.5625,-53.0,0.63580322265625,0.130859375,-0.7572021484375,0.0723876953125,5.0625,39.0625,7.875,9.62,0.55,-1.77,moving,11
4.75,30157.27465893,31,0,1,0,0,1.85,0.51,-1.55,-7.85,-0.09,-0.35,10.3125,342.875,-34.75,0.65826416015625,0.1314697265625,-0.7374267578125,0.07501220703125,4.0625,37.25,9.375,9.71,0.61,-1.19,moving,11
4.76,30157.298123774,31,0,1,0,0,0.85,0.81,-2.14,-8.9,0.15,-1.43,-40.0,286.375,-25.3125,0.67706298828125,0.12890625,-0.720703125,0.07421875,4.0625,37.25,9.375,9.75,0.66,-0.7,moving,11
4.77,30157.298123774,31,0,1,0,0,-2.13,1.35,-2.23,-11.91,0.66,-1.89,-71.9375,208.625,-13.125,0.69097900390625,0.1241455078125,-0.7086181640625,0.0712890625,4.0625,37.25,9.375,9.77,0.69,-0.34,moving,11
4.78,30157.312929763,31,0,1,0,0,-3.2,0.14,-2.02,-12.98,-0.54,-1.93,-91.3125,139.0625,-0.9375,0.700439453125,0.1177978515625,-0.70068359375,0.06707763671875,4.0625,37.25,9.375,9.78,0.69,-0.09,moving,11
4.79,30157.312929763,31,0,1,0,0,-3.05,-1.34,-2.27,-12.83,-2.03,-2.29,-91.0,58.6875,4.0625,0.70489501953125,0.11163330078125,-0.69769287109375,0.06231689453125,4.0625,37.25,9.375,9.78,0.69,0.01,moving,11
4.8,30157.328221145,31,0,1,0,0,-2.65,-2.14,-2.25,-12.44,-2.81,-2.19,-71.75,-47.5625,10.6875,0.70263671875,0.10687255859375,-0.70111083984375,0.05816650390625,-1.875,35.75,5.0625,9.78,0.67,-0.05,moving,11
4.81,30157.328221145,31,0,1,0,0,-2.02,-1.92,-2.11,-11.8,-2.58,-1.78,-23.1875,-157.6875,9.9375,0.69305419921875,0.10565185546875,-0.71087646484375,0.05584716796875,-1.875,35.75,5.0625,9.77,0.65,-0.32,moving,11
4.82,30157.358985346,31,0,1,0,0,-1.22,-1.67,-1.95,-10.97,-2.31,-1.21,29.3125,-244.3125,4.4375,0.67742919921875,0.1082763671875,-0.72540283203125,0.0556640625,-1.875,35.75,5.0625,9.75,0.64,-0.74,moving,11
4.83,30157.358985346,31,0,1,0,0,-0.45,-1.4,-1.77,-10.15,-2.04,-0.51,69.875,-294.6875,1.3125,0.65789794921875,0.11376953125,-0.74224853515625,0.057373046875,-1.875,35.75,5.0625,9.7,0.63,-1.25,moving,11
4.84,30157.372974604,31,0,1,0,0,0.62,-0.7,-1.26,-9.0,-1.32,0.49,82.3125,-298.9375,-4.1875,0.637451171875,0.12017822265625,-0.75872802734375,0.0594482421875,-1.875,35.75,5.0625,9.62,0.61,-1.76,moving,11
4.85,30157.372974604,31,0,1,0,0,0.82,-0.23,-1.06,-8.71,-0.84,1.13,71.1875,-254.375,-5.25,0.6197509765625,0.12579345703125,-0.772216796875,0.06121826171875,-1.1875,36.1875,6.25,9.53,0.6,-2.2,moving,11
4.86,30157.38812353,31,0,1,0,0,0.98,0.21,-1.08,-8.47,-0.37,1.42,48.5,-180.25,-0.3125,0.60693359375,0.12933349609375,-0.7816162109375,0.0625,-1.1875,36.1875,6.25,9.46,0.58,-2.5,moving,11
4.87,30157.38812353,31,0,1,0,0,1.09,0.59,-1.25,-8.31,0.03,1.43,26.5,-115.6875,7.0625,0.59869384765625,0.13092041015625,-0.78765869140625,0.0633544921875,-1.1875,36.1875,6.25,9.41,0.55,-2.69,moving,11
4.88,30157.418560012,31,0,1,0,0,1.6,0.98,-1.88,-7.76,0.45,0.95,10.3125,-84.5,12.625,0.5926513671875,0.13104248046875,-0.79217529296875,0.063720703125,-1.1875,36.1875,6.25,9.37,0.53,-2.83,moving,11
4.89,30157.418560012,31,0,1,0,0,2.53,1.2,-2.57,-6.79,0.69,0.4,10.3125,-84.5,12.625,0.5865478515625,0.13116455078125,-0.796630859375,0.06414794921875,-1.1875,36.1875,6.25,9.32,0.5,-2.97,moving,11
4.9,30157.433061762,31,0,1,0,0,3.67,1.32,-3.28,-5.58,0.84,-0.08,-7.4375,-142.125,20.5625,0.57659912109375,0.130126953125,-0.80413818359375,0.06304931640625,-2.375,36.6875,11.6875,9.25,0.47,-3.2,moving,11
4.91,30157.433061762,31,0,1,0,0,7.07,0.93,-5.57,-2.09,0.48,-2.13,-7.4375,-142.125,20.5625,0.5665283203125,0.12908935546875,-0.8115234375,0.06195068359375,-2.375,36.6875,11.6875,9.17,0.44,-3.43,moving,11
4.92,30157.448072504,31,0,1,0,0,9.09,0.62,-7.04,0.05,0.21,-3.27,-10.1875,-208.5625,28.4375,0.55157470703125,0.127685546875,-0.82208251953125,0.06024169921875,-2.375,36.6875,11.6875,9.04,0.41,-3.76,moving,11
4.93,30157.448072504,31,0,1,0,0,12.06,-0.09,-9.28,3.22,-0.44,-5.07,-7.0625,-287.6875,39.375,0.5306396484375,0.12603759765625,-0.83612060546875,0.05841064453125,-2.375,36.6875,11.6875,8.84,0.35,-4.21,moving,11
4.94,30157.478874832,31,0,1,0,0,16.89,-1.0,-10.83,8.32,-1.28,-6.06,3.8125,-361.1875,47.5625,0.50372314453125,0.12451171875,-0.85296630859375,0.056884765625,-2.375,36.6875,11.6875,8.56,0.27,-4.76,moving,11
4.95,30157.478874832,31,0,1,0,0,31.81,-0.43,-18.28,23.51,-0.61,-13.06,-21.9375,-309.75,77.875,0.48028564453125,0.1192626953125,-0.8671875,0.0552978515625,-0.0625,36.25,12.5,8.29,0.18,-5.22,moving,11
4.96,30157.492553828,31,0,1,0,0,38.7,2.08,-26.72,30.69,1.99,-21.06,-21.9375,-309.75,77.875,0.45654296875,0.1138916015625,-0.8807373046875,0.05364990234375,-0.0625,36.25,12.5,8.0,0.09,-5.66,moving,11
4.97,30157.492553828,31,0,1,0,0,39.04,8.76,-17.64,31.18,8.71,-11.77,-1.5625,-143.3125,31.3125,0.4453125,0.112060546875,-0.88671875,0.0533447265625,-0.0625,36.25,12.5,7.86,0.05,-5.86,moving,11
4.98,30157.508144444,31,0,1,0,0,31.68,9.43,-4.86,23.75,9.43,0.88,111.0625,74.75,-48.375,0.4501953125,0.11981201171875,-0.8828125,0.06072998046875,-0.0625,36.25,12.5,7.93,0.0,-5.75,moving,11
4.99,30157.508144444,31,0,1,0,0,14.17,1.96,-5.85,5.94,1.86,-0.53,66.3125,311.875,-114.1875,0.473876953125,0.12945556640625,-0.86865234375,0.0645751953125,-0.0625,36.25,12.5,8.23,0.1,-5.32,moving,11
5.0,30157.522653844,31,0,1,0,0,14.17,1.96,-5.85,5.94,1.86,-0.53,66.3125,311.875,-114.1875,0.473876953125,0.12945556640625,-0.86865234375,0.0645751953125,-0.0625,36.25,12.5,8.23,0.1,-5.32,moving,11
5.0,30157.522653844,31,0,1,0,0,10.65,0.36,-6.48,2.26,0.13,-1.42,10.75,177.5,-97.75,0.4876708984375,0.1363525390625,-0.8599853515625,0.0633544921875,6.5,36.25,16.0,8.39,0.23,-5.06,moving,11
5.01,30157.538516759,31,0,1,0,0,10.62,-0.74,-7.55,2.07,-1.11,-2.74,10.75,177.5,-97.75,0.50128173828125,0.14312744140625,-0.85107421875,0.06207275390625,6.5,36.25,16.0,8.54,0.37,-4.8,moving,11
5.02,30157.538516759,31,0,1,0,0,18.6,-1.15,-13.52,10.07,-1.61,-8.7,-47.1875,-16.0,-35.9375,0.5008544921875,0.14385986328125,-0.8515625,0.0567626953125,6.5,36.25,16.0,8.52,0.46,-4.82,moving,11
5.03,30157.568265294,31,0,1,0,0,20.2,-1.16,-14.12,11.85,-1.66,-9.0,-125.0,-209.0625,54.25,0.48651123046875,0.1353759765625,-0.86181640625,0.04718017578125,6.5,36.25,16.0,8.34,0.49,-5.12,moving,11
5.04,30157.568265294,31,0,1,0,0,19.24,-0.22,-10.38,11.22,-0.72,-4.76,-175.125,-359.125,113.625,0.4608154296875,0.12078857421875,-0.8785400390625,0.03460693359375,6.5,36.25,16.0,8.02,0.49,-5.61,moving,11
5.05,30157.582807368,31,0,1,0,0,18.85,-0.53,-4.81,10.88,-1.05,0.87,-74.6875,-55.0625,36.25,0.45721435546875,0.11517333984375,-0.88134765625,0.02972412109375,2.5,37.5,15.5625,7.97,0.51,-5.68,moving,11
5.06,30157.582807368,31,0,1,0,0,15.57,-3.27,-2.52,7.65,-3.81,3.23,-74.6875,-55.0625,36.25,0.45367431640625,0.10955810546875,-0.88409423828125,0.02484130859375,2.5,37.5,15.5625,7.91,0.54,-5.75,moving,11
5.07,30157.597894404,31,0,1,0,0,10.53,-2.0,-2.6,2.35,-2.62,2.76,-29.125,273.8125,-31.5625,0.4749755859375,0.1102294921875,-0.87274169921875,0.02398681640625,2.5,37.5,15.5625,8.18,0.61,-5.37,moving,11
5.08,30157.597894404,31,0,1,0,0,7.17,-1.14,-2.59,-1.37,-1.84,2.15,-7.0,421.5,-54.375,0.50689697265625,0.11309814453125,-0.85418701171875,0.02520751953125,2.5,37.5,15.5625,8.54,0.7,-4.75,moving,11
5.09,30157.628735143,31,0,1,0,0,5.22,-1.24,-2.85,-3.67,-2.04,1.18,26.6875,471.625,-75.0,0.54144287109375,0.11871337890625,-0.831787109375,0.02850341796875,2.5,37.5,15.5625,8.9,0.79,-4.04,moving,11
5.1,30157.628735143,31,0,1,0,0,1.94,0.84,-3.61,-7.26,0.0,-0.36,-30.125,503.25,-12.5,0.5777587890625,0.1168212890625,-0.80718994140625,0.0308837890625,3.75,35.25,17.0,9.21,0.83,-3.24,moving,11
5.11,30157.644893387,31,0,1,0,0,1.12,0.78,-4.4,-8.34,-0.08,-1.98,-30.125,503.25,-12.5,0.61297607421875,0.11474609375,-0.78106689453125,0.03326416015625,3.75,35.25,17.0,9.46,0.87,-2.41,moving,11
5.12,30157.644893387,31,0,1,0,0,-0.32,1.13,-3.3,-9.92,0.19,-1.58,-90.375,408.875,-19.875,0.641357421875,0.1099853515625,-0.75872802734375,0.03009033203125,3.75,35.25,17.0,9.6,0.93,-1.72,moving,11
5.13,30157.657856196,31,0,1,0,0,-1.22,2.2,-2.94,-10.9,1.2,-1.75,-96.1875,306.6875,-20.75,0.662353515625,0.10516357421875,-0.7413330078125,0.0255126953125,3.75,35.25,17.0,9.68,0.99,-1.18,moving,11
5.14,30157.657856196,31,0,1,0,0,-1.97,1.79,-3.13,-11.7,0.77,-2.42,-84.625,276.25,-6.375,0.6807861328125,0.10003662109375,-0.72528076171875,0.02215576171875,3.75,35.25,17.0,9.72,1.02,-0.7,moving,11
5.15,30157.688568354,31,0,1,0,0,-3.06,0.8,-2.84,-12.81,-0.19,-2.37,-71.4375,133.9375,15.125,0.68975830078125,0.0946044921875,-0.717529296875,0.01971435546875,-4.5625,34.5625,10.0,9.74,1.0,-0.46,moving,11
5.16,30157.688568354,31,0,1,0,0,-3.84,-0.23,-2.42,-13.59,-1.21,-2.2,-71.4375,133.9375,15.125,0.69866943359375,0.089111328125,-0.70965576171875,0.01727294921875,-4.5625,34.5625,10.0,9.75,0.98,-0.22,moving,11
5.17,30157.704794713,31,0,1,0,0,-3.89,-1.4,-1.86,-13.65,-2.36,-1.72,-70.1875,43.25,15.0625,0.70184326171875,0.08380126953125,-0.707275390625,0.01416015625,-4.5625,34.5625,10.0,9.75,0.95,-0.14,moving,11
5.18,30157.704794713,31,0,1,0,0,-3.45,-1.6,-1.69,-13.21,-2.54,-1.5,-62.9375,-35.0,12.125,0.7000732421875,0.07928466796875,-0.70953369140625,0.0107421875,-4.5625,34.5625,10.0,9.75,0.93,-0.19,moving,11
5.19,30157.718345087,31,0,1,0,0,-2.97,-1.56,-1.62,-12.73,-2.48,-1.26,-49.3125,-107.625,11.5,0.6937255859375,0.07562255859375,-0.71624755859375,0.00762939453125,-4.5625,34.5625,10.0,9.75,0.92,-0.36,moving,11
5.2,30157.718345087,31,0,1,0,0,-2.25,-1.49,-1.69,-11.99,-2.4,-0.94,-15.125,-225.5,11.375,0.6795654296875,0.07415771484375,-0.7298583984375,0.00592041015625,-8.375,33.1875,10.6875,9.73,0.9,-0.74,moving,11
5.21,30157.749267125,31,0,1,0,0,-0.15,-0.67,-1.97,-9.85,-1.55,-0.84,-15.125,-225.5,11.375,0.6651611328125,0.0726318359375,-0.7431640625,0.004150390625,-8.375,33.1875,10.6875,9.7,0.88,-1.12,moving,11
5.22,30157.749267125,31,0,1,0,0,0.75,-0.1,-2.06,-8.88,-0.96,-0.48,3.4375,-267.4375,16.625,0.6475830078125,0.07183837890625,-0.75860595703125,0.003662109375,-8.375,33.1875,10.6875,9.64,0.85,-1.58,moving,11
5.23,30157.763590123,31,0,1,0,0,1.31,0.32,-2.13,-8.22,-0.49,-0.04,20.5625,-303.75,20.375,0.62713623046875,0.07171630859375,-0.775634765625,0.0042724609375,-8.375,33.1875,10.6875,9.54,0.81,-2.09,moving,11
5.24,30157.763590123,31,0,1,0,0,2.08,0.63,-1.97,-7.32,-0.13,0.66,34.75,-328.8125,21.375,0.6043701171875,0.072265625,-0.79339599609375,0.0057373046875,-8.375,33.1875,10.6875,9.41,0.76,-2.64,moving,11
5.25,30157.777830236,31,0,1,0,0,2.32,0.41,-1.83,-6.93,-0.29,1.32,44.3125,-316.25,20.6875,0.58197021484375,0.07330322265625,-0.80987548828125,0.00787353515625,-5.875,33.5,13.5,9.25,0.71,-3.16,moving,11
5.25,30157.777830236,31,0,1,0,0,2.32,0.41,-1.83,-6.93,-0.29,1.32,44.3125,-316.25,20.6875,0.58197021484375,0.07330322265625,-0.80987548828125,0.00787353515625,-5.875,33.5,13.5,9.25,0.71,-3.16,moving,11
5.26,30157.793192174,31,0,1,0,0,2.84,0.22,-2.06,-6.22,-0.42,1.61,44.3125,-316.25,20.6875,0.55908203125,0.07427978515625,-0.82574462890625,0.010009765625,-5.875,33.5,13.5,9.06,0.65,-3.67,moving,11
5.27,30157.793192174,31,0,1,0,0,3.68,0.3,-2.65,-5.2,-0.28,1.45,36.5625,-275.875,23.4375,0.53875732421875,0.0745849609375,-0.83905029296875,0.01202392578125,-5.875,33.5,13.5,8.88,0.59,-4.11,moving,11
5.28,30157.809097407,31,0,1,0,0,6.38,0.49,-4.9,-2.33,-0.03,-0.44,27.0625,-225.0,28.0625,0.52197265625,0.07403564453125,-0.84967041015625,0.01385498046875,-5.875,33.5,13.5,8.71,0.52,-4.45,moving,11
5.29,30157.809097407,31,0,1,0,0,9.09,0.22,-7.4,0.51,-0.23,-2.67,26.3125,-177.25,34.375,0.50848388671875,0.07293701171875,-0.8577880859375,0.0162353515625,-5.875,33.5,13.5,8.57,0.45,-4.72,moving,11
5.3,30157.839132156,31,0,1,0,0,12.28,-0.61,-10.19,3.85,-0.94,-5.18,73.1875,-182.5625,40.5,0.49420166015625,0.0733642578125,-0.865966796875,0.0223388671875,-1.875,33.0625,16.875,8.42,0.33,-5.0,moving,11
5.31,30157.839132156,31,0,1,0,0,15.11,-1.35,-10.21,6.84,-1.55,-4.94,73.1875,-182.5625,40.5,0.47979736328125,0.07379150390625,-0.87384033203125,0.0284423828125,-1.875,33.0625,16.875,8.26,0.2,-5.27,moving,11
5.32,30157.853077509,31,0,1,0,0,25.0,0.97,-14.17,16.9,0.9,-8.64,97.25,-179.5625,31.5625,0.46527099609375,0.075927734375,-0.88116455078125,0.0360107421875,-1.875,33.0625,16.875,8.09,0.07,-5.53,moving,11
5.33,30157.853077509,31,0,1,0,0,33.73,4.62,-17.78,25.73,4.63,-12.11,86.25,-98.625,-4.75,0.45709228515625,0.080078125,-0.88482666015625,0.04180908203125,-1.875,33.0625,16.875,7.99,0.0,-5.67,moving,11
5.34,30157.868552485,31,0,1,0,0,39.22,6.35,-15.46,31.21,6.36,-9.8,112.8125,13.625,-83.125,0.45758056640625,0.0909423828125,-0.88323974609375,0.0472412109375,-1.875,33.0625,16.875,8.01,0.0,-5.65,moving,11
5.35,30157.868552485,31,0,1,0,0,22.62,1.69,-9.39,14.47,1.69,-3.94,129.8125,141.6875,-87.6875,0.4677734375,0.102294921875,-0.876220703125,0.05487060546875,2.75,33.75,18.0625,8.14,0.0,-5.45,moving,11
5.36,30157.899621902,31,0,1,0,0,16.71,-0.87,-9.26,8.35,-0.88,-4.14,43.3125,236.125,-39.375,0.4854736328125,0.10589599609375,-0.8658447265625,0.05865478515625,2.75,33.75,18.0625,8.36,0.01,-5.11,moving,11
5.37,30157.899621902,31,0,1,0,0,14.66,-2.36,-9.43,6.15,-2.45,-4.56,-1.5,168.25,-50.625,0.4984130859375,0.10882568359375,-0.858154296875,0.05792236328125,2.75,33.75,18.0625,8.51,0.08,-4.86,moving,11
5.38,30157.912732742,31,0,1,0,0,16.37,-3.55,-9.51,7.85,-3.68,-4.66,-1.125,8.75,-26.5625,0.49920654296875,0.1107177734375,-0.85748291015625,0.0567626953125,2.75,33.75,18.0625,8.51,0.12,-4.85,moving,11
5.39,30157.912732742,31,0,1,0,0,23.68,-1.35,-14.54,15.29,-1.48,-9.47,-45.0625,-146.0625,30.75,0.488525390625,0.107177734375,-0.86431884765625,0.0533447265625,2.75,33.75,18.0625,8.39,0.12,-5.07,moving,11
5.4,30157.928251541,31,0,1,0,0,23.21,1.48,-12.73,15.02,1.41,-7.33,-110.0,-228.3125,105.25,0.4716796875,0.0955810546875,-0.87530517578125,0.04736328125,0.0,35.375,15.375,8.18,0.07,-5.39,moving,11
5.41,30157.928251541,31,0,1,0,0,21.8,2.99,-7.46,13.8,2.97,-1.78,-145.8125,-195.5,134.8125,0.457275390625,0.080078125,-0.88482666015625,0.0401611328125,0.0,35.375,15.375,7.99,0.02,-5.67,moving,11
5.42,30157.959019404,31,0,1,0,0,20.89,0.96,-2.52,12.86,0.92,3.11,-114.875,26.875,66.6875,0.45989990234375,0.07025146484375,-0.884521484375,0.03411865234375,0.0,35.375,15.375,8.02,0.04,-5.63,moving,11
5.43,30157.959019404,31,0,1,0,0,11.92,-0.89,-2.44,3.59,-1.02,2.71,-16.0625,332.1875,-56.125,0.485595703125,0.0728759765625,-0.87054443359375,0.03265380859375,0.0,35.375,15.375,8.33,0.13,-5.16,moving,11
5.44,30157.973923782,31,0,1,0,0,7.84,-0.32,-1.98,-0.87,-0.62,2.48,-21.0625,464.375,-93.75,0.52081298828125,0.0777587890625,-0.849609375,0.02996826171875,0.0,35.375,15.375,8.72,0.29,-4.46,moving,11
5.45,30157.973923782,31,0,1,0,0,4.9,-0.25,-1.7,-4.17,-0.69,1.97,-12.9375,506.1875,-82.375,0.55804443359375,0.08184814453125,-0.82525634765625,0.0286865234375,3.6875,34.6875,17.6875,9.07,0.43,-3.68,moving,11
5.46,30157.989347244,31,0,1,0,0,2.73,-0.5,-4.28,-6.64,-1.03,-1.45,15.875,535.125,-65.3125,0.59600830078125,0.08587646484375,-0.79779052734375,0.03045654296875,3.6875,34.6875,17.6875,9.37,0.52,-2.82,moving,11
5.47,30157.989347244,31,0,1,0,0,2.07,0.23,-5.43,-7.5,-0.37,-3.43,0.1875,495.5,-52.3125,0.6300048828125,0.088134765625,-0.77093505859375,0.0313720703125,3.6875,34.6875,17.6875,9.58,0.61,-2.0,moving,11
5.48,30158.018080765,31,0,1,0,0,0.85,0.1,-5.08,-8.82,-0.57,-3.7,-41.4375,368.1875,-26.6875,0.65484619140625,0.08660888671875,-0.75018310546875,0.02996826171875,3.6875,34.6875,17.6875,9.68,0.67,-1.37,moving,11
5.49,30158.018080765,31,1,1,0,0,0.61,0.73,-4.72,-9.11,0.05,-3.7,-76.5,206.75,5.375,0.6688232421875,0.08135986328125,-0.73846435546875,0.02679443359375,3.6875,34.6875,17.6875,9.72,0.67,-1.01,moving,11
5.51,30158.033585363,31,1,1,0,0,-0.06,0.71,-3.64,-9.81,0.05,-2.81,-91.875,8.0,19.5625,0.6763916015625,0.06768798828125,-0.7332763671875,0.01690673828125,-7.5,34.0,13.1875,9.74,0.65,-0.82,moving,11
5.51,30158.033585363,31,1,1,0,0,-0.06,0.71,-3.64,-9.81,0.05,-2.81,-91.875,8.0,19.5625,0.6763916015625,0.06768798828125,-0.7332763671875,0.01690673828125,-7.5,34.0,13.1875,9.74,0.65,-0.82,moving,11
5.52,30158.04787292,31,1,1,0,0,-0.65,-0.4,-2.48,-10.39,-1.02,-1.54,-50.0,-68.5,26.125,0.6722412109375,0.0631103515625,-0.73748779296875,0.01483154296875,-7.5,34.0,13.1875,9.74,0.61,-0.93,moving,11
5.53,30158.04787292,31,1,1,0,0,-1.12,-1.16,-1.48,-10.84,-1.74,-0.35,-24.5625,-115.625,22.1875,0.66485595703125,0.0604248046875,-0.744384765625,0.013916015625,-7.5,34.0,13.1875,9.72,0.58,-1.13,moving,11
5.54,30158.079851273,31,1,1,0,0,-1.65,-1.8,-0.07,-11.35,-2.35,1.25,-8.5,-120.0625,18.6875,0.65704345703125,0.058837890625,-0.75146484375,0.0137939453125,-7.5,34.0,13.1875,9.69,0.55,-1.33,moving,11
5.55,30158.079851273,31,1,1,0,0,-1.71,-1.72,0.09,-11.39,-2.25,1.58,1.4375,-91.0,11.1875,0.6510009765625,0.05828857421875,-0.7567138671875,0.01409912109375,-9.0,32.875,11.5625,9.67,0.53,-1.49,moving,11
5.56,30158.093477819,31,1,1,0,0,-1.69,-1.37,-0.03,-11.35,-1.9,1.53,14.6875,-45.375,5.8125,0.64788818359375,0.058837890625,-0.75927734375,0.01513671875,-9.0,32.875,11.5625,9.66,0.52,-1.56,moving,11
5.57,30158.093477819,31,1,1,0,0,-1.17,-0.46,-0.73,-10.83,-0.97,0.85,29.5625,-7.375,2.125,0.647216796875,0.06036376953125,-0.75970458984375,0.0172119140625,-9.0,32.875,11.5625,9.66,0.5,-1.58,moving,11
5.58,30158.109192663,31,1,1,0,0,-0.83,-0.05,-1.05,-10.49,-0.55,0.52,39.0,8.5,-3.5,0.6475830078125,0.06280517578125,-0.7591552734375,0.0196533203125,-9.0,32.875,11.5625,9.66,0.5,-1.57,moving,11
5.59,30158.109192663,31,1,1,0,0,-0.57,0.35,-1.18,-10.24,-0.14,0.39,40.5,-0.75,-5.8125,0.64727783203125,0.06549072265625,-0.75909423828125,0.02197265625,-9.0,32.875,11.5625,9.66,0.5,-1.57,moving,11
5.6,30158.139054967,31,1,1,0,0,-0.27,0.76,-1.31,-9.92,0.26,0.31,31.9375,-31.5,-2.5625,0.64501953125,0.0675048828125,-0.76080322265625,0.0238037109375,-9.0,32.5,14.1875,9.65,0.49,-1.63,moving,11
5.61,30158.139054967,31,1,1,0,0,0.22,1.31,-1.23,-9.4,0.82,0.52,16.25,-73.25,3.8125,0.6400146484375,0.06829833984375,-0.764892578125,0.024658203125,-9.0,32.5,14.1875,9.63,0.48,-1.76,moving,11
5.62,30158.154334956,31,1,1,0,0,0.28,1.42,-1.01,-9.31,0.95,0.94,0.4375,-117.5,10.1875,0.63214111328125,0.06787109375,-0.771484375,0.0245361328125,-9.0,32.5,14.1875,9.59,0.47,-1.95,moving,11
5.63,30158.154334956,31,1,1,0,0,0.41,1.28,-0.79,-9.12,0.83,1.41,-10.6875,-156.25,14.375,0.62158203125,0.066650390625,-0.7801513671875,0.023681640625,-9.0,32.5,14.1875,9.54,0.45,-2.21,moving,11
5.64,30158.168758092,31,1,1,0,0,1.47,0.84,-1.15,-7.98,0.41,1.36,-17.5625,-182.0625,17.8125,0.609130859375,0.06488037109375,-0.79010009765625,0.0223388671875,-9.0,32.5,14.1875,9.46,0.42,-2.51,moving,11
5.65,30158.168758092,31,1,1,0,0,2.55,0.78,-1.84,-6.82,0.38,0.99,-23.125,-197.0625,24.5625,0.59552001953125,0.06231689453125,-0.8006591796875,0.02093505859375,-7.5625,33.5625,14.1875,9.37,0.39,-2.84,moving,11
5.66,30158.200388463,31,1,1,0,0,4.15,0.85,-3.13,-5.11,0.49,0.05,-30.0625,-210.0,33.125,0.58087158203125,0.05877685546875,-0.8116455078125,0.0194091796875,-7.5625,33.5625,14.1875,9.26,0.36,-3.18,moving,11
5.67,30158.200388463,31,1,1,0,0,6.31,0.84,-4.91,-2.81,0.52,-1.35,-35.25,-238.875,39.6875,0.56390380859375,0.05462646484375,-0.8238525390625,0.0177001953125,-7.5625,33.5625,14.1875,9.13,0.31,-3.56,moving,11
5.68,30158.213611364,31,1,1,0,0,12.38,0.17,-8.47,3.45,-0.09,-4.43,-29.875,-301.75,42.0625,0.54205322265625,0.050537109375,-0.838623046875,0.01617431640625,-7.5625,33.5625,14.1875,8.93,0.27,-4.03,moving,11
5.69,30158.213611364,31,1,1,0,0,17.08,0.13,-6.56,8.44,-0.06,-1.93,3.3125,-382.875,44.875,0.513671875,0.0479736328125,-0.8564453125,0.016845703125,-7.5625,33.5625,14.1875,8.64,0.2,-4.62,moving,11
5.7,30158.230371618,31,1,1,0,0,29.93,1.63,-8.64,21.58,1.51,-3.49,37.1875,-353.25,32.625,0.48681640625,0.04766845703125,-0.8719482421875,0.01959228515625,-5.0,32.1875,18.0625,8.34,0.12,-5.15,moving,11
5.71,30158.230371618,31,1,1,0,0,39.22,2.92,-19.62,30.96,2.83,-14.32,37.1875,-100.3125,-4.0,0.47900390625,0.04974365234375,-0.8760986328125,0.02178955078125,-5.0,32.1875,18.0625,8.25,0.09,-5.29,moving,11
5.72,30158.26530749,31,1,1,0,0,38.85,1.13,-22.12,30.54,1.14,-16.92,52.875,62.9375,33.75,0.4835205078125,0.04925537109375,-0.87353515625,0.02752685546875,-5.0,32.1875,18.0625,8.31,0.0,-5.2,moving,11
5.73,30158.26530749,31,1,1,0,0,29.91,-2.25,-12.69,21.57,-2.1,-7.53,121.875,29.375,27.125,0.485107421875,0.05224609375,-0.8720703125,0.0380859375,-5.0,32.1875,18.0625,8.33,-0.15,-5.16,moving,11
5.74,30158.273403926,31,1,1,0,0,21.42,-4.04,-9.37,12.99,-3.94,-4.36,137.75,100.0625,-120.9375,0.492431640625,0.06695556640625,-0.86669921875,0.04388427734375,-5.0,32.1875,18.0625,8.42,-0.09,-5.01,moving,11
5.75,30158.273403926,31,1,1,0,0,13.43,-3.41,-6.91,4.83,-3.47,-2.19,130.6875,200.4375,-179.5,0.50732421875,0.0853271484375,-0.856201171875,0.04718017578125,0.0625,33.25,19.6875,8.59,0.05,-4.71,moving,11
5.76,30158.288137121,31,1,1,0,0,12.72,-2.4,-8.28,3.98,-2.61,-3.84,43.4375,183.0,-125.375,0.52105712890625,0.0958251953125,-0.84686279296875,0.0462646484375,0.0625,33.25,19.6875,8.74,0.21,-4.43,moving,11
5.77,30158.288137121,31,1,1,0,0,13.17,-1.0,-9.59,4.36,-1.33,-5.29,-94.3125,89.8125,-32.125,0.528564453125,0.09356689453125,-0.84283447265625,0.03857421875,0.0625,33.25,19.6875,8.8,0.33,-4.29,moving,11
5.77,30158.303942581,31,1,1,0,0,13.17,-1.0,-9.59,4.36,-1.33,-5.29,-94.3125,89.8125,-32.125,0.528564453125,0.09356689453125,-0.84283447265625,0.03857421875,0.0625,33.25,19.6875,8.8,0.33,-4.29,moving,11
5.78,30158.303942581,31,1,1,0,0,13.7,0.38,-10.21,4.94,0.03,-5.83,-194.375,-63.6875,80.375,0.525146484375,0.078857421875,-0.846923828125,0.0274658203125,0.0625,33.25,19.6875,8.76,0.35,-4.38,moving,11
5.79,30158.31806575,31,1,1,0,0,13.23,1.04,-5.31,4.61,0.72,-0.65,-234.5,-193.4375,147.4375,0.5118408203125,0.05767822265625,-0.85699462890625,0.01556396484375,0.0625,33.25,19.6875,8.62,0.31,-4.66,moving,11
5.8,30158.31806575,31,1,1,0,0,14.58,0.31,0.06,6.11,0.02,4.99,-177.3125,-189.0,117.4375,0.498291015625,0.041259765625,-0.865966796875,0.006591796875,-4.5625,34.25,16.75,8.46,0.29,-4.93,moving,11
5.81,30158.348244583,31,1,1,0,0,16.53,-1.69,2.35,8.02,-2.01,7.21,-13.875,50.75,-9.4375,0.502197265625,0.04132080078125,-0.86376953125,0.00531005859375,-4.5625,34.25,16.75,8.51,0.31,-4.85,moving,11
5.82,30158.348244583,31,1,1,0,0,12.95,-0.74,0.18,4.13,-1.17,4.46,54.4375,387.375,-103.4375,0.5308837890625,0.05126953125,-0.8458251953125,0.00628662109375,-4.5625,34.25,16.75,8.81,0.42,-4.27,moving,11
5.83,30158.362769079,31,1,1,0,0,2.38,2.26,-0.71,-6.79,1.71,2.68,12.875,558.4375,-83.1875,0.5714111328125,0.0576171875,-0.818603515625,0.005859375,-4.5625,34.25,16.75,9.18,0.55,-3.4,moving,11
5.84,30158.362769079,31,1,1,0,0,0.44,1.92,-2.06,-9.03,1.27,0.36,6.1875,594.5625,-57.0,0.613037109375,0.0616455078125,-0.78759765625,0.0064697265625,-4.5625,34.25,16.75,9.47,0.64,-2.43,moving,11
5.85,30158.378332392,31,1,1,0,0,0.7,1.5,-4.28,-8.96,0.77,-2.84,-3.75,595.8125,-53.6875,0.65313720703125,0.064697265625,-0.75445556640625,0.00653076171875,-2.375,32.0625,18.75,9.67,0.73,-1.43,moving,11
5.86,30158.378332392,31,1,1,0,0,-0.75,0.94,-4.62,-10.5,0.09,-4.03,-15.8125,501.5625,-69.3125,0.68560791015625,0.0679931640625,-0.72479248046875,0.00439453125,-2.375,32.0625,18.75,9.75,0.85,-0.58,moving,11
5.87,30158.408555252,31,1,1,0,0,-1.9,1.13,-4.38,-11.66,0.19,-4.36,-34.0,333.4375,-48.6875,0.70660400390625,0.06890869140625,-0.7042236328125,0.00128173828125,-2.375,32.0625,18.75,9.76,0.93,-0.01,moving,11
5.88,30158.408555252,31,1,1,0,0,-2.87,1.12,-3.88,-12.62,0.16,-4.15,-66.75,158.875,-9.375,0.7166748046875,0.0653076171875,-0.6943359375,-0.00244140625,-2.375,32.0625,18.75,9.75,0.95,0.26,moving,11
5.89,30158.423501867,31,1,1,0,0,-3.28,1.06,-3.31,-13.03,0.12,-3.61,-106.5,5.3125,6.375,0.71759033203125,0.05828857421875,-0.6939697265625,-0.00848388671875,-2.375,32.0625,18.75,9.75,0.93,0.29,moving,11
5.9,30158.423501867,31,1,1,0,0,-2.53,-0.15,-2.19,-12.3,-1.06,-2.32,-120.3125,-108.1875,10.1875,0.7115478515625,0.050048828125,-0.70068359375,-0.01568603515625,-12.5,30.875,11.6875,9.76,0.91,0.12,moving,11
5.91,30158.439138748,31,1,1,0,0,-2.04,-0.82,-1.63,-11.81,-1.71,-1.47,-100.8125,-175.4375,11.8125,0.701171875,0.0428466796875,-0.71136474609375,-0.0218505859375,-12.5,30.875,11.6875,9.76,0.89,-0.15,moving,11
5.92,30158.439138748,31,1,1,0,0,-1.48,-1.2,-1.29,-11.23,-2.08,-0.8,-58.0,-202.4375,11.125,0.688720703125,0.0382080078125,-0.72357177734375,-0.0255126953125,-12.5,30.875,11.6875,9.75,0.87,-0.49,moving,11
5.93,30158.468546016,31,1,1,0,0,-1.1,-1.08,-1.04,-10.83,-1.95,-0.2,-9.4375,-209.125,6.9375,0.67547607421875,0.0367431640625,-0.73602294921875,-0.0263671875,-12.5,30.875,11.6875,9.73,0.86,-0.84,moving,11
5.94,30158.468546016,31,1,1,0,0,-0.37,-0.51,-0.99,-10.06,-1.37,0.2,29.625,-206.3125,3.375,0.6619873046875,0.03778076171875,-0.74810791015625,-0.02496337890625,-12.5,30.875,11.6875,9.69,0.85,-1.19,moving,11
5.95,30158.48298376,31,1,1,0,0,-0.06,-0.31,-0.98,-9.71,-1.15,0.55,52.375,-195.125,1.4375,0.64898681640625,0.040283203125,-0.7593994140625,-0.0220947265625,-11.75,30.5,14.0625,9.64,0.84,-1.53,moving,11
5.96,30158.48298376,31,1,1,0,0,0.09,-0.16,-0.91,-9.5,-0.98,0.93,55.25,-182.1875,2.5625,0.63665771484375,0.0428466796875,-0.76971435546875,-0.0189208984375,-11.75,30.5,14.0625,9.59,0.82,-1.85,moving,11
5.97,30158.497713496,31,1,1,0,0,0.2,0.01,-0.68,-9.33,-0.77,1.45,42.125,-169.5,7.625,0.625,0.04443359375,-0.7791748046875,-0.01629638671875,-11.75,30.5,14.0625,9.53,0.79,-2.13,moving,11
5.98,30158.497713496,31,1,1,0,0,0.37,0.01,-0.77,-9.1,-0.73,1.62,22.0,-153.25,16.0625,0.61444091796875,0.0443115234375,-0.78753662109375,-0.0145263671875,-11.75,30.5,14.0625,9.47,0.75,-2.39,moving,11
5.99,30158.528304845,31,1,1,0,0,0.5,-0.07,-0.78,-8.91,-0.78,1.84,2.9375,-139.75,24.0625,0.60479736328125,0.0426025390625,-0.79510498046875,-0.0135498046875,-11.75,30.5,14.0625,9.42,0.71,-2.62,moving,11
6.0,30158.528304845,31,1,1,0,0,0.65,-0.26,-0.84,-8.7,-0.93,2.0,-10.625,-136.5,30.5625,0.59539794921875,0.039794921875,-0.8023681640625,-0.01318359375,-9.5,29.75,16.25,9.35,0.67,-2.85,moving,11
6.01,30158.543798498,31,1,1,0,0,1.2,-0.7,-1.3,-8.08,-1.32,1.78,-18.4375,-144.5625,36.125,0.58526611328125,0.0361328125,-0.8099365234375,-0.01312255859375,-9.5,29.75,16.25,9.28,0.62,-3.08,moving,11
6.02,30158.543798498,31,1,1,0,0,1.6,-0.9,-1.59,-7.59,-1.46,1.74,-20.9375,-161.4375,40.3125,0.57391357421875,0.031982421875,-0.81817626953125,-0.01300048828125,-9.5,29.75,16.25,9.2,0.56,-3.34,moving,11
6.02,30158.558934484,31,1,1,0,0,1.6,-0.9,-1.59,-7.59,-1.46,1.74,-20.9375,-161.4375,40.3125,0.57391357421875,0.031982421875,-0.81817626953125,-0.01300048828125,-9.5,29.75,16.25,9.2,0.56,-3.34,moving,11
6.03,30158.558934484,31,1,1,0,0,2.19,-0.95,-1.92,-6.9,-1.47,1.7,-16.8125,-179.375,41.0625,0.56109619140625,0.02801513671875,-0.8271484375,-0.01263427734375,-9.5,29.75,16.25,9.09,0.51,-3.62,moving,11
6.04,30158.573366084,31,1,1,0,0,3.54,-0.9,-2.9,-5.42,-1.35,1.02,-2.25,-190.875,37.5625,0.54730224609375,0.02496337890625,-0.83648681640625,-0.011474609375,-9.5,29.75,16.25,8.97,0.45,-3.92,moving,11
6.05,30158.573366084,31,1,1,0,0,8.42,-1.13,-6.69,-0.4,-1.52,-2.44,25.625,-204.25,28.1875,0.53228759765625,0.02392578125,-0.84619140625,-0.0086669921875,-6.0625,30.1875,19.0,8.82,0.39,-4.24,moving,11
6.06,30158.589220088,31,1,1,0,0,11.36,-1.22,-8.3,2.71,-1.54,-3.69,64.0,-235.1875,15.0625,0.5146484375,0.025634765625,-0.85699462890625,-0.00372314453125,-6.0625,30.1875,19.0,8.64,0.32,-4.61,moving,11
6.07,30158.589220088,31,1,1,0,0,17.04,-1.2,-11.76,8.6,-1.44,-6.76,108.25,-253.5625,-2.6875,0.49530029296875,0.03057861328125,-0.8681640625,0.003662109375,-6.0625,30.1875,19.0,8.43,0.23,-4.99,moving,11
6.08,30158.618492712,31,1,1,0,0,38.84,4.9,-22.6,30.6,4.74,-17.28,149.9375,-221.8125,-39.4375,0.47796630859375,0.04010009765625,-0.87738037109375,0.01275634765625,-6.0625,30.1875,19.0,8.23,0.15,-5.32,moving,11
6.09,30158.618492712,31,1,1,0,0,39.22,12.06,-21.86,31.15,11.99,-16.28,196.5625,-179.0625,-70.9375,0.4635009765625,0.05389404296875,-0.8841552734375,0.024169921875,-6.0625,30.1875,19.0,8.06,0.07,-5.58,moving,11
6.1,30158.63465889,31,1,1,0,0,36.02,10.2,-17.98,27.99,10.29,-12.36,161.125,-29.1875,5.25,0.46038818359375,0.06005859375,-0.88494873046875,0.03668212890625,-1.6875,30.5,20.1875,8.03,-0.09,-5.62,moving,11
6.11,30158.63465889,31,1,1,0,0,25.42,4.18,-8.85,17.3,4.32,-3.35,32.75,86.125,3.4375,0.46685791015625,0.06085205078125,-0.88134765625,0.039794921875,-1.6875,30.5,20.1875,8.11,-0.13,-5.5,moving,11
6.12,30158.64861584,31,1,1,0,0,21.34,-1.37,-11.69,13.06,-1.35,-6.42,-13.1875,165.1875,-71.5625,0.47979736328125,0.06524658203125,-0.87420654296875,0.0367431640625,-1.6875,30.5,20.1875,8.27,-0.01,-5.26,moving,11
6.13,30158.64861584,31,1,1,0,0,21.82,-4.42,-12.91,13.41,-4.57,-7.87,-45.0625,151.0,-89.375,0.49176025390625,0.0697021484375,-0.86737060546875,0.0303955078125,-1.6875,30.5,20.1875,8.4,0.15,-5.04,moving,11
6.14,30158.680472285,31,1,1,0,0,23.42,-7.58,-12.24,15.01,-7.89,-7.2,-83.25,0.4375,-49.5625,0.49237060546875,0.06988525390625,-0.8673095703125,0.02197265625,-1.6875,30.5,20.1875,8.4,0.3,-5.04,moving,11
6.15,30158.680472285,31,1,1,0,0,24.96,-9.22,-12.24,16.64,-9.56,-7.05,-119.1875,-103.8125,49.1875,0.485107421875,0.06121826171875,-0.8721923828125,0.014404296875,-0.25,33.0625,17.75,8.31,0.33,-5.18,moving,11
6.16,30158.6938234,31,1,1,0,0,20.04,-3.07,-10.24,11.83,-3.36,-4.89,-168.4375,-118.125,145.0625,0.47674560546875,0.043212890625,-0.8779296875,0.007080078125,-0.25,33.0625,17.75,8.21,0.28,-5.34,moving,11
6.17,30158.6938234,31,1,1,0,0,19.21,1.11,-3.74,11.1,0.87,1.75,-165.125,-116.1875,144.875,0.46826171875,0.0252685546875,-0.88323974609375,6.103515625e-05,-0.25,33.0625,17.75,8.11,0.23,-5.5,moving,11
6.18,30158.708925085,31,1,1,0,0,19.68,1.69,1.78,11.52,1.47,7.22,11.0,43.875,5.25,0.47161865234375,0.02532958984375,-0.88140869140625,0.001220703125,-0.25,33.0625,17.75,8.15,0.21,-5.44,moving,11
6.19,30158.708925085,31,1,1,0,0,9.85,2.97,-3.42,1.41,2.68,1.55,78.3125,320.8125,-100.4375,0.49591064453125,0.0362548828125,-0.86761474609375,0.00384521484375,-0.25,33.0625,17.75,8.44,0.28,-4.98,moving,11
6.2,30158.738863154,31,1,1,0,0,5.04,2.42,-1.06,-3.74,1.98,3.26,-24.25,428.25,-85.75,0.528076171875,0.04150390625,-0.84820556640625,-0.0003662109375,-0.5,31.0,20.25,8.78,0.43,-4.33,moving,11
6.21,30158.738863154,31,1,1,0,0,2.02,1.62,-0.2,-7.06,1.08,3.44,-21.375,441.8125,-61.4375,0.5604248046875,0.0450439453125,-0.82696533203125,-0.003173828125,-0.5,31.0,20.25,9.08,0.54,-3.64,moving,11
6.22,30158.754587723,31,1,1,0,0,1.16,0.83,-1.06,-8.2,0.21,1.74,-17.3125,516.6875,-39.5625,0.59716796875,0.047119140625,-0.80072021484375,-0.00433349609375,-0.5,31.0,20.25,9.37,0.62,-2.81,moving,11
6.23,30158.754587723,31,1,1,0,0,2.76,0.56,-4.31,-6.83,-0.13,-2.43,-47.5,554.8125,-39.0625,0.6353759765625,0.04754638671875,-0.77069091796875,-0.00738525390625,-0.5,31.0,20.25,9.59,0.7,-1.88,moving,11
6.24,30158.770643753,31,1,1,0,0,1.99,0.12,-3.92,-7.72,-0.66,-2.84,-76.5625,474.625,-44.3125,0.6669921875,0.04656982421875,-0.7435302734375,-0.01300048828125,-0.5,31.0,20.25,9.71,0.79,-1.07,moving,11
6.25,30158.770643753,31,1,1,0,0,0.19,0.65,-3.84,-9.55,-0.22,-3.39,-87.8125,363.5,-44.3125,0.69049072265625,0.044677734375,-0.7216796875,-0.01983642578125,-8.1875,31.0,16.375,9.75,0.88,-0.44,moving,11
6.26,30158.798697912,31,1,1,0,0,-1.11,1.67,-4.44,-10.88,0.77,-4.52,-91.1875,299.5625,-7.0,0.70947265625,0.0401611328125,-0.70318603515625,-0.0247802734375,-8.1875,31.0,16.375,9.76,0.9,0.07,moving,11
6.27,30158.798697912,31,1,1,0,0,-3.33,1.67,-4.4,-13.09,0.78,-4.85,-68.5,214.875,9.125,0.7227783203125,0.03582763671875,-0.68963623046875,-0.02764892578125,-8.1875,31.0,16.375,9.75,0.88,0.45,moving,11
6.28,30158.81306632,31,1,1,0,0,-3.39,1.13,-3.55,-13.14,0.25,-4.16,-18.5625,86.9375,-1.5625,0.72802734375,0.034912109375,-0.68408203125,-0.02862548828125,-8.1875,31.0,16.375,9.74,0.88,0.6,moving,11
6.28,30158.81306632,31,1,1,0,0,-3.39,1.13,-3.55,-13.14,0.25,-4.16,-18.5625,86.9375,-1.5625,0.72802734375,0.034912109375,-0.68408203125,-0.02862548828125,-8.1875,31.0,16.375,9.74,0.88,0.6,moving,11
6.29,30158.818818802,31,1,1,0,0,-2.93,0.47,-2.58,-12.68,-0.4,-3.13,40.9375,-28.5625,0.25,0.7261962890625,0.0374755859375,-0.68597412109375,-0.0262451171875,-8.1875,31.0,16.375,9.75,0.88,0.54,moving,11
6.3,30158.818818802,31,1,1,0,0,-2.82,-0.15,-0.64,-12.58,-1.04,-0.98,74.5,-112.0,3.5,0.71917724609375,0.041748046875,-0.6932373046875,-0.02197265625,-14.25,29.0,12.0,9.76,0.88,0.34,moving,11
6.31,30158.844516963,31,1,1,0,0,-2.76,-0.15,-0.09,-12.52,-1.04,-0.15,79.125,-157.3125,2.1875,0.70928955078125,0.0462646484375,-0.70318603515625,-0.017578125,-14.25,29.0,12.0,9.76,0.88,0.06,moving,11
6.32,30158.844516963,31,1,1,0,0,-2.27,-0.16,-0.09,-12.03,-1.04,0.11,59.5625,-152.375,4.5,0.69964599609375,0.0494384765625,-0.712646484375,-0.0142822265625,-14.25,29.0,12.0,9.76,0.87,-0.2,moving,11
6.33,30158.859927201,31,1,1,0,0,-1.64,-0.2,-0.34,-11.4,-1.06,0.06,24.375,-121.0,11.75,0.6920166015625,0.050048828125,-0.72003173828125,-0.0125732421875,-14.25,29.0,12.0,9.76,0.85,-0.41,moving,11
6.34,30158.859927201,31,1,1,0,0,-0.45,-0.11,-0.89,-10.21,-0.93,-0.3,-15.5,-101.3125,22.25,0.6856689453125,0.047607421875,-0.72625732421875,-0.01263427734375,-14.25,29.0,12.0,9.75,0.82,-0.58,moving,11
6.35,30158.888854772,31,1,1,0,0,-0.04,-0.23,-1.05,-9.79,-1.0,-0.28,-48.625,-110.6875,33.375,0.67889404296875,0.04241943359375,-0.73291015625,-0.01422119140625,-13.1875,30.0625,12.0,9.74,0.76,-0.76,moving,11
6.36,30158.888854772,31,1,1,0,0,0.26,-0.24,-1.18,-9.46,-0.95,-0.19,-68.3125,-140.6875,41.125,0.67010498046875,0.03558349609375,-0.7412109375,-0.01666259765625,-13.1875,30.0625,12.0,9.73,0.7,-0.99,moving,11
6.37,30158.903487178,31,1,1,0,0,0.6,-0.25,-1.34,-9.09,-0.89,-0.05,-70.75,-177.0,46.375,0.6588134765625,0.0281982421875,-0.75152587890625,-0.01904296875,-13.1875,30.0625,12.0,9.7,0.64,-1.28,moving,11
6.38,30158.903487178,31,1,1,0,0,0.92,-0.38,-0.97,-8.72,-0.96,0.65,-58.9375,-208.5,47.4375,0.645263671875,0.0213623046875,-0.76336669921875,-0.02069091796875,-13.1875,30.0625,12.0,9.65,0.58,-1.63,stop,11
6.39,30158.918050939,31,1,1,0,0,0.93,-0.59,-0.7,-8.64,-1.11,1.29,-41.1875,-222.375,44.875,0.6304931640625,0.015625,-0.7757568359375,-0.0213623046875,-13.1875,30.0625,12.0,9.58,0.51,-2.0,stop,11
6.4,30158.918050939,31,1,1,0,0,0.99,-0.65,-0.54,-8.51,-1.11,1.79,-25.9375,-207.5,39.6875,0.616455078125,0.01116943359375,-0.78704833984375,-0.02117919921875,-12.0,29.375,16.1875,9.51,0.46,-2.34,stop,11
6.41,30158.948721512,31,1,1,0,0,1.68,-0.68,-1.06,-7.75,-1.1,1.55,-14.9375,-168.5,33.8125,0.6048583984375,0.0076904296875,-0.7960205078125,-0.02056884765625,-12.0,29.375,16.1875,9.44,0.41,-2.62,stop,11
6.42,30158.948721512,31,1,1,0,0,2.72,-0.9,-1.82,-6.65,-1.27,1.01,-4.5625,-130.6875,29.5625,0.5958251953125,0.00518798828125,-0.8028564453125,-0.0194091796875,-12.0,29.375,16.1875,9.38,0.36,-2.83,stop,11
6.43,30158.966590816,31,1,1,0,0,4.6,-1.27,-3.18,-4.71,-1.59,-0.15,6.0625,-117.5625,27.75,0.58758544921875,0.00335693359375,-0.8089599609375,-0.017578125,-12.0,29.375,16.1875,9.32,0.31,-3.02,stop,11
6.44,30158.966590816,31,1,1,0,0,7.13,-1.74,-5.18,-2.1,-2.0,-1.92,17.375,-143.625,29.3125,0.577392578125,0.001953125,-0.8162841796875,-0.014892578125,-12.0,29.375,16.1875,9.24,0.26,-3.26,stop,11
6.45,30158.978087276,31,1,1,0,0,16.53,-3.03,-12.04,7.42,-3.22,-8.42,33.0,-222.875,34.625,0.56146240234375,0.0008544921875,-0.82745361328125,-0.0108642578125,-8.0,29.75,19.25,9.11,0.18,-3.62,stop,11
6.46,30158.978087276,31,1,1,0,0,26.65,-4.39,-16.69,17.76,-4.47,-12.54,60.0,-335.75,39.3125,0.5369873046875,0.0006103515625,-0.84356689453125,-0.00457763671875,-8.0,29.75,19.25,8.88,0.08,-4.15,stop,11
6.47,30159.009349605,31,1,1,0,0,38.16,-3.57,-24.43,29.61,-3.52,-19.62,92.9375,-433.4375,37.8125,0.50469970703125,0.00201416015625,-0.86328125,0.00396728515625,-8.0,29.75,19.25,8.54,-0.04,-4.81,stop,11
6.48,30159.009349605,31,1,1,0,0,39.17,4.61,-16.87,30.99,4.76,-11.48,121.25,-404.0,-5.0625,0.47393798828125,0.00787353515625,-0.88043212890625,0.0128173828125,-8.0,29.75,19.25,8.18,-0.14,-5.39,stop,11
6.49,30159.026145503,31,1,1,0,0,35.89,6.37,-2.3,27.84,6.57,3.28,228.75,-143.375,-119.75,0.46270751953125,0.02667236328125,-0.8857421875,0.02532958984375,-8.0,29.75,19.25,8.05,-0.19,-5.59,stop,11
6.5,30159.026145503,31,1,1,0,0,22.69,7.84,-4.75,14.28,7.95,0.28,215.75,382.125,-197.8125,0.49176025390625,0.0498046875,-0.86859130859375,0.034912109375,-2.375,30.0625,20.375,8.41,-0.11,-5.03,stop,11
6.51,30159.039238968,31,1,1,0,0,15.04,4.75,-6.69,6.09,4.67,-2.67,80.6875,669.9375,-169.8125,0.54168701171875,0.06396484375,-0.83734130859375,0.03656005859375,-2.375,30.0625,20.375,8.94,0.07,-4.02,stop,11
6.52,30159.039238968,31,1,1,0,0,9.2,-3.08,-4.44,-0.05,-3.38,-1.22,10.625,509.5,-143.75,0.57867431640625,0.0732421875,-0.81158447265625,0.0333251953125,-2.375,30.0625,20.375,9.25,0.3,-3.21,stop,11
6.53,30159.069445755,31,1,1,0,0,11.82,-5.06,-5.96,2.45,-5.5,-3.11,-54.75,227.9375,-69.875,0.59521484375,0.07476806640625,-0.79962158203125,0.02740478515625,-2.375,30.0625,20.375,9.37,0.44,-2.84,stop,11
6.54,30159.069445755,31,1,1,0,0,14.79,-5.02,-7.59,5.45,-5.44,-4.64,-147.25,-74.625,60.625,0.59075927734375,0.06304931640625,-0.80413818359375,0.019775390625,-2.375,30.0625,20.375,9.34,0.41,-2.95,stop,11
6.55,30159.075809932,31,1,1,0,0,14.79,-5.02,-7.59,5.45,-5.44,-4.64,-147.25,-74.625,60.625,0.59075927734375,0.06304931640625,-0.80413818359375,0.019775390625,-2.375,30.0625,20.375,9.34,0.41,-2.95,stop,11
6.55,30159.075809932,31,1,1,0,0,17.43,-5.41,-9.12,8.32,-5.71,-5.51,-250.375,-413.9375,162.0625,0.56231689453125,0.0394287109375,-0.825927734375,0.00830078125,-7.5625,31.875,15.5625,9.11,0.3,-3.6,stop,11
6.56,30159.097999263,31,1,1,0,0,15.78,0.0,-3.34,7.11,-0.17,1.23,-257.875,-631.375,194.375,0.51654052734375,0.01324462890625,-0.85614013671875,-0.0029296875,-7.5625,31.875,15.5625,8.67,0.18,-4.57,stop,11
6.57,30159.097999263,31,1,1,0,0,17.71,1.54,-1.21,9.48,1.47,4.12,-105.5,-518.0,138.0,0.47747802734375,-0.001953125,-0.87860107421875,-0.00518798828125,-7.5625,31.875,15.5625,8.22,0.07,-5.33,stop,11
6.58,30159.113345088,31,1,1,0,0,19.44,1.58,-0.43,11.26,1.53,4.97,80.625,-49.9375,-35.4375,0.4736328125,0.00408935546875,-0.88067626953125,-0.00042724609375,-7.5625,31.875,15.5625,8.18,0.04,-5.4,stop,11
6.59,30159.113345088,31,1,1,0,0,7.74,1.79,-2.18,-0.76,1.66,2.69,88.625,361.1875,-111.625,0.5010986328125,0.01629638671875,-0.865234375,0.00189208984375,-7.5625,31.875,15.5625,8.5,0.12,-4.88,stop,11
6.6,30159.128507157,31,1,1,0,0,3.57,0.11,-0.49,-5.34,-0.14,3.57,25.125,538.5625,-96.1875,0.5411376953125,0.02459716796875,-0.840576171875,0.0003662109375,0.75,29.6875,22.0,8.92,0.25,-4.06,stop,11
6.61,30159.128507157,31,1,1,0,0,1.37,-0.73,-0.72,-7.91,-1.11,2.39,17.0625,595.4375,-89.375,0.58392333984375,0.0318603515625,-0.8111572265625,-0.0013427734375,0.75,29.6875,22.0,9.28,0.38,-3.11,stop,11
6.62,30159.159749466,31,1,1,0,0,0.81,-0.9,-2.58,-8.75,-1.42,-0.5,-8.875,632.5625,-73.75,0.62774658203125,0.03662109375,-0.77752685546875,-0.00396728515625,0.75,29.6875,22.0,9.57,0.51,-2.07,stop,11
6.63,30159.159749466,31,1,1,0,0,-0.44,0.36,-3.59,-10.16,-0.24,-2.49,-68.3125,580.1875,-51.5625,0.66644287109375,0.03656005859375,-0.74456787109375,-0.009521484375,0.75,29.6875,22.0,9.72,0.61,-1.09,stop,11
6.64,30159.173073482,31,1,1,0,0,-1.0,0.96,-3.7,-10.78,0.27,-3.37,-122.5,443.5625,-29.625,0.695068359375,0.03167724609375,-0.718017578125,-0.01776123046875,0.75,29.6875,22.0,9.77,0.68,-0.32,stop,11
6.65,30159.173073482,31,1,1,0,0,-1.3,1.31,-4.29,-11.08,0.6,-4.5,-152.625,304.0625,-14.5,0.7142333984375,0.0238037109375,-0.698974609375,-0.02734375,-9.75,30.0625,16.0625,9.77,0.7,0.21,stop,11
6.66,30159.188941727,31,1,1,0,0,-1.37,1.47,-4.65,-11.14,0.77,-5.16,-144.1875,163.0,1.375,0.72430419921875,0.01513671875,-0.6883544921875,-0.03570556640625,-9.75,30.0625,16.0625,9.76,0.69,0.5,stop,11
6.67,30159.188941727,31,1,1,0,0,0.2,-0.15,-4.37,-9.56,-0.82,-4.88,-100.75,-4.4375,11.4375,0.72418212890625,0.008056640625,-0.68829345703125,-0.04107666015625,-9.75,30.0625,16.0625,9.77,0.66,0.51,stop,11
6.68,30159.218481522,31,1,1,0,0,1.53,-1.2,-4.01,-8.25,-1.85,-4.23,-50.75,-174.0625,7.3125,0.71368408203125,0.0037841796875,-0.69903564453125,-0.04376220703125,-9.75,30.0625,16.0625,9.78,0.65,0.22,stop,11
6.69,30159.218481522,31,1,1,0,0,2.93,-1.71,-3.72,-6.85,-2.35,-3.41,-7.5625,-311.6875,4.875,0.6944580078125,0.0018310546875,-0.71820068359375,-0.04400634765625,-9.75,30.0625,16.0625,9.78,0.64,-0.3,stop,11
6.7,30159.233061885,31,1,1,0,0,5.39,-1.51,-2.94,-4.34,-2.15,-1.96,32.0,-396.5,1.125,0.669189453125,0.00213623046875,-0.74188232421875,-0.04193115234375,-15.5625,28.0,13.375,9.73,0.63,-0.98,stop,11
6.71,30159.233061885,31,1,1,0,0,6.49,-1.13,-2.66,-3.14,-1.77,-0.98,70.3125,-408.0625,-12.6875,0.642333984375,0.00555419921875,-0.76544189453125,-0.0382080078125,-15.5625,28.0,13.375,9.63,0.64,-1.68,stop,11
6.72,30159.249099442,31,1,1,0,0,7.44,-0.67,-2.57,-2.07,-1.33,-0.31,106.4375,-335.8125,-33.6875,0.61944580078125,0.01263427734375,-0.78424072265625,-0.0330810546875,-15.5625,28.0,13.375,9.51,0.66,-2.25,stop,11
6.73,30159.249099442,31,1,1,0,0,8.0,0.02,-2.34,-1.42,-0.66,0.28,134.125,-210.0,-52.8125,0.6046142578125,0.02288818359375,-0.79571533203125,-0.0269775390625,-15.5625,28.0,13.375,9.42,0.69,-2.62,stop,11
6.74,30159.279739335,31,1,1,0,0,8.15,1.34,-1.85,-1.21,0.61,0.92,145.3125,-81.125,-64.25,0.59844970703125,0.03485107421875,-0.8001708984375,-0.02044677734375,-15.5625,28.0,13.375,9.37,0.72,-2.77,stop,11
6.75,30159.279739335,31,1,1,0,0,8.28,1.68,-1.68,-1.09,0.91,1.08,136.5,10.375,-64.9375,0.59857177734375,0.0465087890625,-0.799560546875,-0.0142822265625,-10.5,28.0,18.875,9.37,0.76,-2.77,stop,11
6.76,30159.295256424,31,1,1,0,0,8.51,1.92,-1.62,-0.87,1.12,1.09,108.875,41.375,-53.5625,0.60089111328125,0.05596923828125,-0.79730224609375,-0.00927734375,-10.5,28.0,18.875,9.38,0.8,-2.72,stop,11
6.77,30159.295256424,31,1,1,0,0,8.84,2.14,-1.75,-0.54,1.31,0.94,62.75,17.75,-30.875,0.601806640625,0.0614013671875,-0.7962646484375,-0.0064697265625,-10.5,28.0,18.875,9.39,0.82,-2.7,stop,11
6.78,30159.30995666,31,1,1,0,0,10.4,1.47,-3.95,1.02,0.65,-1.18,6.6875,-40.5,-4.125,0.59893798828125,0.06201171875,-0.79840087890625,-0.00640869140625,-10.5,28.0,18.875,9.37,0.82,-2.77,stop,11
6.79,30159.30995666,31,1,1,0,0,11.72,1.03,-5.31,2.41,0.22,-2.35,-35.375,-115.625,22.3125,0.59100341796875,0.05853271484375,-0.80450439453125,-0.00836181640625,-10.5,28.0,18.875,9.31,0.81,-2.95,stop,11
6.8,30159.324499995,31,1,1,0,0,13.42,0.52,-6.89,4.2,-0.24,-3.62,-53.875,-197.8125,45.3125,0.57733154296875,0.05242919921875,-0.81475830078125,-0.01080322265625,-9.375,29.5625,16.1875,9.21,0.76,-3.26,stop,11
6.8,30159.324499995,31,1,1,0,0,13.42,0.52,-6.89,4.2,-0.24,-3.62,-53.875,-197.8125,45.3125,0.57733154296875,0.05242919921875,-0.81475830078125,-0.01080322265625,-9.375,29.5625,16.1875,9.21,0.76,-3.26,stop,11
6.81,30159.338513871,31,1,1,0,0,17.21,0.36,-9.76,8.15,-0.33,-6.07,-61.5625,-272.625,64.0625,0.55810546875,0.04449462890625,-0.82843017578125,-0.01318359375,-9.375,29.5625,16.1875,9.05,0.7,-3.69,stop,11
6.82,30159.338513871,31,1,1,0,0,17.92,1.39,-9.43,9.07,0.76,-5.26,-62.0625,-311.875,69.875,0.53570556640625,0.03607177734375,-0.843505859375,-0.01544189453125,-9.375,29.5625,16.1875,8.85,0.63,-4.17,stop,11
6.83,30159.368459143,31,1,1,0,0,16.68,2.11,-6.52,8.02,1.5,-1.95,-40.6875,-261.75,41.3125,0.51641845703125,0.03076171875,-0.8555908203125,-0.017333984375,-9.375,29.5625,16.1875,8.65,0.6,-4.56,stop,11
6.84,30159.368459143,31,1,1,0,0,14.87,1.72,-3.88,6.28,1.1,0.81,-0.9375,-84.8125,-10.4375,0.51007080078125,0.0313720703125,-0.859375,-0.01812744140625,-9.375,29.5625,16.1875,8.58,0.61,-4.69,stop,11
6.85,30159.38351912,31,1,1,0,0,10.09,0.65,-2.61,1.43,0.0,1.93,18.5625,99.6875,-40.0625,0.51739501953125,0.03533935546875,-0.85479736328125,-0.01824951171875,-5.0625,28.0625,19.6875,8.66,0.66,-4.54,stop,11
6.86,30159.38351912,31,1,1,0,0,7.74,0.26,-3.12,-1.04,-0.45,1.16,-8.0625,173.4375,-34.75,0.53021240234375,0.037841796875,-0.8468017578125,-0.01983642578125,-5.0625,28.0625,19.6875,8.79,0.72,-4.28,stop,11
6.87,30159.39890592,31,1,1,0,0,6.16,0.02,-3.08,-2.72,-0.74,0.97,-28.125,142.8125,-17.75,0.540771484375,0.0380859375,-0.84002685546875,-0.02227783203125,-5.0625,28.0625,19.6875,8.89,0.77,-4.06,stop,11
6.88,30159.39890592,31,1,1,0,0,5.42,-0.08,-2.99,-3.51,-0.88,0.96,-25.75,61.0625,-5.8125,0.54534912109375,0.03741455078125,-0.8370361328125,-0.02423095703125,-5.0625,28.0625,19.6875,8.93,0.79,-3.96,stop,11
6.89,30159.428220943,31,1,1,0,0,6.05,0.48,-2.93,-2.86,-0.32,1.06,-16.625,-23.875,-1.6875,0.54364013671875,0.03668212890625,-0.838134765625,-0.025634765625,-5.0625,28.0625,19.6875,8.91,0.81,-3.99,stop,11
6.9,30159.428220943,31,1,1,0,0,6.86,0.78,-3.12,-1.99,-0.03,1.0,-7.25,-86.8125,2.5625,0.53729248046875,0.03594970703125,-0.84222412109375,-0.02630615234375,-5.75,28.5,20.5625,8.85,0.81,-4.13,stop,11
6.91,30159.44352559,31,1,1,0,0,7.46,0.83,-3.35,-1.31,0.04,0.95,-5.9375,-114.875,13.25,0.52886962890625,0.034423828125,-0.84759521484375,-0.0264892578125,-5.75,28.5,20.5625,8.77,0.79,-4.3,stop,11
6.92,30159.44352559,31,1,1,0,0,8.14,0.49,-3.9,-0.53,-0.27,0.57,-15.0,-114.375,25.0,0.52044677734375,0.0316162109375,-0.85284423828125,-0.0267333984375,-5.75,28.5,20.5625,8.68,0.77,-4.47,stop,11
6.93,30159.458795813,31,1,1,0,0,8.53,0.52,-4.0,-0.08,-0.22,0.61,-22.75,-93.75,29.4375,0.51361083984375,0.0281982421875,-0.85711669921875,-0.02734375,-5.75,28.5,20.5625,8.61,0.74,-4.61,stop,11
6.94,30159.458795813,31,1,1,0,0,8.92,0.71,-4.03,0.35,0.0,0.66,-20.3125,-57.875,25.1875,0.50933837890625,0.02520751953125,-0.8597412109375,-0.02789306640625,-5.75,28.5,20.5625,8.57,0.72,-4.7,stop,11
6.95,30159.488667354,31,1,1,0,0,9.16,0.94,-4.0,0.6,0.23,0.72,-12.8125,-15.75,16.0,0.50823974609375,0.0234375,-0.86041259765625,-0.0281982421875,-5.75,27.875,21.0,8.56,0.7,-4.72,stop,11
6.96,30159.488667354,31,1,1,0,0,9.31,1.04,-4.32,0.73,0.34,0.37,-6.6875,18.0625,8.0,0.5096435546875,0.0225830078125,-0.859619140625,-0.02825927734375,-5.75,27.875,21.0,8.57,0.7,-4.69,stop,11
6.97,30159.503053055,31,1,1,0,0,9.32,0.94,-4.65,0.71,0.24,0.0,-3.625,34.0,2.3125,0.51220703125,0.0223388671875,-0.85809326171875,-0.02838134765625,-5.75,27.875,21.0,8.6,0.7,-4.64,stop,11
6.98,30159.503053055,31,1,1,0,0,9.32,0.87,-4.94,0.68,0.16,-0.34,-0.8125,33.0,-1.25,0.5146484375,0.0224609375,-0.85662841796875,-0.0284423828125,-5.75,27.875,21.0,8.63,0.7,-4.59,stop,11
6.99,30159.517896236,31,1,1,0,0,9.43,0.83,-5.17,0.77,0.12,-0.61,3.625,24.75,-4.8125,0.5164794921875,0.02301025390625,-0.85552978515625,-0.0283203125,-5.75,27.875,21.0,8.65,0.7,-4.55,stop,11
7.0,30159.517896236,31,1,1,0,0,9.59,0.93,-5.06,0.92,0.22,-0.53,8.125,18.0625,-7.6875,0.517822265625,0.02398681640625,-0.854736328125,-0.02801513671875,-4.875,27.875,21.25,8.66,0.71,-4.53,stop,11
7.01,30159.548405269,31,1,1,0,0,9.45,1.01,-4.75,0.77,0.29,-0.24,9.25,14.625,-8.8125,0.51885986328125,0.025146484375,-0.85406494140625,-0.0277099609375,-4.875,27.875,21.25,8.67,0.71,-4.51,stop,11
7.02,30159.548405269,31,1,1,0,0,9.22,0.99,-4.43,0.53,0.26,0.05,5.375,13.375,-7.625,0.51983642578125,0.0260009765625,-0.85345458984375,-0.027587890625,-4.875,27.875,21.25,8.68,0.72,-4.49,stop,11
7.03,30159.56391182,31,1,1,0,0,8.71,0.79,-4.04,0.02,0.06,0.42,-1.75,10.8125,-3.875,0.5206298828125,0.02618408203125,-0.85296630859375,-0.02789306640625,-4.875,27.875,21.25,8.69,0.73,-4.47,stop,11
7.04,30159.56391182,31,1,1,0,0,8.52,0.67,-4.0,-0.17,-0.06,0.46,-8.0625,5.25,0.0,0.52099609375,0.02587890625,-0.8526611328125,-0.0284423828125,-4.875,27.875,21.25,8.69,0.74,-4.46,stop,11
7.05,30159.578823441,31,1,1,0,0,8.53,0.71,-4.03,-0.16,-0.02,0.43,-9.625,-2.5625,1.6875,0.5208740234375,0.0252685546875,-0.852783203125,-0.02911376953125,-4.875,28.5,21.0,8.69,0.74,-4.46,stop,11
7.06,30159.578823441,31,1,1,0,0,8.6,0.88,-4.1,-0.08,0.13,0.37,-5.6875,-8.8125,0.625,0.52020263671875,0.02496337890625,-0.8531494140625,-0.029541015625,-4.875,28.5,21.0,8.69,0.74,-4.48,stop,11
7.07,30159.608872839,31,1,1,0,0,8.59,1.08,-4.18,-0.09,0.33,0.31,0.0,-11.8125,-1.125,0.519287109375,0.0250244140625,-0.85369873046875,-0.02960205078125,-4.875,28.5,21.0,8.68,0.75,-4.49,stop,11
7.08,30159.608872839,31,1,1,0,0,8.57,1.09,-4.23,-0.09,0.34,0.29,2.9375,-15.125,-1.75,0.5181884765625,0.02520751953125,-0.8543701171875,-0.02947998046875,-4.875,28.5,21.0,8.66,0.75,-4.52,stop,11
7.09,30159.623774125,31,1,1,0,0,8.53,1.09,-4.27,-0.11,0.34,0.27,2.75,-20.9375,-0.625,0.5166015625,0.02532958984375,-0.8553466796875,-0.02935791015625,-4.875,28.5,21.0,8.65,0.74,-4.55,stop,11
7.1,30159.623774125,31,1,1,0,0,8.49,1.06,-4.32,-0.13,0.32,0.26,0.375,-25.375,1.0625,0.51470947265625,0.02520751953125,-0.85650634765625,-0.02935791015625,-5.25,28.5625,21.75,8.63,0.74,-4.59,stop,11
7.11,30159.638440547,31,1,1,0,0,8.48,0.89,-4.29,-0.12,0.14,0.33,-2.875,-25.6875,2.8125,0.5128173828125,0.0247802734375,-0.857666015625,-0.02947998046875,-5.25,28.5625,21.75,8.61,0.74,-4.63,stop,11
7.12,30159.638440547,31,1,1,0,0,8.56,0.8,-4.36,-0.15,-0.11,0.04,-5.6875,-22.25,4.1875,0.5233154296875,0.02838134765625,-0.850830078125,-0.03790283203125,-5.25,28.5625,21.75,8.71,0.92,-4.4,stop,11
7.13,30159.668786169,31,1,1,0,0,8.69,0.72,-4.3,0.0,-0.19,0.12,-7.875,-18.5625,5.25,0.52197265625,0.02752685546875,-0.85162353515625,-0.038330078125,-5.25,28.5625,21.75,8.69,0.92,-4.43,stop,11
7.14,30159.668786169,31,1,1,0,0,9.0,0.59,-4.16,0.31,-0.32,0.28,-8.8125,-15.0,5.4375,0.52093505859375,0.02667236328125,-0.852294921875,-0.03875732421875,-5.25,28.5625,21.75,8.68,0.92,-4.45,stop,11
7.15,30159.682872554,31,1,1,0,0,9.0,0.53,-4.13,0.32,-0.38,0.33,-8.9375,-10.6875,5.375,0.5201416015625,0.02581787109375,-0.852783203125,-0.0391845703125,-4.0625,28.25,21.25,8.68,0.91,-4.46,stop,11
7.16,30159.682872554,31,1,1,0,0,9.01,0.4,-4.2,0.33,-0.51,0.26,-8.25,-5.75,4.75,0.519775390625,0.02508544921875,-0.85302734375,-0.03961181640625,-4.0625,28.25,21.25,8.67,0.91,-4.47,stop,11
7.17,30159.698836991,31,1,1,0,0,8.79,0.2,-4.48,0.11,-0.71,0.0,-6.0,-0.5,2.625,0.519775390625,0.02459716796875,-0.85302734375,-0.0399169921875,-4.0625,28.25,21.25,8.67,0.91,-4.47,stop,11
7.18,30159.698836991,31,1,1,0,0,8.75,0.0,-4.68,0.07,-0.92,-0.21,0.0,4.625,-1.5625,0.5201416015625,0.02471923828125,-0.852783203125,-0.03997802734375,-4.0625,28.25,21.25,8.68,0.92,-4.46,stop,11
7.19,30159.730206946,31,1,1,0,0,8.69,0.12,-4.7,0.0,-0.79,-0.24,7.6875,9.0,-6.125,0.520751953125,0.02557373046875,-0.8524169921875,-0.0396728515625,-4.0625,28.25,21.25,8.68,0.92,-4.45,stop,11
7.2,30159.730206946,31,1,1,0,0,8.65,0.16,-4.69,-0.03,-0.76,-0.24,9.375,10.25,-6.125,0.521484375,0.0264892578125,-0.8519287109375,-0.03924560546875,-3.375,28.25,21.375,8.69,0.92,-4.44,stop,11
7.21,30159.743739538,31,1,1,0,0,8.65,0.31,-4.59,-0.04,-0.61,-0.16,7.5625,7.25,-4.4375,0.52197265625,0.02716064453125,-0.85162353515625,-0.038818359375,-3.375,28.25,21.375,8.69,0.92,-4.43,stop,11
7.22,30159.743739538,31,1,1,0,0,8.63,0.61,-4.43,-0.06,-0.31,0.0,5.5,5.625,-0.8125,0.52239990234375,0.02752685546875,-0.85137939453125,-0.0384521484375,-3.375,28.25,21.375,8.7,0.92,-4.42,stop,11
7.23,30159.758466793,31,1,1,0,0,8.62,0.66,-4.4,-0.08,-0.25,0.01,2.0625,3.5,3.625,0.52264404296875,0.02734375,-0.85125732421875,-0.03814697265625,-3.375,28.25,21.375,8.7,0.91,-4.42,stop,11
7.24,30159.758466793,31,1,1,0,0,8.69,0.71,-4.38,-0.01,-0.19,0.03,-0.1875,-1.9375,6.8125,0.52252197265625,0.02685546875,-0.85137939453125,-0.03778076171875,-3.375,28.25,21.375,8.7,0.9,-4.42,stop,11
7.25,30159.789275346,31,1,1,0,0,8.8,0.66,-4.3,0.1,-0.23,0.13,-0.6875,-8.5625,8.4375,0.52191162109375,0.026123046875,-0.85174560546875,-0.0374755859375,-4.0625,27.5625,21.375,8.7,0.89,-4.43,stop,11
7.26,30159.789275346,31,1,1,0,0,8.77,0.6,-4.33,0.08,-0.27,0.11,-0.625,-12.0,8.875,0.52105712890625,0.025390625,-0.852294921875,-0.03717041015625,-4.0625,27.5625,21.375,8.69,0.88,-4.45,stop,11
7.27,30159.802662024,31,1,1,0,0,8.76,0.59,-4.37,0.08,-0.27,0.09,-0.3125,-11.75,7.25,0.52020263671875,0.02484130859375,-0.8529052734375,-0.036865234375,-4.0625,27.5625,21.375,8.68,0.86,-4.47,stop,11
7.28,30159.802662024,31,1,1,0,0,8.85,0.67,-4.35,0.17,-0.18,0.12,1.9375,-8.5625,3.8125,0.5196533203125,0.0245361328125,-0.853271484375,-0.03643798828125,-4.0625,27.5625,21.375,8.67,0.85,-4.48,stop,11
7.29,30159.818003536,31,1,1,0,0,9.01,0.9,-4.38,0.33,0.04,0.1,3.0,-4.3125,1.5,0.5194091796875,0.02447509765625,-0.8533935546875,-0.0361328125,-4.0625,27.5625,21.375,8.67,0.85,-4.48,stop,11
7.3,30159.818003536,31,1,1,0,0,9.03,0.93,-4.4,0.35,0.08,0.08,1.9375,-0.75,0.8125,0.5194091796875,0.0245361328125,-0.8533935546875,-0.035888671875,-4.1875,28.0,20.6875,8.67,0.85,-4.48,stop,11
7.31,30159.850051631,31,1,1,0,0,9.01,0.88,-4.44,0.33,0.03,0.04,-0.8125,1.0,1.5,0.51947021484375,0.02435302734375,-0.8533935546875,-0.035888671875,-4.1875,28.0,20.6875,8.67,0.84,-4.48,stop,11
7.32,30159.850051631,31,1,1,0,0,8.9,0.68,-4.51,0.22,-0.15,-0.02,-3.25,2.5,1.875,0.51971435546875,0.0240478515625,-0.853271484375,-0.03607177734375,-4.1875,28.0,20.6875,8.68,0.84,-4.48,stop,11
7.33,30159.866022213,31,1,1,0,0,8.84,0.59,-4.52,0.16,-0.25,-0.04,-4.0625,4.8125,1.3125,0.52008056640625,0.0238037109375,-0.85302734375,-0.0362548828125,-4.1875,28.0,20.6875,8.68,0.84,-4.47,stop,11
7.34,30159.866022213,31,1,1,0,0,8.79,0.53,-4.46,0.1,-0.31,0.0,-3.9375,7.375,0.375,0.5206298828125,0.02362060546875,-0.8526611328125,-0.0364990234375,-4.1875,28.0,20.6875,8.69,0.85,-4.46,stop,11
7.35,30159.878310665,31,1,1,0,0,8.76,0.49,-4.44,0.06,-0.35,0.0,-3.75,8.625,-0.0625,0.52130126953125,0.0234375,-0.85223388671875,-0.0367431640625,-3.875,28.25,22.5625,8.69,0.85,-4.45,stop,11
7.36,30159.878310665,31,1,1,0,0,8.64,0.45,-4.38,-0.05,-0.4,0.04,-3.875,9.875,-0.375,0.52203369140625,0.0233154296875,-0.851806640625,-0.0369873046875,-3.875,28.25,22.5625,8.7,0.85,-4.43,stop,11
7.37,30159.909399735,31,1,1,0,0,8.61,0.44,-4.36,-0.09,-0.41,0.05,-3.75,11.6875,-0.5,0.52294921875,0.02313232421875,-0.85125732421875,-0.0372314453125,-3.875,28.25,22.5625,8.71,0.85,-4.41,stop,11
7.38,30159.909399735,31,1,1,0,0,8.62,0.43,-4.4,-0.09,-0.42,0.0,-2.6875,13.75,-0.75,0.52398681640625,0.02313232421875,-0.8505859375,-0.0374755859375,-3.875,28.25,22.5625,8.72,0.86,-4.39,stop,11
7.39,30159.923324988,31,1,1,0,0,8.59,0.44,-4.43,-0.13,-0.41,-0.06,-1.4375,14.5,-0.8125,0.5250244140625,0.0230712890625,-0.8499755859375,-0.037353515625,-3.875,28.25,22.5625,8.73,0.85,-4.37,stop,11
7.4,30159.923324988,31,1,1,0,0,8.64,0.53,-4.49,-0.09,-0.32,-0.13,-0.25,14.0625,-1.0,0.5260009765625,0.02301025390625,-0.849365234375,-0.03717041015625,-3.5625,28.6875,22.25,8.74,0.85,-4.35,stop,11
7.41,30159.954262976,31,1,1,0,0,8.63,0.58,-4.52,-0.11,-0.26,-0.18,0.25,13.75,-0.8125,0.52691650390625,0.02301025390625,-0.84881591796875,-0.0369873046875,-3.5625,28.6875,22.25,8.75,0.85,-4.33,stop,11
7.42,30159.954262976,31,1,1,0,0,8.65,0.58,-4.54,-0.11,-0.26,-0.23,0.0,12.375,0.0,0.5277099609375,0.02294921875,-0.84832763671875,-0.03680419921875,-3.5625,28.6875,22.25,8.76,0.84,-4.31,stop,11
7.43,30159.959406571,31,1,1,0,0,8.57,0.5,-4.55,-0.19,-0.33,-0.24,-1.25,9.6875,1.0625,0.52825927734375,0.02276611328125,-0.8480224609375,-0.03656005859375,-3.5625,28.6875,22.25,8.76,0.84,-4.3,stop,11
7.44,30159.959406571,31,1,1,0,0,8.54,0.46,-4.56,-0.23,-0.37,-0.26,-2.625,7.1875,1.9375,0.528564453125,0.0223388671875,-0.84783935546875,-0.03643798828125,-3.5625,28.6875,22.25,8.77,0.83,-4.3,stop,11
7.45,30159.983493485,31,1,1,0,0,8.56,0.37,-4.64,-0.21,-0.45,-0.34,-3.0,5.125,2.1875,0.5286865234375,0.0218505859375,-0.8477783203125,-0.03619384765625,-4.6875,28.0625,22.25,8.77,0.82,-4.29,stop,11
7.46,30159.983493485,31,1,1,0,0,8.64,0.41,-4.61,-0.12,-0.4,-0.31,-2.3125,4.125,1.5,0.5286865234375,0.021484375,-0.8477783203125,-0.03594970703125,-4.6875,28.0625,22.25,8.77,0.82,-4.29,stop,11
7.47,30159.998339799,31,1,1,0,0,8.64,0.45,-4.45,-0.13,-0.36,-0.16,-1.0625,5.0,0.1875,0.52886962890625,0.021240234375,-0.84765625,-0.0357666015625,-4.6875,28.0625,22.25,8.77,0.81,-4.29,stop,11
7.48,30159.998339799,31,1,1,0,0,8.68,0.49,-4.43,-0.09,-0.31,-0.14,-1.8125,5.3125,0.5,0.52911376953125,0.02105712890625,-0.8475341796875,-0.03564453125,-4.6875,28.0625,22.25,8.78,0.81,-4.29,stop,11
7.49,30160.031184607,31,1,1,0,0,8.77,0.44,-4.38,-0.01,-0.36,-0.09,-2.875,2.75,1.3125,0.52923583984375,0.02069091796875,-0.84747314453125,-0.03558349609375,-4.6875,28.0625,22.25,8.78,0.8,-4.28,stop,11
7.5,30160.031184607,31,1,1,0,0,8.82,0.39,-4.3,0.03,-0.4,-0.02,-4.3125,2.5,2.375,0.5294189453125,0.02020263671875,-0.847412109375,-0.03558349609375,-4.6875,28.0625,21.875,8.78,0.8,-4.28,stop,11
7.51,30160.044451208,31,1,1,0,0,8.87,0.38,-4.2,0.08,-0.4,0.06,-6.0625,3.6875,3.5625,0.5296630859375,0.01953125,-0.84722900390625,-0.03564453125,-4.6875,28.0625,21.875,8.78,0.79,-4.27,stop,11
7.52,30160.044451208,31,1,1,0,0,8.86,0.39,-4.19,0.07,-0.39,0.07,-7.1875,4.625,4.0625,0.53009033203125,0.018798828125,-0.84698486328125,-0.03582763671875,-4.6875,28.0625,21.875,8.79,0.79,-4.27,stop,11
7.53,30160.058953935,31,1,1,0,0,8.82,0.36,-4.16,0.03,-0.41,0.09,-7.0625,6.5625,3.625,0.5306396484375,0.01812744140625,-0.8466796875,-0.03594970703125,-4.6875,28.0625,21.875,8.79,0.78,-4.25,stop,11
7.54,30160.058953935,31,1,1,0,0,8.84,0.37,-4.18,0.03,-0.4,0.05,-5.875,9.375,2.5,0.5313720703125,0.01751708984375,-0.84619140625,-0.0360107421875,-4.6875,28.0625,21.875,8.8,0.78,-4.24,stop,11
7.55,30160.088729651,31,1,1,0,0,8.83,0.39,-4.18,0.02,-0.38,0.04,-4.0,11.3125,1.125,0.5322265625,0.0172119140625,-0.84564208984375,-0.03607177734375,-4.6875,28.375,23.0,8.81,0.77,-4.22,stop,11
7.56,30160.088729651,31,1,1,0,0,8.83,0.41,-4.24,0.0,-0.35,-0.03,-2.625,12.125,0.0,0.53314208984375,0.0169677734375,-0.8450927734375,-0.03607177734375,-4.6875,28.375,23.0,8.82,0.77,-4.2,stop,11
7.57,30160.104283647,31,1,1,0,0,8.8,0.43,-4.24,-0.03,-0.33,-0.06,-1.75,13.125,-0.625,0.5340576171875,0.01690673828125,-0.844482421875,-0.03607177734375,-4.6875,28.375,23.0,8.83,0.77,-4.18,stop,11
7.58,30160.104283647,31,1,1,0,0,8.82,0.45,-4.18,-0.02,-0.31,-0.01,-1.6875,13.3125,-0.4375,0.5350341796875,0.01678466796875,-0.8438720703125,-0.0360107421875,-4.6875,28.375,23.0,8.84,0.77,-4.16,stop,11
7.59,30160.120675126,31,1,1,0,0,8.83,0.45,-4.16,-0.01,-0.32,-0.01,-2.5625,12.8125,0.0625,0.5360107421875,0.0166015625,-0.84332275390625,-0.0360107421875,-4.6875,28.375,23.0,8.85,0.77,-4.14,stop,11
7.6,30160.120675126,31,1,1,0,0,8.82,0.43,-4.11,-0.03,-0.33,0.01,-3.875,11.875,1.125,0.536865234375,0.01629638671875,-0.8427734375,-0.03607177734375,-3.5625,28.0625,21.0625,8.86,0.76,-4.12,stop,11
7.61,30160.148106645,31,1,1,0,0,8.82,0.41,-4.08,-0.04,-0.34,0.02,-5.1875,10.625,2.375,0.53765869140625,0.01580810546875,-0.84222412109375,-0.03619384765625,-3.5625,28.0625,21.0625,8.87,0.76,-4.11,stop,11
7.62,30160.148106645,31,1,1,0,0,8.83,0.36,-4.18,-0.03,-0.39,-0.08,-5.25,9.875,2.625,0.538330078125,0.0152587890625,-0.841796875,-0.0362548828125,-3.5625,28.0625,21.0625,8.87,0.76,-4.09,stop,11
7.63,30160.163890987,31,1,1,0,0,8.86,0.37,-4.26,-0.01,-0.37,-0.18,-3.3125,9.8125,1.875,0.53900146484375,0.014892578125,-0.84136962890625,-0.03619384765625,-3.5625,28.0625,21.0625,8.88,0.75,-4.08,stop,11
7.64,30160.163890987,31,1,1,0,0,8.89,0.42,-4.21,0.0,-0.32,-0.15,-0.0625,10.0,0.25,0.5396728515625,0.0147705078125,-0.8409423828125,-0.0360107421875,-3.5625,28.0625,21.0625,8.89,0.75,-4.06,stop,11
7.65,30160.179706498,31,1,1,0,0,8.86,0.54,-4.13,-0.03,-0.2,-0.07,2.3125,11.3125,-1.3125,0.54046630859375,0.01495361328125,-0.8404541015625,-0.0357666015625,-4.0,28.375,21.375,8.89,0.74,-4.05,stop,11
7.66,30160.179706498,31,1,1,0,0,8.86,0.59,-4.07,-0.04,-0.15,-0.04,1.8125,11.5,-1.375,0.541259765625,0.01513671875,-0.8399658203125,-0.03558349609375,-4.0,28.375,21.375,8.9,0.74,-4.03,stop,11
7.67,30160.209181026,31,1,1,0,0,8.84,0.56,-4.09,-0.06,-0.18,-0.07,-0.9375,9.5625,-0.0625,0.54193115234375,0.01507568359375,-0.83953857421875,-0.03558349609375,-4.0,28.375,21.375,8.91,0.74,-4.02,stop,11
7.68,30160.209181026,31,1,1,0,0,8.89,0.51,-4.14,-0.02,-0.23,-0.12,-3.9375,5.6875,1.3125,0.54229736328125,0.01470947265625,-0.83929443359375,-0.03570556640625,-4.0,28.375,21.375,8.91,0.74,-4.01,stop,11
7.69,30160.223210201,31,1,1,0,0,8.95,0.52,-4.15,0.03,-0.22,-0.14,-5.375,3.25,1.625,0.54254150390625,0.0142822265625,-0.83917236328125,-0.035888671875,-4.0,28.375,21.375,8.91,0.74,-4.0,stop,11
7.7,30160.223210201,31,1,1,0,0,8.95,0.51,-4.08,0.03,-0.23,-0.08,-4.6875,4.5,0.6875,0.5428466796875,0.01397705078125,-0.83892822265625,-0.0361328125,-5.0625,27.6875,21.875,8.92,0.74,-4.0,stop,11
7.71,30160.238701208,31,1,1,0,0,8.93,0.49,-4.1,0.0,-0.25,-0.11,-3.6875,6.625,-0.375,0.54327392578125,0.0137939453125,-0.838623046875,-0.0362548828125,-5.0625,27.6875,21.875,8.92,0.74,-3.99,stop,11
7.72,30160.238701208,31,1,1,0,0,8.9,0.45,-4.12,-0.02,-0.28,-0.14,-3.1875,7.0,-0.8125,0.54376220703125,0.01361083984375,-0.83831787109375,-0.03643798828125,-5.0625,27.6875,21.875,8.93,0.74,-3.98,stop,11
7.73,30160.268179928,31,1,1,0,0,8.82,0.41,-4.08,-0.11,-0.32,-0.11,-3.6875,5.875,-0.8125,0.54412841796875,0.013427734375,-0.83807373046875,-0.03656005859375,-5.0625,27.6875,21.875,8.93,0.74,-3.97,stop,11
7.74,30160.268179928,31,1,1,0,0,8.76,0.39,-4.11,-0.17,-0.35,-0.15,-4.0,4.8125,-0.375,0.54437255859375,0.01312255859375,-0.83795166015625,-0.03668212890625,-5.0625,27.6875,21.875,8.93,0.74,-3.96,stop,11
7.75,30160.283139482,31,1,1,0,0,8.73,0.39,-4.13,-0.2,-0.34,-0.16,-4.375,3.1875,0.125,0.54449462890625,0.0128173828125,-0.83782958984375,-0.03680419921875,-4.25,28.6875,22.25,8.93,0.74,-3.96,stop,11
7.76,30160.283139482,31,1,1,0,0,8.79,0.42,-4.16,-0.14,-0.31,-0.19,-4.375,1.8125,0.4375,0.54449462890625,0.01251220703125,-0.83782958984375,-0.03692626953125,-4.25,28.6875,22.25,8.93,0.73,-3.96,stop,11
7.77,30160.29974198,31,1,1,0,0,8.82,0.43,-4.1,-0.1,-0.3,-0.14,-4.125,1.125,0.8125,0.54449462890625,0.0120849609375,-0.83782958984375,-0.0369873046875,-4.25,28.6875,22.25,8.93,0.73,-3.96,stop,11
7.78,30160.29974198,31,1,1,0,0,8.89,0.45,-4.06,-0.04,-0.28,-0.1,-3.9375,0.9375,1.4375,0.54449462890625,0.01171875,-0.83782958984375,-0.03704833984375,-4.25,28.6875,22.25,8.93,0.73,-3.96,stop,11
7.79,30160.328795976,31,1,1,0,0,8.96,0.42,-4.03,0.02,-0.3,-0.06,-4.125,1.0625,1.875,0.5445556640625,0.01129150390625,-0.83782958984375,-0.037109375,-4.25,28.6875,22.25,8.94,0.73,-3.96,stop,11
7.8,30160.328795976,31,1,1,0,0,9.02,0.47,-3.99,0.08,-0.24,-0.03,-3.75,0.875,2.0625,0.54461669921875,0.0108642578125,-0.8377685546875,-0.03717041015625,-5.5,28.6875,21.875,8.94,0.72,-3.96,stop,11
7.81,30160.344694413,31,1,1,0,0,9.04,0.51,-3.94,0.09,-0.21,0.01,-3.0625,1.75,1.5625,0.54473876953125,0.01055908203125,-0.83770751953125,-0.0372314453125,-5.5,28.6875,21.875,8.94,0.72,-3.95,stop,11
7.82,30160.344694413,31,1,1,0,0,9.05,0.53,-3.91,0.1,-0.18,0.03,-2.625,3.0625,1.125,0.54498291015625,0.01031494140625,-0.8375244140625,-0.03729248046875,-5.5,28.6875,21.875,8.94,0.72,-3.95,stop,11
7.83,30160.362165198,31,1,1,0,0,8.99,0.52,-3.9,0.04,-0.19,0.04,-3.0,2.9375,1.4375,0.54522705078125,0.01007080078125,-0.83740234375,-0.037353515625,-5.5,28.6875,21.875,8.94,0.72,-3.94,stop,11
7.84,30160.362165198,31,1,1,0,0,8.81,0.4,-4.16,-0.13,-0.31,-0.21,-2.9375,0.9375,1.6875,0.5452880859375,0.00970458984375,-0.83740234375,-0.03741455078125,-5.5,28.6875,21.875,8.94,0.71,-3.94,stop,11
7.85,30160.389191443,31,1,1,0,0,8.75,0.35,-4.28,-0.18,-0.35,-0.33,-0.5,-0.375,0.3125,0.545166015625,0.00958251953125,-0.83746337890625,-0.0372314453125,-5.75,27.6875,20.6875,8.94,0.71,-3.95,stop,11
7.86,30160.389191443,31,1,1,0,0,8.76,0.46,-4.2,-0.18,-0.24,-0.25,5.9375,0.75,-3.875,0.5450439453125,0.01007080078125,-0.8375244140625,-0.03680419921875,-5.75,27.6875,20.6875,8.94,0.71,-3.95,stop,11
7.87,30160.404172563,31,1,1,0,0,8.89,0.53,-4.05,-0.05,-0.17,-0.09,10.25,2.6875,-5.5,0.54510498046875,0.0108642578125,-0.8375244140625,-0.03619384765625,-5.75,27.6875,20.6875,8.94,0.71,-3.95,stop,11
7.88,30160.404172563,31,1,1,0,0,9.04,0.58,-3.87,0.09,-0.12,0.07,7.3125,1.1875,-3.5625,0.545166015625,0.011474609375,-0.83746337890625,-0.0357666015625,-5.75,27.6875,20.6875,8.94,0.71,-3.95,stop,11
7.89,30160.41796602,31,1,1,0,0,9.04,0.71,-3.78,0.09,0.0,0.17,0.8125,-2.3125,0.875,0.5450439453125,0.01141357421875,-0.83758544921875,-0.03564453125,-5.75,27.6875,20.6875,8.94,0.7,-3.95,stop,11
7.9,30160.41796602,31,1,1,0,0,9.0,0.8,-3.79,0.05,0.1,0.16,-5.0625,-4.1875,5.25,0.54473876953125,0.01080322265625,-0.8377685546875,-0.0357666015625,-5.5,27.6875,22.25,8.94,0.7,-3.96,stop,11
7.91,30160.450229488,31,1,1,0,0,9.05,0.75,-3.9,0.11,0.05,0.06,-6.375,-3.75,5.75,0.54449462890625,0.010009765625,-0.83795166015625,-0.03594970703125,-5.5,27.6875,22.25,8.94,0.69,-3.96,stop,11
7.92,30160.450229488,31,1,1,0,0,9.12,0.67,-3.88,0.18,-0.02,0.07,-2.25,-0.8125,2.625,0.54443359375,0.00970458984375,-0.8380126953125,-0.03594970703125,-5.5,27.6875,22.25,8.94,0.69,-3.96,stop,11
7.93,30160.46367891,31,1,1,0,0,9.14,0.56,-3.84,0.2,-0.12,0.12,3.0,4.125,-1.6875,0.54473876953125,0.010009765625,-0.8377685546875,-0.0357666015625,-5.5,27.6875,22.25,8.94,0.69,-3.96,stop,11
7.94,30160.46367891,31,1,1,0,0,9.09,0.48,-3.76,0.14,-0.21,0.17,6.8125,10.5625,-5.625,0.5455322265625,0.0107421875,-0.8372802734375,-0.0355224609375,-5.5,27.6875,22.25,8.95,0.69,-3.94,stop,11
7.95,30160.47836641,31,1,1,0,0,9.08,0.39,-3.68,0.12,-0.3,0.23,9.0625,15.75,-8.625,0.5467529296875,0.01177978515625,-0.83648681640625,-0.03515625,-5.0625,27.6875,21.875,8.96,0.7,-3.91,stop,11
7.96,30160.47836641,31,1,1,0,0,9.11,0.48,-3.69,0.13,-0.22,0.19,9.875,16.625,-10.75,0.54803466796875,0.01300048828125,-0.83563232421875,-0.0347900390625,-5.0625,27.6875,21.875,8.97,0.71,-3.89,stop,11
7.97,30160.508483354,31,1,1,0,0,9.12,0.56,-3.73,0.13,-0.15,0.12,9.9375,15.4375,-11.875,0.5491943359375,0.01434326171875,-0.83489990234375,-0.0345458984375,-5.0625,27.6875,21.875,8.98,0.72,-3.86,stop,11
7.98,30160.508483354,31,1,1,0,0,9.13,0.65,-3.77,0.13,-0.07,0.07,9.0,15.0625,-11.5,0.55023193359375,0.015625,-0.83416748046875,-0.03436279296875,-5.0625,27.6875,21.875,8.99,0.73,-3.84,stop,11
7.99,30160.523219478,31,1,1,0,0,9.14,0.67,-3.8,0.13,-0.06,0.01,7.125,16.0,-10.0,0.5513916015625,0.0167236328125,-0.8333740234375,-0.0343017578125,-5.0625,27.6875,21.875,9.0,0.74,-3.82,stop,11
8.0,30160.523219478,31,1,1,0,0,9.1,0.67,-3.82,0.09,-0.06,-0.03,4.6875,16.9375,-8.0,0.5526123046875,0.017578125,-0.83251953125,-0.03424072265625,-5.5,28.0625,19.875,9.01,0.74,-3.79,stop,11
8.01,30160.538590613,31,1,1,0,0,9.12,0.67,-3.83,0.1,-0.07,-0.06,3.0,17.3125,-6.3125,0.5538330078125,0.0181884765625,-0.83172607421875,-0.0343017578125,-5.5,28.0625,19.875,9.02,0.75,-3.76,stop,11
8.02,30160.538590613,31,1,1,0,0,9.07,0.65,-3.8,0.04,-0.11,-0.06,1.875,18.0,-4.875,0.55511474609375,0.0186767578125,-0.83087158203125,-0.03436279296875,-5.5,28.0625,19.875,9.03,0.76,-3.73,stop,11
8.03,30160.568475379,31,1,1,0,0,9.03,0.65,-3.75,0.0,-0.11,-0.04,1.375,18.5,-4.0,0.55645751953125,0.01910400390625,-0.8299560546875,-0.03436279296875,-5.5,28.0625,19.875,9.04,0.76,-3.71,stop,11
8.04,30160.568475379,31,1,1,0,0,9.02,0.65,-3.7,-0.03,-0.12,-0.02,1.375,19.1875,-3.8125,0.55780029296875,0.01947021484375,-0.82904052734375,-0.034423828125,-5.5,28.0625,19.875,9.05,0.77,-3.68,stop,11
8.05,30160.583686479,31,1,1,0,0,9.01,0.64,-3.65,-0.05,-0.13,0.0,1.5,19.9375,-4.125,0.5592041015625,0.0198974609375,-0.82806396484375,-0.034423828125,-6.0625,28.0625,20.6875,9.06,0.77,-3.64,stop,11
8.06,30160.583686479,31,1,1,0,0,9.01,0.63,-3.51,-0.06,-0.14,0.1,1.4375,19.5625,-3.9375,0.56060791015625,0.020263671875,-0.82708740234375,-0.034423828125,-6.0625,28.0625,20.6875,9.08,0.78,-3.61,stop,11
8.07,30160.598204342,31,1,1,0,0,9.0,0.62,-3.5,-0.08,-0.15,0.08,0.8125,18.25,-3.3125,0.56195068359375,0.02056884765625,-0.82623291015625,-0.03448486328125,-6.0625,28.0625,20.6875,9.09,0.78,-3.59,stop,11
8.08,30160.598204342,31,1,1,0,0,8.98,0.59,-3.46,-0.11,-0.19,0.1,0.4375,16.625,-2.5625,0.5631103515625,0.02081298828125,-0.82537841796875,-0.0345458984375,-6.0625,28.0625,20.6875,9.1,0.78,-3.56,stop,11
8.09,30160.630253333,31,1,1,0,0,8.96,0.62,-3.48,-0.14,-0.16,0.05,0.3125,15.4375,-1.75,0.564208984375,0.02093505859375,-0.82464599609375,-0.0345458984375,-6.0625,28.0625,20.6875,9.11,0.79,-3.53,stop,11
8.1,30160.630253333,31,1,1,0,0,8.94,0.64,-3.5,-0.17,-0.15,0.01,0.9375,13.5,-1.5625,0.565185546875,0.0211181640625,-0.823974609375,-0.03448486328125,-6.5,28.375,19.875,9.11,0.79,-3.51,stop,11
8.11,30160.646032182,31,1,1,0,0,8.96,0.65,-3.51,-0.16,-0.14,-0.01,2.0625,11.625,-1.5625,0.56597900390625,0.0213623046875,-0.82342529296875,-0.03436279296875,-6.5,28.375,19.875,9.12,0.79,-3.5,stop,11
8.12,30160.646032182,31,1,1,0,0,8.98,0.65,-3.53,-0.14,-0.13,-0.04,3.0,10.375,-1.75,0.56671142578125,0.0216064453125,-0.82293701171875,-0.0341796875,-6.5,28.375,19.875,9.13,0.79,-3.48,stop,11
8.13,30160.659388749,31,1,1,0,0,9.05,0.69,-3.6,-0.08,-0.09,-0.13,3.375,9.9375,-1.875,0.5673828125,0.02191162109375,-0.82244873046875,-0.03399658203125,-6.5,28.375,19.875,9.13,0.79,-3.46,stop,11
8.14,30160.659388749,31,1,1,0,0,9.1,0.7,-3.52,-0.04,-0.08,-0.07,3.0625,9.625,-2.25,0.56805419921875,0.02227783203125,-0.822021484375,-0.0338134765625,-6.5,28.375,19.875,9.14,0.79,-3.45,stop,11
8.15,30160.688059241,31,1,1,0,0,9.12,0.7,-3.49,-0.02,-0.09,-0.05,2.8125,10.0,-2.0,0.5687255859375,0.0225830078125,-0.821533203125,-0.03363037109375,-6.875,27.6875,20.6875,9.14,0.79,-3.44,stop,11
8.16,30160.688059241,31,1,1,0,0,9.18,0.73,-3.45,0.03,-0.05,-0.03,2.3125,9.75,-1.375,0.56939697265625,0.02276611328125,-0.821044921875,-0.03350830078125,-6.875,27.6875,20.6875,9.15,0.79,-3.42,stop,11
8.17,30160.703419715,31,1,1,0,0,9.25,0.72,-3.39,0.09,-0.07,0.02,1.25,8.8125,-0.625,0.57000732421875,0.02288818359375,-0.82061767578125,-0.033447265625,-6.875,27.6875,20.6875,9.15,0.79,-3.41,stop,11
8.18,30160.703419715,31,1,1,0,0,9.26,0.7,-3.33,0.1,-0.08,0.06,-0.1875,7.75,0.375,0.570556640625,0.02294921875,-0.82025146484375,-0.03338623046875,-6.875,27.6875,20.6875,9.16,0.79,-3.39,stop,11
8.19,30160.718209998,31,1,1,0,0,9.23,0.74,-3.31,0.06,-0.04,0.07,-1.625,7.0625,0.9375,0.57110595703125,0.02276611328125,-0.81988525390625,-0.033447265625,-6.875,27.6875,20.6875,9.16,0.79,-3.38,stop,11
8.2,30160.718209998,31,1,1,0,0,9.17,0.77,-3.26,0.0,-0.02,0.11,-1.4375,7.125,0.8125,0.5716552734375,0.02264404296875,-0.81951904296875,-0.033447265625,-7.25,28.375,19.875,9.17,0.79,-3.37,stop,11
8.21,30160.734518022,31,1,1,0,0,9.14,0.73,-3.23,-0.03,-0.05,0.12,-0.4375,7.4375,0.1875,0.5721435546875,0.02264404296875,-0.81915283203125,-0.033447265625,-7.25,28.375,19.875,9.17,0.79,-3.36,stop,11
8.22,30160.734518022,31,1,1,0,0,9.12,0.7,-3.23,-0.05,-0.08,0.11,0.0625,6.9375,0.0,0.57269287109375,0.022705078125,-0.81878662109375,-0.03338623046875,-7.25,28.375,19.875,9.18,0.79,-3.35,stop,11
8.23,30160.764406043,31,1,1,0,0,9.13,0.74,-3.23,-0.05,-0.04,0.11,0.125,5.1875,0.1875,0.57305908203125,0.022705078125,-0.81854248046875,-0.03338623046875,-7.25,28.375,19.875,9.18,0.79,-3.34,stop,11
8.24,30160.764406043,31,1,1,0,0,9.12,0.72,-3.2,-0.06,-0.06,0.12,-0.3125,3.8125,0.5625,0.5733642578125,0.02264404296875,-0.81829833984375,-0.0333251953125,-7.25,28.375,19.875,9.18,0.78,-3.33,stop,11
8.25,30160.779306962,31,1,1,0,0,9.13,0.71,-3.17,-0.05,-0.06,0.15,-1.1875,4.0625,1.0625,0.57366943359375,0.02252197265625,-0.818115234375,-0.0333251953125,-8.0,28.6875,20.6875,9.19,0.78,-3.33,stop,11
8.26,30160.779306962,31,1,1,0,0,9.17,0.75,-3.14,-0.01,-0.03,0.18,-2.25,4.75,1.625,0.57403564453125,0.02227783203125,-0.81787109375,-0.03338623046875,-8.0,28.6875,20.6875,9.19,0.78,-3.32,stop,11
8.27,30160.813056393,31,1,1,0,0,9.22,0.77,-3.2,0.03,-0.01,0.1,-3.125,5.125,2.0625,0.57440185546875,0.02197265625,-0.81756591796875,-0.03350830078125,-8.0,28.6875,20.6875,9.19,0.78,-3.31,stop,11
8.28,30160.813056393,31,1,1,0,0,9.23,0.71,-3.21,0.03,-0.06,0.08,-4.1875,5.625,2.5625,0.57489013671875,0.0216064453125,-0.8172607421875,-0.03363037109375,-8.0,28.6875,20.6875,9.2,0.78,-3.3,stop,11
8.29,30160.822983476,31,1,1,0,0,9.27,0.73,-3.28,0.07,-0.04,0.01,-4.6875,5.875,2.6875,0.5753173828125,0.02117919921875,-0.81695556640625,-0.0338134765625,-8.0,28.6875,20.6875,9.2,0.78,-3.29,stop,11
8.3,30160.822983476,31,1,1,0,0,9.28,0.71,-3.29,0.08,-0.06,-0.01,-4.5,6.6875,2.5625,0.5758056640625,0.020751953125,-0.81658935546875,-0.03399658203125,-6.875,27.25,20.6875,9.2,0.77,-3.28,stop,11
8.31,30160.839075965,31,1,1,0,0,9.29,0.69,-3.39,0.08,-0.07,-0.13,-3.8125,7.5625,2.125,0.57635498046875,0.02044677734375,-0.81622314453125,-0.03411865234375,-6.875,27.25,20.6875,9.21,0.77,-3.26,stop,11
8.32,30160.839075965,31,1,1,0,0,9.23,0.68,-3.35,0.01,-0.09,-0.09,-2.6875,7.9375,1.25,0.576904296875,0.02020263671875,-0.81585693359375,-0.03424072265625,-6.875,27.25,20.6875,9.21,0.77,-3.25,stop,11
8.33,30160.868768347,31,1,1,0,0,9.18,0.67,-3.27,-0.03,-0.09,-0.03,-1.6875,8.375,0.5,0.5775146484375,0.0201416015625,-0.8154296875,-0.0343017578125,-6.875,27.25,20.6875,9.22,0.77,-3.24,stop,11
8.34,30160.868768347,31,1,1,0,0,9.11,0.67,-3.18,-0.11,-0.1,0.03,-1.0625,8.0625,0.1875,0.57806396484375,0.02008056640625,-0.81500244140625,-0.03436279296875,-6.875,27.25,20.6875,9.22,0.77,-3.22,stop,11
8.35,30160.884154537,31,1,1,0,0,9.08,0.74,-3.15,-0.14,-0.03,0.06,-2.0,5.8125,0.875,0.5784912109375,0.01995849609375,-0.814697265625,-0.034423828125,-7.5625,28.0625,20.6875,9.23,0.77,-3.21,stop,11
8.36,30160.884154537,31,1,1,0,0,9.08,0.73,-3.14,-0.14,-0.03,0.07,-3.0625,2.0,1.75,0.57867431640625,0.0196533203125,-0.8145751953125,-0.0345458984375,-7.5625,28.0625,20.6875,9.23,0.77,-3.21,stop,11
8.37,30160.899870154,31,1,1,0,0,9.05,0.69,-3.12,-0.17,-0.07,0.09,-3.5,-1.8125,2.5,0.57855224609375,0.019287109375,-0.814697265625,-0.03466796875,-7.5625,28.0625,20.6875,9.23,0.77,-3.21,stop,11
8.38,30160.899870154,31,1,1,0,0,9.08,0.66,-3.22,-0.14,-0.1,0.0,-2.625,-4.0,2.1875,0.5782470703125,0.01898193359375,-0.81488037109375,-0.03472900390625,-7.5625,28.0625,20.6875,9.22,0.77,-3.22,moving,11
8.39,30160.916533037,31,1,1,0,0,9.13,0.68,-3.24,-0.09,-0.08,-0.01,-0.625,-4.625,1.4375,0.57794189453125,0.018798828125,-0.81512451171875,-0.03472900390625,-7.5625,28.0625,20.6875,9.22,0.76,-3.23,moving,11
8.4,30160.916533037,31,1,1,0,0,9.17,0.68,-3.27,-0.04,-0.08,-0.03,0.5625,-4.4375,0.75,0.57763671875,0.01873779296875,-0.81536865234375,-0.03460693359375,-7.5625,28.6875,20.6875,9.22,0.76,-3.23,moving,11
8.41,30160.948128129,31,1,1,0,0,9.21,0.66,-3.3,0.0,-0.1,-0.06,0.75,-4.0625,0.6875,0.57733154296875,0.01873779296875,-0.8155517578125,-0.0345458984375,-7.5625,28.6875,20.6875,9.22,0.76,-3.24,moving,11
8.42,30160.948128129,31,1,1,0,0,9.27,0.63,-3.39,0.05,-0.12,-0.14,0.0,-4.0,1.125,0.5770263671875,0.01861572265625,-0.8157958984375,-0.034423828125,-7.5625,28.6875,20.6875,9.22,0.76,-3.25,moving,11
8.43,30160.958881507,31,1,1,0,0,9.25,0.64,-3.42,0.03,-0.11,-0.16,-0.75,-4.0625,1.625,0.57672119140625,0.0184326171875,-0.81597900390625,-0.034423828125,-7.5625,28.6875,20.6875,9.21,0.75,-3.25,moving,11
8.44,30160.958881507,31,1,1,0,0,9.15,0.7,-3.38,-0.05,-0.05,-0.11,-1.0625,-5.0625,1.875,0.57635498046875,0.0181884765625,-0.8162841796875,-0.03436279296875,-7.5625,28.6875,20.6875,9.21,0.75,-3.26,moving,11
8.45,30160.973205725,31,1,1,0,0,9.06,0.75,-3.33,-0.14,0.0,-0.05,-1.125,-8.5,2.25,0.57574462890625,0.0179443359375,-0.81671142578125,-0.03436279296875,-7.5625,27.25,19.5,9.21,0.75,-3.28,moving,11
8.46,30160.973205725,31,1,1,0,0,8.72,0.69,-3.22,-0.47,-0.04,0.08,-1.125,-16.0,3.1875,0.57464599609375,0.01763916015625,-0.8175048828125,-0.0343017578125,-7.5625,27.25,19.5,9.2,0.74,-3.3,moving,11
8.47,30161.003440263,31,1,1,0,0,8.59,0.67,-3.2,-0.59,-0.06,0.14,-1.5,-27.625,5.125,0.5726318359375,0.01708984375,-0.81890869140625,-0.0341796875,-7.5625,27.25,19.5,9.18,0.74,-3.35,moving,11
8.48,30161.003440263,31,1,1,0,0,8.51,0.58,-3.18,-0.64,-0.14,0.23,-2.3125,-41.875,7.5625,0.5697021484375,0.01629638671875,-0.82098388671875,-0.03399658203125,-7.5625,27.25,19.5,9.16,0.72,-3.41,moving,11
8.49,30161.034275183,31,1,1,0,0,8.56,0.44,-3.13,-0.56,-0.27,0.36,-3.25,-53.875,9.75,0.56585693359375,0.0152587890625,-0.82366943359375,-0.0338134765625,-7.5625,27.25,19.5,9.13,0.71,-3.5,moving,11
8.5,30161.034275183,31,1,1,0,0,8.57,0.34,-3.16,-0.52,-0.35,0.42,-3.75,-58.6875,11.125,0.5616455078125,0.01409912109375,-0.8265380859375,-0.03363037109375,-7.25,28.375,20.25,9.09,0.7,-3.59,moving,11
8.51,30161.040228064,31,1,1,0,0,8.53,0.25,-3.24,-0.53,-0.42,0.43,-2.625,-52.4375,10.3125,0.55792236328125,0.0130615234375,-0.8291015625,-0.03338623046875,-7.25,28.375,20.25,9.06,0.68,-3.67,moving,11
8.52,30161.040228064,31,1,1,0,0,8.4,0.2,-3.37,-0.63,-0.47,0.36,1.25,-37.375,7.5625,0.55523681640625,0.012451171875,-0.8309326171875,-0.032958984375,-7.25,28.375,20.25,9.04,0.67,-3.73,moving,11
8.52,30161.048144975,31,1,1,0,0,8.4,0.2,-3.37,-0.63,-0.47,0.36,1.25,-37.375,7.5625,0.55523681640625,0.012451171875,-0.8309326171875,-0.032958984375,-7.25,28.375,20.25,9.04,0.67,-3.73,moving,11
8.53,30161.048144975,31,1,1,0,0,7.99,0.29,-3.29,-1.03,-0.36,0.47,7.1875,-23.3125,3.6875,0.55352783203125,0.012451171875,-0.83209228515625,-0.03228759765625,-7.25,28.375,20.25,9.02,0.66,-3.77,moving,11
8.54,30161.063019975,31,1,1,0,0,7.56,0.39,-3.1,-1.44,-0.25,0.69,12.5,-18.4375,1.3125,0.55218505859375,0.012939453125,-0.8330078125,-0.03131103515625,-7.25,28.375,20.25,9.01,0.65,-3.8,moving,11
8.55,30161.063019975,31,1,1,0,0,7.01,0.48,-2.75,-1.99,-0.15,1.08,15.375,-20.625,1.5625,0.5506591796875,0.01348876953125,-0.83404541015625,-0.0301513671875,-6.5,28.375,21.0625,9.0,0.63,-3.84,moving,11
8.56,30161.093775346,31,1,1,0,0,6.43,0.57,-2.35,-2.55,-0.04,1.53,15.75,-25.1875,3.125,0.548828125,0.01397705078125,-0.8353271484375,-0.02886962890625,-6.5,28.375,21.0625,8.98,0.62,-3.88,moving,11
8.57,30161.093775346,31,1,1,0,0,5.25,0.5,-1.68,-3.7,-0.09,2.24,14.0625,-30.9375,5.1875,0.54656982421875,0.01416015625,-0.83685302734375,-0.027587890625,-6.5,28.375,21.0625,8.96,0.6,-3.93,moving,11
8.58,30161.109007076,31,1,1,0,0,4.73,0.27,-1.47,-4.2,-0.31,2.52,11.25,-40.0625,7.4375,0.54364013671875,0.0140380859375,-0.83880615234375,-0.0264892578125,-6.5,28.375,21.0625,8.93,0.58,-3.99,moving,11
8.59,30161.109007076,31,1,1,0,0,4.46,-0.06,-1.43,-4.43,-0.62,2.64,9.4375,-49.6875,8.875,0.5400390625,0.01373291015625,-0.8411865234375,-0.025390625,-6.5,28.375,21.0625,8.9,0.56,-4.07,moving,11
8.6,30161.122500607,31,1,1,0,0,6.02,-0.98,-3.14,-2.83,-1.52,1.01,10.75,-58.1875,10.5625,0.5357666015625,0.01336669921875,-0.84393310546875,-0.024169921875,-5.5,28.375,21.375,8.86,0.54,-4.16,moving,11
8.61,30161.122500607,31,1,1,0,0,7.85,-0.99,-4.89,-0.95,-1.49,-0.62,14.6875,-68.875,13.625,0.53070068359375,0.01287841796875,-0.84716796875,-0.02252197265625,-5.5,28.375,21.375,8.81,0.5,-4.27,moving,11
8.62,30161.154458655,31,1,1,0,0,10.36,-0.78,-7.01,1.61,-1.25,-2.59,18.125,-93.5,18.4375,0.5238037109375,0.01214599609375,-0.85150146484375,-0.02044677734375,-5.5,28.375,21.375,8.74,0.46,-4.41,moving,11
8.63,30161.154458655,31,1,1,0,0,13.67,-0.45,-9.3,5.04,-0.86,-4.66,22.875,-142.375,23.125,0.51318359375,0.01123046875,-0.8580322265625,-0.017822265625,-5.5,28.375,21.375,8.63,0.41,-4.63,moving,11
8.64,30161.170651811,31,1,1,0,0,25.06,0.93,-13.52,16.6,0.6,-8.58,34.6875,-203.75,30.5625,0.49786376953125,0.01019287109375,-0.8670654296875,-0.0140380859375,-5.5,28.375,21.375,8.46,0.33,-4.94,moving,11
8.65,30161.170651811,31,1,1,0,0,30.36,2.64,-15.67,22.13,2.41,-10.35,38.1875,-257.25,50.625,0.478271484375,0.0076904296875,-0.87811279296875,-0.0091552734375,-5.0625,29.5,21.375,8.23,0.22,-5.31,moving,11
8.66,30161.215987342,31,1,1,0,0,31.94,3.19,-17.79,23.94,3.1,-12.12,21.375,-245.4375,80.625,0.45941162109375,0.002197265625,-0.88818359375,-0.00433349609375,-5.0625,29.5,21.375,8.0,0.09,-5.66,moving,11
8.67,30161.215987342,31,1,1,0,0,28.97,1.37,-16.19,21.08,1.36,-10.37,12.3125,-110.375,54.5,0.45086669921875,-0.0015869140625,-0.892578125,-0.001220703125,-5.0625,29.5,21.375,7.89,0.0,-5.81,moving,11
8.68,30161.222480465,31,1,1,0,0,17.01,0.69,-8.99,8.99,0.65,-3.34,21.1875,120.8125,-45.0625,0.46026611328125,0.00274658203125,-0.88775634765625,-0.0013427734375,-5.0625,29.5,21.375,8.01,0.04,-5.65,moving,11
8.69,30161.222480465,31,1,1,0,0,13.1,1.58,-8.58,4.77,1.39,-3.41,45.5625,340.5,-127.0,0.48638916015625,0.01446533203125,-0.8736572265625,-0.0028076171875,-5.0625,29.5,21.375,8.33,0.18,-5.16,moving,11
8.7,30161.228168942,31,1,1,0,0,10.18,1.91,-8.52,1.48,1.54,-4.02,47.25,450.8125,-152.4375,0.5201416015625,0.0281982421875,-0.85357666015625,-0.005126953125,1.875,30.1875,23.0,8.7,0.37,-4.49,moving,11
8.71,30161.228168942,31,1,1,0,0,6.9,1.67,-7.12,-2.11,1.12,-3.31,17.0,449.0625,-122.25,0.55303955078125,0.0382080078125,-0.83221435546875,-0.00823974609375,1.875,30.1875,23.0,9.02,0.54,-3.8,moving,11
8.72,30161.258553016,31,1,1,0,0,6.16,1.12,-5.73,-3.07,0.43,-2.52,-58.375,366.8125,-65.25,0.57952880859375,0.0404052734375,-0.8138427734375,-0.014404296875,1.875,30.1875,23.0,9.23,0.68,-3.21,moving,11
8.72,30161.258553016,31,1,1,0,0,5.97,0.03,-4.76,-3.39,-0.76,-1.98,-154.4375,254.875,-16.8125,0.59796142578125,0.0340576171875,-0.8004150390625,-0.02532958984375,1.875,30.1875,23.0,9.36,0.79,-2.78,moving,11
8.74,30161.275447872,31,1,1,0,0,5.69,-1.11,-3.89,-3.75,-1.96,-1.4,-214.3125,161.5625,23.75,0.6097412109375,0.0216064453125,-0.7913818359375,-0.03857421875,1.875,30.1875,23.0,9.44,0.85,-2.48,moving,11
8.75,30161.275447872,31,1,1,0,0,4.62,-2.89,-2.59,-4.86,-3.75,-0.27,-218.5625,81.0,52.3125,0.61578369140625,0.00665283203125,-0.7862548828125,-0.05072021484375,-7.5625,29.0625,19.0625,9.48,0.86,-2.31,moving,11
8.76,30161.28873726,31,1,1,0,0,3.82,-2.52,-2.07,-5.67,-3.37,0.2,-176.375,7.1875,53.5,0.61651611328125,-0.0064697265625,-0.7850341796875,-0.0599365234375,-7.5625,29.0625,19.0625,9.5,0.84,-2.28,moving,11
8.77,30161.28873726,31,1,1,0,0,3.22,-1.54,-1.67,-6.26,-2.38,0.66,-94.9375,-43.5,26.6875,0.61358642578125,-0.013671875,-0.78680419921875,-0.06494140625,-7.5625,29.0625,19.0625,9.48,0.83,-2.33,moving,11
8.78,30161.302827308,31,1,1,0,0,2.79,-0.56,-1.17,-6.67,-1.43,1.24,11.5625,-48.625,-17.0625,0.61016845703125,-0.01214599609375,-0.78948974609375,-0.06500244140625,-7.5625,29.0625,19.0625,9.46,0.86,-2.42,moving,11
8.79,30161.302827308,31,1,1,0,0,1.73,1.43,-0.72,-7.72,0.52,1.71,99.625,-2.5,-53.5625,0.6097412109375,-0.003173828125,-0.79022216796875,-0.06097412109375,-7.5625,29.0625,19.0625,9.45,0.9,-2.44,moving,11
8.8,30161.33438936,31,1,1,0,0,1.73,1.43,-0.72,-7.72,0.52,1.71,99.625,-2.5,-53.5625,0.6097412109375,-0.003173828125,-0.79022216796875,-0.06097412109375,-7.5625,29.0625,19.0625,9.45,0.9,-2.44,moving,11
8.8,30161.33438936,31,1,1,0,0,0.8,2.2,-0.67,-8.66,1.24,1.66,134.375,74.3125,-64.75,0.614501953125,0.00885009765625,-0.78692626953125,-0.05517578125,-10.1875,26.875,21.875,9.47,0.95,-2.34,moving,11
8.81,30161.340478024,31,1,1,0,0,-0.22,2.48,-0.66,-9.75,1.48,1.45,112.9375,146.875,-52.0625,0.6241455078125,0.0191650390625,-0.77947998046875,-0.050048828125,-10.1875,26.875,21.875,9.52,1.0,-2.11,moving,11
8.82,30161.340478024,31,1,1,0,0,-1.63,1.54,-0.56,-11.22,0.51,1.23,56.25,194.8125,-27.375,0.6370849609375,0.02496337890625,-0.7689208984375,-0.04742431640625,-10.1875,26.875,21.875,9.58,1.02,-1.8,moving,11
8.83,30161.365011919,31,1,1,0,0,-1.84,0.73,-0.72,-11.49,-0.3,0.73,-8.9375,205.0,-4.75,0.65069580078125,0.02557373046875,-0.75738525390625,-0.04779052734375,-10.1875,26.875,21.875,9.64,1.03,-1.45,moving,11
8.84,30161.365011919,31,1,1,0,0,-1.7,-0.14,-0.93,-11.39,-1.18,0.21,-62.25,173.625,9.5,0.6622314453125,0.02215576171875,-0.7471923828125,-0.05096435546875,-10.1875,26.875,21.875,9.68,1.03,-1.15,moving,11
8.85,30161.380565345,31,1,1,0,0,-1.36,-0.97,-1.13,-11.07,-1.99,-0.17,-93.125,103.9375,17.625,0.66925048828125,0.01611328125,-0.74078369140625,-0.05584716796875,-12.375,27.6875,17.0625,9.7,1.02,-0.96,moving,11
8.86,30161.380565345,31,1,1,0,0,-0.93,-1.77,-1.12,-10.64,-2.77,-0.18,-100.0,3.5,23.875,0.669677734375,0.00872802734375,-0.7401123046875,-0.0609130859375,-12.375,27.6875,17.0625,9.71,0.99,-0.93,moving,11
8.87,30161.393399614,31,1,1,0,0,-0.9,-1.57,-0.92,-10.6,-2.53,0.17,-86.1875,-105.25,30.25,0.66302490234375,0.00115966796875,-0.74578857421875,-0.06475830078125,-12.375,27.6875,17.0625,9.69,0.96,-1.1,moving,11
8.88,30161.393399614,31,1,1,0,0,-0.67,-1.25,-0.77,-10.33,-2.17,0.64,-59.875,-192.4375,34.0,0.650634765625,-0.005615234375,-0.7564697265625,-0.06671142578125,-12.375,27.6875,17.0625,9.66,0.91,-1.41,moving,11
8.89,30161.424630327,31,1,1,0,0,-0.36,-1.03,-0.52,-9.96,-1.9,1.29,-31.625,-240.75,32.25,0.634765625,-0.01092529296875,-0.769775390625,-0.06683349609375,-12.375,27.6875,17.0625,9.59,0.87,-1.81,moving,11
8.9,30161.424630327,31,1,1,0,0,0.01,-0.3,-0.25,-9.49,-1.13,1.96,-11.5,-246.625,27.25,0.6181640625,-0.01483154296875,-0.78314208984375,-0.0657958984375,-14.1875,26.6875,19.25,9.51,0.83,-2.22,moving,11
8.91,30161.438629961,31,1,1,0,0,0.17,0.11,-0.35,-9.25,-0.68,2.21,-2.4375,-212.6875,21.375,0.6036376953125,-0.01763916015625,-0.79443359375,-0.06451416015625,-14.1875,26.6875,19.25,9.42,0.79,-2.57,moving,11
8.92,30161.438629961,31,1,1,0,0,0.14,0.48,-0.52,-9.21,-0.28,2.31,-1.125,-156.5625,16.8125,0.59283447265625,-0.019775390625,-0.8026123046875,-0.0634765625,-14.1875,26.6875,19.25,9.35,0.76,-2.83,moving,11
8.93,30161.453067664,31,1,1,0,0,0.88,0.85,-1.31,-8.42,0.1,1.68,-4.3125,-101.4375,13.3125,0.58575439453125,-0.021484375,-0.8077392578125,-0.06292724609375,-14.1875,26.6875,19.25,9.3,0.74,-2.99,moving,11
8.94,30161.453067664,31,1,1,0,0,1.47,0.89,-1.79,-7.8,0.15,1.3,-6.6875,-59.8125,10.6875,0.58154296875,-0.02288818359375,-0.810791015625,-0.062744140625,-14.1875,26.6875,19.25,9.27,0.73,-3.09,moving,11
8.95,30161.484473141,31,1,1,0,0,2.32,0.73,-2.34,-6.92,0.02,0.83,-6.5,-50.4375,14.875,0.57806396484375,-0.02459716796875,-0.813232421875,-0.06231689453125,-9.0,26.6875,21.5625,9.25,0.71,-3.17,moving,11
8.96,30161.484473141,31,1,1,0,0,3.55,0.49,-3.06,-5.64,-0.19,0.23,-5.9375,-78.875,18.875,0.572509765625,-0.02667236328125,-0.817138671875,-0.0616455078125,-9.0,26.6875,21.5625,9.2,0.68,-3.3,moving,11
8.97,30161.499021359,31,1,1,0,0,5.95,0.1,-4.66,-3.17,-0.54,-1.13,0.4375,-141.0,25.125,0.5625,-0.0291748046875,-0.8240966796875,-0.05999755859375,-9.0,26.6875,21.5625,9.12,0.64,-3.52,moving,11
8.97,30161.499021359,31,1,1,0,0,7.33,-0.09,-5.57,-1.64,-0.68,-1.68,14.9375,-227.1875,31.0,0.5462646484375,-0.0318603515625,-0.8350830078125,-0.05682373046875,-9.0,26.6875,21.5625,8.98,0.58,-3.89,moving,11
8.99,30161.528244585,31,1,1,0,0,10.42,-0.79,-7.58,1.66,-1.3,-3.2,35.625,-309.5,32.375,0.52374267578125,-0.0340576171875,-0.849609375,-0.05181884765625,-9.0,26.6875,21.5625,8.76,0.51,-4.37,moving,11
9.0,30161.528244585,31,1,1,0,0,18.62,-2.53,-11.71,10.14,-2.96,-6.8,50.25,-354.1875,27.4375,0.49749755859375,-0.035400390625,-0.86553955078125,-0.04571533203125,-6.0625,26.1875,22.5,8.47,0.43,-4.91,moving,11
9.01,30161.543756751,31,1,1,0,0,39.22,-2.53,-35.23,31.06,-2.88,-29.79,35.375,-360.125,35.3125,0.4703369140625,-0.0379638671875,-0.8807373046875,-0.0404052734375,-6.0625,26.1875,22.5,8.15,0.34,-5.43,moving,11
9.02,30161.543756751,31,1,1,0,0,39.2,1.13,-34.63,31.37,0.91,-28.73,59.875,-336.8125,45.9375,0.444580078125,-0.04022216796875,-0.89422607421875,-0.03277587890625,-6.0625,26.1875,22.5,7.82,0.22,-5.9,moving,11
9.03,30161.568269162,31,1,1,0,0,38.29,3.69,-19.35,30.59,3.66,-13.28,166.6875,-121.4375,16.375,0.43560791015625,-0.03533935546875,-0.89923095703125,-0.0186767578125,-6.0625,26.1875,22.5,7.69,0.02,-6.07,moving,11
9.04,30161.568269162,31,1,1,0,0,17.09,3.19,-7.09,9.15,3.17,-1.34,143.4375,238.5625,-107.625,0.45440673828125,-0.02105712890625,-0.89044189453125,-0.01226806640625,-6.0625,26.1875,22.5,7.94,0.02,-5.75,moving,11
9.05,30161.574637895,31,1,1,0,0,13.68,1.65,-7.8,5.34,1.49,-2.63,107.25,412.875,-168.1875,0.486083984375,-0.0032958984375,-0.87384033203125,-0.01129150390625,2.0,27.25,25.5625,8.33,0.16,-5.16,moving,11
9.05,30161.574637895,31,1,1,0,0,13.68,1.65,-7.8,5.34,1.49,-2.63,107.25,412.875,-168.1875,0.486083984375,-0.0032958984375,-0.87384033203125,-0.01129150390625,2.0,27.25,25.5625,8.33,0.16,-5.16,moving,11
9.06,30161.588324256,31,1,1,0,0,12.95,-0.73,-9.47,4.3,-1.09,-4.88,52.1875,390.3125,-162.6875,0.51531982421875,0.01165771484375,-0.8568115234375,-0.01434326171875,2.0,27.25,25.5625,8.65,0.35,-4.59,moving,11
9.07,30161.588324256,31,1,1,0,0,14.58,-1.57,-10.23,5.77,-2.05,-5.93,-17.5,194.5,-70.9375,0.5296630859375,0.01641845703125,-0.84783935546875,-0.01861572265625,2.0,27.25,25.5625,8.8,0.48,-4.29,moving,11
9.08,30161.603867306,31,1,1,0,0,20.55,-2.38,-13.44,11.83,-2.81,-8.97,-93.0625,-113.25,77.875,0.521484375,0.00616455078125,-0.85296630859375,-0.02203369140625,2.0,27.25,25.5625,8.72,0.43,-4.46,moving,11
9.09,30161.603867306,31,1,1,0,0,20.15,-0.8,-8.48,11.79,-1.13,-3.37,-170.3125,-443.9375,165.5,0.4884033203125,-0.01470947265625,-0.8720703125,-0.02740478515625,2.0,27.25,25.5625,8.36,0.32,-5.11,moving,11
9.1,30161.634963009,31,1,1,0,0,21.42,2.56,-1.12,13.53,2.31,4.7,-148.75,-508.6875,158.8125,0.4493408203125,-0.03436279296875,-0.89215087890625,-0.03125,-5.875,29.6875,21.0625,7.88,0.24,-5.82,moving,11
9.11,30161.634963009,31,1,1,0,0,20.83,2.02,-0.75,13.04,1.8,5.2,-14.375,-97.125,35.125,0.4417724609375,-0.03790283203125,-0.89581298828125,-0.03070068359375,-5.875,29.6875,21.0625,7.78,0.21,-5.96,moving,11
9.12,30161.648560991,31,1,1,0,0,8.9,1.67,-5.48,0.79,1.39,0.01,57.4375,329.0,-89.8125,0.46722412109375,-0.02777099609375,-0.8831787109375,-0.03070068359375,-5.875,29.6875,21.0625,8.11,0.27,-5.5,moving,11
9.13,30161.648560991,31,1,1,0,0,4.71,1.92,-3.77,-3.77,1.52,1.13,61.625,417.25,-116.9375,0.49884033203125,-0.01513671875,-0.865966796875,-0.03173828125,-5.875,29.6875,21.0625,8.48,0.39,-4.9,moving,11
9.14,30161.679425493,31,1,1,0,0,2.0,1.43,-2.87,-6.82,0.92,1.37,74.625,437.5625,-121.0,0.53125,-0.00152587890625,-0.84661865234375,-0.03192138671875,-5.875,29.6875,21.0625,8.82,0.51,-4.25,moving,11
9.15,30161.679425493,31,1,1,0,0,0.78,0.1,-4.14,-8.35,-0.54,-0.65,56.875,491.0,-109.8125,0.566650390625,0.01055908203125,-0.8232421875,-0.0328369140625,-0.375,28.5625,23.375,9.14,0.64,-3.48,moving,11
9.16,30161.694441525,31,1,1,0,0,1.09,-0.39,-4.8,-8.3,-1.19,-2.13,-1.875,505.875,-91.5,0.60211181640625,0.01849365234375,-0.79736328125,-0.0369873046875,-0.375,28.5625,23.375,9.4,0.79,-2.66,moving,11
9.17,30161.694441525,31,1,1,0,0,0.26,-0.51,-4.06,-9.3,-1.42,-2.12,-72.5,440.125,-53.125,0.63214111328125,0.019775390625,-0.77337646484375,-0.0440673828125,-0.375,28.5625,23.375,9.57,0.91,-1.93,moving,11
9.18,30161.709132687,31,1,1,0,0,-0.84,0.2,-3.22,-10.51,-0.74,-1.89,-145.5625,342.9375,3.0,0.6551513671875,0.0128173828125,-0.75347900390625,-0.0531005859375,-0.375,28.5625,23.375,9.66,0.94,-1.33,moving,11
9.19,30161.709132687,31,1,1,0,0,-0.37,-0.24,-3.85,-10.1,-1.16,-3.02,-219.125,274.1875,45.0,0.67333984375,-0.00140380859375,-0.73651123046875,-0.0645751953125,-0.375,28.5625,23.375,9.72,0.91,-0.83,moving,11
9.2,30161.739554399,31,1,1,0,0,-1.23,-0.6,-3.62,-10.98,-1.44,-3.13,-251.0625,180.875,61.4375,0.68499755859375,-0.01904296875,-0.7242431640625,-0.07708740234375,-11.25,28.375,18.5,9.75,0.83,-0.48,moving,11
9.21,30161.739554399,31,1,1,0,0,-1.9,-0.99,-3.15,-11.67,-1.76,-2.75,-201.3125,35.375,49.0625,0.68707275390625,-0.033935546875,-0.7205810546875,-0.0869140625,-11.25,28.375,18.5,9.76,0.77,-0.39,moving,11
9.22,30161.75419946,31,1,1,0,0,-1.11,-1.9,-1.68,-10.87,-2.65,-1.12,-84.375,-100.0,16.75,0.68060302734375,-0.04083251953125,-0.725830078125,-0.09088134765625,-11.25,28.375,18.5,9.76,0.74,-0.55,moving,11
9.22,30161.75419946,31,1,1,0,0,-0.82,-1.58,-0.98,-10.56,-2.33,-0.09,49.9375,-193.125,-6.0,0.66839599609375,-0.03900146484375,-0.73760986328125,-0.08740234375,-11.25,28.375,18.5,9.73,0.75,-0.89,moving,11
9.24,30161.768763872,31,1,1,0,0,-0.52,-1.0,-0.53,-10.21,-1.75,0.79,151.4375,-242.375,-19.3125,0.6529541015625,-0.03076171875,-0.75274658203125,-0.077880859375,-11.25,28.375,18.5,9.68,0.75,-1.32,moving,11
9.25,30161.768763872,31,1,1,0,0,-0.24,-0.28,-0.22,-9.86,-1.04,1.54,193.4375,-250.5,-32.6875,0.63653564453125,-0.019287109375,-0.7681884765625,-0.06634521484375,-14.5625,26.5625,18.875,9.61,0.75,-1.77,moving,11
9.26,30161.799458004,31,1,1,0,0,0.0,0.76,0.13,-9.54,0.0,2.29,184.75,-219.5625,-38.25,0.62164306640625,-0.00775146484375,-0.78125,-0.05572509765625,-14.5625,26.5625,18.875,9.53,0.75,-2.16,moving,11
9.27,30161.799458004,31,1,1,0,0,-0.14,0.85,0.38,-9.61,0.1,2.83,146.1875,-157.6875,-29.9375,0.6107177734375,0.00146484375,-0.7904052734375,-0.0472412109375,-14.5625,26.5625,18.875,9.46,0.74,-2.44,moving,11
9.28,30161.820296383,31,1,1,0,0,-0.33,0.75,0.51,-9.76,0.02,3.11,96.4375,-83.9375,-14.1875,0.60479736328125,0.0072021484375,-0.79522705078125,-0.0413818359375,-14.5625,26.5625,18.875,9.42,0.73,-2.59,moving,11
9.29,30161.820296383,31,1,1,0,0,-0.49,0.53,0.54,-9.91,-0.17,3.18,49.375,-21.1875,0.25,0.603271484375,0.009765625,-0.79656982421875,-0.0379638671875,-14.5625,26.5625,18.875,9.41,0.7,-2.64,moving,11
9.3,30161.827945065,31,1,1,0,0,-0.49,0.15,0.23,-9.92,-0.52,2.85,11.25,14.9375,12.125,0.60430908203125,0.009521484375,-0.79583740234375,-0.0364990234375,-10.6875,27.6875,19.375,9.42,0.68,-2.61,moving,11
9.3,30161.827945065,31,1,1,0,0,-0.49,0.15,0.23,-9.92,-0.52,2.85,11.25,14.9375,12.125,0.60430908203125,0.009521484375,-0.79583740234375,-0.0364990234375,-10.6875,27.6875,19.375,9.42,0.68,-2.61,moving,11
9.31,30161.842862993,31,1,1,0,0,-0.48,0.01,0.03,-9.92,-0.63,2.61,-14.25,20.3125,21.5,0.60577392578125,0.00732421875,-0.79473876953125,-0.03631591796875,-10.6875,27.6875,19.375,9.43,0.65,-2.58,moving,11
9.31,30161.842862993,31,1,1,0,0,-0.46,-0.18,-0.13,-9.9,-0.8,2.45,-22.75,-5.125,26.375,0.60552978515625,0.0042724609375,-0.79498291015625,-0.0364990234375,-10.6875,27.6875,19.375,9.43,0.62,-2.58,moving,11
9.33,30161.859148475,31,1,1,0,0,0.33,0.0,-0.85,-9.08,-0.57,1.81,-14.5,-51.3125,26.3125,0.60205078125,0.00152587890625,-0.79766845703125,-0.0361328125,-10.6875,27.6875,19.375,9.41,0.58,-2.67,moving,11
9.34,30161.859148475,31,1,1,0,0,1.19,0.14,-1.29,-8.17,-0.39,1.54,4.5625,-105.1875,24.25,0.5947265625,-0.000244140625,-0.80316162109375,-0.0345458984375,-10.6875,27.6875,19.375,9.36,0.54,-2.84,moving,11
9.35,30161.888789873,31,1,1,0,0,2.3,0.23,-1.81,-6.98,-0.26,1.29,22.6875,-155.875,19.5,0.58380126953125,-0.00091552734375,-0.811279296875,-0.03192138671875,-10.25,28.6875,21.0,9.28,0.49,-3.1,moving,11
9.36,30161.888789873,31,1,1,0,0,3.65,0.25,-2.45,-5.52,-0.2,0.97,32.625,-196.9375,13.9375,0.56976318359375,-0.00079345703125,-0.8212890625,-0.02886962890625,-10.25,28.6875,21.0,9.17,0.45,-3.42,moving,11
9.37,30161.90320064,31,1,1,0,0,6.92,-0.44,-3.86,-2.11,-0.85,-0.07,38.625,-228.0,13.3125,0.5533447265625,-0.00042724609375,-0.83258056640625,-0.025390625,-10.25,28.6875,21.0,9.03,0.41,-3.78,moving,11
9.38,30161.90320064,31,1,1,0,0,9.49,-1.16,-5.51,0.63,-1.51,-1.33,41.75,-252.25,19.1875,0.534912109375,-0.0003662109375,-0.8446044921875,-0.02142333984375,-10.25,28.6875,21.0,8.86,0.35,-4.18,moving,11
9.39,30161.918369666,31,1,1,0,0,14.68,-1.91,-9.55,6.02,-2.18,-4.96,35.5625,-266.25,29.6875,0.51519775390625,-0.00140380859375,-0.85687255859375,-0.01739501953125,-10.25,28.6875,21.0,8.65,0.27,-4.59,moving,11
9.39,30161.918369666,31,1,1,0,0,24.16,-2.51,-16.85,15.74,-2.7,-11.82,24.875,-289.25,43.9375,0.49346923828125,-0.00396728515625,-0.86962890625,-0.01348876953125,-7.1875,28.6875,20.5625,8.41,0.19,-5.02,moving,11
9.41,30161.949286984,31,1,1,0,0,39.22,-0.46,-24.11,31.12,-0.51,-18.58,22.0625,-350.875,85.625,0.4666748046875,-0.00994873046875,-0.88433837890625,-0.00799560546875,-7.1875,28.6875,20.5625,8.09,0.04,-5.53,moving,11
9.42,30161.949286984,31,1,1,0,0,33.16,1.83,-18.72,25.39,1.98,-12.74,20.0,-323.6875,124.8125,0.44158935546875,-0.01898193359375,-0.89703369140625,-0.0010986328125,-7.1875,28.6875,20.5625,7.76,-0.14,-5.98,moving,11
9.43,30161.963844967,31,1,1,0,0,24.42,0.31,-9.83,16.71,0.56,-3.78,33.75,-49.4375,55.0,0.437744140625,-0.02197265625,-0.8988037109375,0.0037841796875,-7.1875,28.6875,20.5625,7.71,-0.25,-6.04,moving,11
9.44,30161.963844967,31,1,1,0,0,16.26,2.45,-1.31,8.29,2.68,4.38,91.4375,250.6875,-85.9375,0.45745849609375,-0.0118408203125,-0.88909912109375,0.0072021484375,-7.1875,28.6875,20.5625,7.97,-0.23,-5.7,moving,11
9.45,30161.990266313,31,1,1,0,0,14.81,1.18,-5.54,6.45,1.3,-0.41,112.125,396.9375,-152.9375,0.48809814453125,0.00421142578125,-0.87274169921875,0.00933837890625,0.375,29.0625,23.6875,8.35,-0.11,-5.13,moving,11
9.46,30161.990266313,31,1,1,0,0,16.72,-1.34,-10.73,8.04,-1.36,-6.16,60.375,379.1875,-134.125,0.5167236328125,0.01666259765625,-0.85595703125,0.00836181640625,0.375,29.0625,23.6875,8.67,0.02,-4.56,moving,11
9.47,30162.008538408,31,1,1,0,0,21.27,-3.71,-14.04,12.49,-3.77,-9.67,-5.25,128.25,-21.8125,0.52630615234375,0.01800537109375,-0.85009765625,0.0072021484375,0.375,29.0625,23.6875,8.77,0.06,-4.37,moving,11
9.47,30162.008538408,31,1,1,0,0,26.25,-6.33,-15.63,17.67,-6.31,-10.88,-99.6875,-250.8125,110.0625,0.507568359375,0.00537109375,-0.861572265625,0.00445556640625,0.375,29.0625,23.6875,8.57,-0.02,-4.75,moving,11
9.49,30162.023417599,31,1,1,0,0,27.55,-4.52,-10.96,19.44,-4.36,-5.45,-109.875,-516.0,159.25,0.46826171875,-0.01123046875,-0.88348388671875,0.0030517578125,0.375,29.0625,23.6875,8.11,-0.15,-5.5,moving,11
9.5,30162.023417599,31,1,1,0,0,29.31,-1.0,-8.35,21.5,-0.73,-2.43,2.9375,-295.0625,76.625,0.44537353515625,-0.0169677734375,-0.89520263671875,0.0067138671875,-5.75,30.6875,20.0,7.81,-0.26,-5.91,moving,11
9.51,30162.037707476,31,1,1,0,0,22.52,2.08,-7.43,14.47,2.34,-1.84,85.625,234.375,-69.4375,0.46368408203125,-0.00836181640625,-0.8858642578125,0.0103759765625,-5.75,30.6875,20.0,8.05,-0.25,-5.58,moving,11
9.52,30162.037707476,31,1,1,0,0,11.21,1.53,-8.08,2.69,1.72,-3.24,71.4375,512.875,-89.625,0.5029296875,0.0009765625,-0.8642578125,0.01190185546875,-5.75,30.6875,20.0,8.52,-0.19,-4.84,moving,11
9.53,30162.068429399,31,1,1,0,0,7.0,0.66,-6.49,-1.89,0.77,-2.36,54.125,471.25,-80.9375,0.5380859375,0.00897216796875,-0.8427734375,0.012451171875,-5.75,30.6875,20.0,8.89,-0.11,-4.12,moving,11
9.54,30162.068429399,31,1,1,0,0,4.69,0.58,-5.52,-4.44,0.6,-1.95,59.3125,353.4375,-84.5,0.5638427734375,0.017578125,-0.82562255859375,0.01312255859375,-5.75,30.6875,20.0,9.13,-0.01,-3.56,moving,11
9.55,30162.083320228,31,1,1,0,0,3.98,0.34,-4.86,-5.31,0.28,-1.78,54.875,298.6875,-74.5625,0.58514404296875,0.0252685546875,-0.8104248046875,0.013916015625,-2.5,31.0,21.875,9.3,0.06,-3.08,moving,11
9.56,30162.083320228,31,1,1,0,0,3.15,0.01,-4.17,-6.28,-0.14,-1.49,32.4375,248.1875,-62.25,0.6025390625,0.031005859375,-0.79736328125,0.0135498046875,-2.5,31.0,21.875,9.43,0.15,-2.68,moving,11
9.56,30162.099307126,31,1,1,0,0,3.15,0.01,-4.17,-6.28,-0.14,-1.49,32.4375,248.1875,-62.25,0.6025390625,0.031005859375,-0.79736328125,0.0135498046875,-2.5,31.0,21.875,9.43,0.15,-2.68,moving,11
9.57,30162.099307126,31,1,1,0,0,2.22,0.02,-3.66,-7.29,-0.19,-1.31,-6.125,199.5,-35.375,0.6163330078125,0.03289794921875,-0.78668212890625,0.0118408203125,-2.5,31.0,21.875,9.51,0.21,-2.35,moving,11
9.58,30162.113222734,31,1,1,0,0,1.93,0.16,-3.89,-7.65,-0.06,-1.84,-61.5625,181.125,4.25,0.62884521484375,0.02911376953125,-0.77691650390625,0.00836181640625,-2.5,31.0,21.875,9.58,0.23,-2.04,moving,11
9.59,30162.113222734,31,1,1,0,0,1.47,-0.28,-3.69,-8.16,-0.49,-1.9,-108.5625,152.75,35.5625,0.639404296875,0.0206298828125,-0.76861572265625,0.00335693359375,-2.5,31.0,21.875,9.63,0.2,-1.78,moving,11
9.6,30162.127832761,31,1,1,0,0,1.13,-0.4,-3.3,-8.53,-0.58,-1.65,-110.5625,79.6875,38.4375,0.64483642578125,0.0118408203125,-0.76422119140625,-0.00177001953125,-11.25,30.1875,17.875,9.66,0.17,-1.65,moving,11
9.61,30162.127832761,31,1,1,0,0,0.97,-0.83,-2.56,-8.68,-1.0,-0.9,-53.5,-5.6875,16.625,0.64453125,0.0076904296875,-0.7645263671875,-0.00439453125,-11.25,30.1875,17.875,9.66,0.16,-1.65,moving,11
9.62,30162.158889686,31,1,1,0,0,0.9,-1.41,-1.85,-8.73,-1.57,-0.08,41.6875,-65.5625,-9.75,0.64007568359375,0.01068115234375,-0.76824951171875,-0.002197265625,-11.25,30.1875,17.875,9.64,0.16,-1.77,moving,11
9.63,30162.158889686,31,1,1,0,0,1.65,-1.71,-0.16,-7.95,-1.89,1.76,123.625,-90.6875,-28.625,0.6337890625,0.01947021484375,-0.77325439453125,0.00439453125,-11.25,30.1875,17.875,9.61,0.17,-1.92,moving,11
9.64,30162.174090573,31,1,1,0,0,2.13,-1.17,0.57,-7.44,-1.35,2.66,151.6875,-92.0,-38.25,0.62725830078125,0.03045654296875,-0.77813720703125,0.01239013671875,-11.25,30.1875,17.875,9.58,0.18,-2.08,moving,11
9.65,30162.174090573,31,1,1,0,0,1.59,0.19,0.74,-7.96,0.0,2.94,117.5,-64.375,-30.0625,0.62255859375,0.03900146484375,-0.7813720703125,0.0185546875,-11.6875,29.75,16.75,9.55,0.19,-2.19,moving,11
9.66,30162.188582557,31,1,1,0,0,-0.01,1.76,0.57,-9.56,1.57,2.81,56.9375,-19.9375,-16.0,0.62103271484375,0.043212890625,-0.7823486328125,0.021484375,-11.6875,29.75,16.75,9.54,0.19,-2.23,moving,11
9.67,30162.188582557,31,1,1,0,0,-0.76,1.74,0.51,-10.32,1.53,2.7,6.25,25.875,-8.9375,0.62274169921875,0.04412841796875,-0.7808837890625,0.02154541015625,-11.6875,29.75,16.75,9.55,0.2,-2.19,moving,11
9.68,30162.203108395,31,1,1,0,0,-1.32,1.41,0.33,-10.9,1.19,2.41,-25.875,66.8125,-4.25,0.62738037109375,0.0428466796875,-0.77728271484375,0.01983642578125,-11.6875,29.75,16.75,9.58,0.22,-2.07,moving,11
9.69,30162.203108395,31,1,1,0,0,-1.56,1.07,0.11,-11.17,0.83,2.02,-49.8125,94.25,1.0,0.6339111328125,0.03985595703125,-0.77215576171875,0.016845703125,-11.6875,29.75,16.75,9.61,0.24,-1.91,moving,11
9.7,30162.234233477,31,1,1,0,0,-1.52,0.15,-0.02,-11.17,-0.09,1.72,-74.8125,101.5,7.4375,0.6409912109375,0.03509521484375,-0.76666259765625,0.0125732421875,-11.5,31.75,16.375,9.64,0.25,-1.74,moving,11
9.71,30162.234233477,31,1,1,0,0,-1.23,-0.34,-0.11,-10.9,-0.6,1.47,-103.625,91.8125,12.9375,0.6473388671875,0.0283203125,-0.76165771484375,0.00665283203125,-11.5,31.75,16.375,9.67,0.25,-1.58,moving,11
9.72,30162.248768267,31,1,1,0,0,-1.05,-1.02,-0.19,-10.75,-1.29,1.27,-128.75,66.125,15.5625,0.6519775390625,0.01995849609375,-0.75799560546875,-0.0008544921875,-11.5,31.75,16.375,9.69,0.26,-1.46,moving,11
9.72,30162.248768267,31,1,1,0,0,-1.26,-1.31,-0.05,-10.96,-1.58,1.36,-134.125,23.5625,14.75,0.65374755859375,0.0113525390625,-0.756591796875,-0.0087890625,-11.5,31.75,16.375,9.69,0.27,-1.42,moving,11
9.74,30162.263685503,31,1,1,0,0,-1.58,-0.6,-0.03,-11.27,-0.89,1.43,-108.4375,-27.25,9.625,0.6519775390625,0.0045166015625,-0.758056640625,-0.01544189453125,-11.5,31.75,16.375,9.69,0.28,-1.46,moving,11
9.75,30162.263685503,31,1,1,0,0,-1.26,-0.25,-0.17,-10.93,-0.55,1.4,-57.375,-73.875,1.75,0.6470947265625,0.00103759765625,-0.76214599609375,-0.0191650390625,-11.875,31.0,15.6875,9.67,0.29,-1.58,moving,11
9.76,30162.29425492,31,1,1,0,0,-0.67,0.0,-0.34,-10.3,-0.3,1.44,3.75,-119.4375,-6.625,0.63909912109375,0.00146484375,-0.76885986328125,-0.019287109375,-11.875,31.0,15.6875,9.63,0.3,-1.78,moving,11
9.77,30162.29425492,31,1,1,0,0,1.01,0.04,-0.48,-8.56,-0.26,1.57,53.625,-162.625,-15.25,0.62811279296875,0.00518798828125,-0.7779541015625,-0.01654052734375,-11.875,31.0,15.6875,9.58,0.31,-2.06,moving,11
9.78,30162.309316647,31,1,1,0,0,2.24,-0.02,-0.67,-7.26,-0.35,1.72,75.125,-196.3125,-21.3125,0.61456298828125,0.010498046875,-0.7886962890625,-0.0126953125,-11.875,31.0,15.6875,9.5,0.32,-2.39,moving,11
9.79,30162.309316647,31,1,1,0,0,4.03,-0.22,-1.24,-5.36,-0.55,1.5,63.9375,-216.0625,-21.25,0.5994873046875,0.01513671875,-0.8001708984375,-0.0096435546875,-11.875,31.0,15.6875,9.4,0.32,-2.75,moving,11
9.8,30162.33916467,31,1,1,0,0,6.19,-0.44,-2.43,-3.08,-0.76,0.7,32.3125,-231.875,-8.0625,0.5831298828125,0.01715087890625,-0.8121337890625,-0.008056640625,-11.6875,29.6875,18.75,9.28,0.32,-3.13,moving,11
9.81,30162.33916467,31,1,1,0,0,12.53,-1.03,-7.53,3.4,-1.32,-3.98,2.5,-261.5625,22.9375,0.564453125,0.0155029296875,-0.82525634765625,-0.00714111328125,-11.6875,29.6875,18.75,9.13,0.28,-3.55,moving,11
9.81,30162.34507979,31,1,1,0,0,21.31,-1.52,-15.11,12.38,-1.73,-11.07,-12.9375,-309.8125,55.4375,0.5419921875,0.01068115234375,-0.84027099609375,-0.0057373046875,-11.6875,29.6875,18.75,8.93,0.2,-4.04,moving,11
9.82,30162.34507979,31,1,1,0,0,21.31,-1.52,-15.11,12.38,-1.73,-11.07,-12.9375,-309.8125,55.4375,0.5419921875,0.01068115234375,-0.84027099609375,-0.0057373046875,-11.6875,29.6875,18.75,8.93,0.2,-4.04,moving,11
9.83,30162.368110715,31,1,1,0,0,31.1,-1.73,-20.27,22.47,-1.81,-15.62,-0.5,-399.125,82.625,0.512451171875,0.00439453125,-0.85870361328125,-0.002197265625,-11.6875,29.6875,18.75,8.63,0.08,-4.65,moving,11
9.84,30162.368110715,31,1,1,0,0,37.48,-1.78,-21.81,29.28,-1.67,-16.43,32.125,-494.8125,109.125,0.47491455078125,-0.00244140625,-0.8800048828125,0.00494384765625,-11.6875,29.6875,18.75,8.19,-0.1,-5.38,moving,11
9.85,30162.383910072,31,1,1,0,0,36.2,-2.38,-16.13,28.34,-2.11,-10.27,66.25,-336.75,67.875,0.44879150390625,-0.0047607421875,-0.89349365234375,0.012939453125,-7.6875,29.25,21.1875,7.86,-0.26,-5.85,moving,11
9.86,30162.383910072,31,1,1,0,0,29.59,0.86,-6.0,21.68,1.18,-0.21,147.25,41.25,-67.6875,0.45208740234375,0.0062255859375,-0.89166259765625,0.021728515625,-7.6875,29.25,21.1875,7.9,-0.32,-5.78,moving,11
9.87,30162.413473548,31,1,1,0,0,24.14,3.13,-6.27,15.83,3.37,-1.06,147.0625,401.9375,-164.0,0.48321533203125,0.02398681640625,-0.874755859375,0.02691650390625,-7.6875,29.25,21.1875,8.3,-0.23,-5.21,moving,11
9.88,30162.413473548,31,1,1,0,0,21.61,-1.73,-14.36,12.92,-1.66,-9.84,63.5625,462.0625,-143.3125,0.5181884765625,0.0364990234375,-0.85406494140625,0.02667236328125,-7.6875,29.25,21.1875,8.69,-0.07,-4.52,moving,11
9.89,30162.419421872,31,1,1,0,0,23.89,-2.48,-16.98,15.07,-2.47,-12.71,-7.0,167.1875,-42.625,0.53076171875,0.0389404296875,-0.84625244140625,0.0247802734375,-7.6875,29.25,21.1875,8.82,0.0,-4.27,moving,11
9.89,30162.419421872,31,1,1,0,0,25.04,-0.93,-17.56,16.4,-0.85,-12.93,-85.5,-238.3125,91.6875,0.5130615234375,0.0286865234375,-0.85760498046875,0.02191162109375,-1.75,31.5,20.25,8.64,-0.07,-4.63,moving,11
9.9,30162.444218055,31,1,1,0,0,24.01,3.03,-12.3,15.78,3.2,-6.97,-148.5625,-470.4375,154.0625,0.47747802734375,0.01141357421875,-0.87841796875,0.0164794921875,-1.75,31.5,20.25,8.23,-0.17,-5.32,moving,11
9.92,30162.444218055,31,1,1,0,0,24.29,2.63,-7.18,16.25,2.83,-1.57,-129.4375,-194.3125,99.125,0.46246337890625,-0.00128173828125,-0.8865966796875,0.010498046875,-1.75,31.5,20.25,8.04,-0.19,-5.6,moving,11
9.93,30162.459056516,31,1,1,0,0,18.34,-0.4,-5.57,9.96,-0.29,-0.48,-33.125,364.0,-34.625,0.49041748046875,-0.00030517578125,-0.8714599609375,0.00653076171875,-1.75,31.5,20.25,8.38,-0.11,-5.08,moving,11
9.94,30162.459056516,31,1,1,0,0,11.9,-0.77,-3.16,3.06,-0.85,1.09,-10.3125,553.75,-124.8125,0.53192138671875,0.0084228515625,-0.84674072265625,0.00042724609375,-1.75,31.5,20.25,8.83,0.08,-4.25,moving,11
9.95,30162.488621945,31,1,1,0,0,6.34,-0.55,-0.91,-2.86,-0.83,2.44,-10.0625,564.0,-120.25,0.5728759765625,0.01678466796875,-0.8194580078125,-0.0054931640625,-1.0625,30.75,21.75,9.2,0.27,-3.36,moving,11
9.96,30162.488621945,31,1,1,0,0,1.95,-0.31,-3.47,-7.54,-0.73,-1.07,23.25,595.5625,-91.875,0.614501953125,0.0247802734375,-0.7884521484375,-0.007568359375,-1.0625,30.75,21.75,9.49,0.41,-2.39,moving,11
9.97,30162.503446408,31,1,1,0,0,1.4,-0.36,-4.52,-8.27,-0.89,-3.02,35.5625,542.1875,-74.6875,0.65093994140625,0.0321044921875,-0.7584228515625,-0.0079345703125,-1.0625,30.75,21.75,9.67,0.52,-1.49,moving,11
9.97,30162.503446408,31,1,1,0,0,0.82,-0.04,-4.67,-8.91,-0.7,-3.79,16.875,361.9375,-77.5,0.6744384765625,0.0384521484375,-0.73724365234375,-0.0101318359375,-1.0625,30.75,21.75,9.74,0.65,-0.88,moving,11
9.99,30162.51819592,31,1,1,0,0,1.13,0.53,-4.57,-8.63,-0.19,-3.99,-28.375,174.3125,-42.5,0.68560791015625,0.03961181640625,-0.72674560546875,-0.013916015625,-1.0625,30.75,21.75,9.76,0.73,-0.58,moving,11
10.0,30162.51819592,31,1,1,0,0,1.83,-0.45,-4.54,-7.93,-1.18,-4.04,-82.5625,42.4375,4.6875,0.6885986328125,0.034423828125,-0.72412109375,-0.0186767578125,-12.6875,29.5625,16.1875,9.76,0.73,-0.5,moving,11
10.01,30162.549243609,31,1,1,0,0,2.2,-1.95,-3.96,-7.55,-2.64,-3.35,-116.875,-70.4375,29.5,0.6844482421875,0.02545166015625,-0.72821044921875,-0.02447509765625,-12.6875,29.5625,16.1875,9.76,0.69,-0.6,moving,11
10.02,30162.549243609,31,1,1,0,0,1.92,-0.25,-3.72,-7.82,-0.91,-2.85,-80.875,-158.4375,25.8125,0.674560546875,0.01861572265625,-0.7374267578125,-0.0284423828125,-12.6875,29.5625,16.1875,9.74,0.65,-0.86,moving,11
10.03,30162.563679522,31,1,1,0,0,2.68,-1.97,-1.37,-7.03,-2.6,-0.17,-15.5,-197.125,14.625,0.66180419921875,0.0162353515625,-0.7489013671875,-0.02886962890625,-12.6875,29.5625,16.1875,9.71,0.63,-1.19,moving,11
10.04,30162.563679522,31,1,1,0,0,1.76,-1.86,0.3,-7.89,-2.52,1.84,63.5625,-201.3125,-20.3125,0.6484375,0.020751953125,-0.76055908203125,-0.02618408203125,-12.6875,29.5625,16.1875,9.66,0.65,-1.54,moving,11
10.05,30162.578903887,31,1,1,0,0,1.27,-1.08,1.04,-8.34,-1.75,2.83,133.0625,-138.5625,-34.1875,0.6387939453125,0.03021240234375,-0.7685546875,-0.01953125,-16.0,28.375,15.75,9.61,0.67,-1.79,moving,11
10.06,30162.578903887,31,1,1,0,0,0.75,-0.33,1.3,-8.84,-1.01,3.19,136.4375,-49.0625,-34.5625,0.635009765625,0.0400390625,-0.7713623046875,-0.01239013671875,-16.0,28.375,15.75,9.59,0.68,-1.89,moving,11
10.07,30162.608889646,31,1,1,0,0,-1.33,1.09,1.19,-10.93,0.38,3.06,100.5625,23.5625,-34.75,0.63616943359375,0.0479736328125,-0.77001953125,-0.0074462890625,-16.0,28.375,15.75,9.6,0.71,-1.86,moving,11
10.07,30162.608889646,31,1,1,0,0,-2.0,1.17,0.9,-11.62,0.44,2.63,58.5625,84.8125,-26.625,0.6416015625,0.05303955078125,-0.76519775390625,-0.004638671875,-16.0,28.375,15.75,9.62,0.73,-1.73,moving,11
10.08,30162.614793983,31,1,1,0,0,-2.0,1.17,0.9,-11.62,0.44,2.63,58.5625,84.8125,-26.625,0.6416015625,0.05303955078125,-0.76519775390625,-0.004638671875,-16.0,28.375,15.75,9.62,0.73,-1.73,moving,11
10.09,30162.614793983,31,1,1,0,0,-2.1,1.05,0.51,-11.76,0.29,2.03,14.5625,127.375,-18.125,0.64996337890625,0.05511474609375,-0.7579345703125,-0.00408935546875,-16.0,28.375,15.75,9.65,0.76,-1.52,moving,11
10.1,30162.638588946,31,1,1,0,0,-2.38,-0.54,0.09,-12.07,-1.34,1.38,-23.1875,134.6875,-16.1875,0.658935546875,0.05487060546875,-0.75018310546875,-0.005859375,-13.25,29.6875,16.25,9.68,0.79,-1.29,moving,11
10.11,30162.638588946,31,1,1,0,0,-1.86,-0.75,-0.22,-11.57,-1.57,0.89,-56.9375,101.875,-8.25,0.66583251953125,0.05218505859375,-0.7442626953125,-0.00958251953125,-13.25,29.6875,16.25,9.7,0.82,-1.11,moving,11
10.12,30162.654407183,31,1,1,0,0,-1.23,-0.87,-0.71,-10.94,-1.7,0.3,-82.4375,44.75,7.3125,0.6690673828125,0.0469970703125,-0.7415771484375,-0.0142822265625,-13.25,29.6875,16.25,9.71,0.82,-1.02,moving,11
10.13,30162.654407183,31,1,1,0,0,-1.18,-0.38,-0.54,-10.9,-1.2,0.52,-95.875,-32.125,12.625,0.6673583984375,0.04052734375,-0.74334716796875,-0.0198974609375,-13.25,29.6875,16.25,9.71,0.82,-1.06,moving,11
10.14,30162.66832153,31,1,1,0,0,-0.77,-0.32,-0.16,-10.47,-1.1,1.05,-83.5625,-100.8125,29.0,0.6611328125,0.0335693359375,-0.7491455078125,-0.02398681640625,-13.25,29.6875,16.25,9.69,0.78,-1.22,moving,11
10.15,30162.66832153,31,1,1,0,0,-0.61,-0.41,-0.09,-10.28,-1.15,1.35,-64.4375,-141.75,35.75,0.65203857421875,0.0272216796875,-0.75726318359375,-0.0264892578125,-15.375,29.25,15.875,9.66,0.74,-1.45,moving,11
10.16,30162.683703122,31,1,1,0,0,-0.4,-0.75,-0.37,-10.03,-1.43,1.34,-37.875,-160.8125,41.125,0.64154052734375,0.02197265625,-0.76629638671875,-0.02703857421875,-15.375,29.25,15.875,9.63,0.68,-1.72,moving,11
10.17,30162.683703122,31,1,1,0,0,-0.06,-0.8,-0.78,-9.64,-1.42,1.22,-19.8125,-175.125,43.375,0.6298828125,0.01751708984375,-0.77606201171875,-0.0262451171875,-15.375,29.25,15.875,9.57,0.61,-2.01,moving,11
10.18,30162.713883583,31,1,1,0,0,0.22,-0.79,-1.07,-9.27,-1.34,1.26,-9.6875,-199.0,42.25,0.61639404296875,0.013671875,-0.78692626953125,-0.02490234375,-15.375,29.25,15.875,9.5,0.54,-2.34,moving,11
10.19,30162.713883583,31,1,1,0,0,0.88,-0.81,-1.49,-8.52,-1.3,1.22,-3.6875,-225.3125,38.5,0.60089111328125,0.01031494140625,-0.7989501953125,-0.0233154296875,-15.375,29.25,15.875,9.41,0.48,-2.71,moving,11
10.2,30162.729165402,31,1,1,0,0,1.9,-0.76,-2.0,-7.38,-1.19,1.12,4.0,-250.0625,35.0625,0.5833740234375,0.007568359375,-0.8118896484375,-0.02142333984375,-12.875,28.0,19.0,9.28,0.42,-3.12,moving,11
10.21,30162.729165402,31,1,1,0,0,5.15,-0.75,-4.07,-3.97,-1.12,-0.5,18.3125,-275.1875,28.8125,0.56378173828125,0.00592041015625,-0.82568359375,-0.018798828125,-12.875,28.0,19.0,9.12,0.37,-3.56,moving,11
10.22,30162.75852844,31,1,1,0,0,6.54,-0.75,-5.08,-2.37,-1.06,-1.02,37.4375,-306.75,17.3125,0.54144287109375,0.0059814453125,-0.840576171875,-0.015380859375,-12.875,28.0,19.0,8.92,0.31,-4.05,moving,11
