timestamp,android_nano_timestamp,temperature,calib_mag,calib_accel,calib_gyro,calib_sys,acc_x,acc_y,acc_z,lacc_x,lacc_y,lacc_z,gyro_x,gyro_y,gyro_z,quat_w,quat_x,quat_y,quat_z,mag_x,mag_y,mag_z,gravity_x,gravity_y,gravity_z,label,person
5.37,1668131.201597832,24,3,3,3,0,-1927.0,12.9,-17.93,-10.7,9.11,-15.03,-6.6,-156.25,31.5,525.875,0.65106201171875,0.47296142578125,-0.29779052734375,0.0334,-44.0625,-0.75,-53.5,3.79,-2.89,moving,2
5.38,1668131.216789239,24,3,3,3,0,-2729.0,14.22,-18.77,-18.71,10.36,-16.03,-8.03,-78.3125,26.8125,532.8125,0.64788818359375,0.46917724609375,-0.2989501953125,0.0334,-44.0625,-0.75,-53.625,3.86,-2.74,moving,2
5.39,1668131.216789239,24,3,3,3,0,-2388.0,14.8,-5.56,-15.31,10.94,-2.75,0.69,37.4375,-3.5625,530.875,0.64892578125,0.47100830078125,-0.29718017578125,0.0334,-44.0625,-0.75,-53.5625,3.85,-2.8,moving,2
5.41,1668131.246121718,24,3,3,3,0,-1959.0,11.5,-1.02,-11.03,7.69,1.86,2.17,51.625,-28.3125,527.1875,0.649658203125,0.47454833984375,-0.29608154296875,0.0334,-44.0625,-0.75,-53.5,3.8,-2.88,moving,2
5.42,1668131.246121718,24,3,3,3,0,-1662.0,7.72,0.18,-8.06,3.96,3.13,0.35,41.4375,-29.0,524.5,0.649658203125,0.47802734375,-0.29510498046875,0.0302,-43.75,-6.875,-53.5,3.75,-2.95,moving,2
5.43,1668131.262553358,24,3,3,3,0,-1495.0,5.22,-2.3,-6.39,1.49,0.69,0.0,32.9375,-20.9375,522.5625,0.64959716796875,0.48065185546875,-0.294189453125,0.0302,-43.75,-6.875,-53.4375,3.72,-3.0,moving,2
5.43,1668131.262553358,24,3,3,3,0,-1196.0,5.27,-3.89,-3.38,1.58,-0.9,3.16,-15.375,-15.375,521.6875,0.64947509765625,0.4803466796875,-0.29656982421875,0.0302,-43.75,-6.875,-53.5625,3.69,-2.99,moving,2
5.44,1668131.291967909,24,3,3,3,0,-1098.0,5.11,-4.27,-2.38,1.45,-1.3,3.64,-25.125,-14.0,521.0625,0.64923095703125,0.47943115234375,-0.299560546875,0.0302,-43.75,-6.875,-53.6875,3.66,-2.96,moving,2
5.45,1668131.291967909,24,3,3,3,0,-1009.0,4.39,-4.71,-1.48,0.75,-1.74,1.29,-3.25,-13.375,520.375,0.64892578125,0.47979736328125,-0.3006591796875,0.0302,-43.75,-6.875,-53.75,3.63,-2.96,moving,2
5.46,1668131.307809747,24,3,3,3,0,-920.0,3.45,-4.56,-0.59,-0.16,-1.58,-0.45,14.875,-13.875,519.5,0.64862060546875,0.4813232421875,-0.30035400390625,0.0315,-43.0625,-4.25,-53.8125,3.61,-2.98,moving,2
5.48,1668131.307809747,24,3,3,3,0,-769.0,2.17,-3.24,0.9,-1.42,-0.21,-2.03,28.5625,-16.25,518.625,0.64813232421875,0.48382568359375,-0.29888916015625,0.0315,-43.0625,-4.25,-53.75,3.6,-3.02,moving,2
5.49,1668131.322535536,24,3,3,3,0,-712.0,1.74,-2.66,1.46,-1.83,0.39,-3.55,36.5,-18.0625,517.8125,0.6473388671875,0.487060546875,-0.29669189453125,0.0315,-43.0625,-4.25,-53.6875,3.58,-3.06,moving,2
5.5,1668131.322535536,24,3,3,3,0,-643.0,1.57,-2.16,2.15,-1.99,0.93,-4.6,34.0,-19.3125,517.5,0.6461181640625,0.4903564453125,-0.29437255859375,0.0315,-43.0625,-4.25,-53.6875,3.57,-3.09,moving,2
5.51,1668131.351495578,24,3,3,3,0,-555.0,1.52,-1.41,3.03,-2.03,1.7,-5.4,25.6875,-19.375,517.8125,0.64447021484375,0.49346923828125,-0.2923583984375,0.0315,-43.0625,-4.25,-53.625,3.56,-3.11,moving,2
5.51,1668131.351495578,24,3,3,3,0,-522.0,1.55,-1.17,3.36,-1.99,1.94,-6.07,17.6875,-18.5625,518.75,0.64239501953125,0.49627685546875,-0.29052734375,0.0318,-42.5625,-3.5,-53.6875,3.55,-3.11,moving,2
5.52,1668131.366318576,24,3,3,3,0,-472.0,1.7,-0.95,3.87,-1.84,2.15,-6.66,10.0625,-17.3125,520.1875,0.64007568359375,0.49871826171875,-0.2889404296875,0.0318,-42.5625,-3.5,-53.6875,3.55,-3.1,moving,2
5.53,1668131.366318576,24,3,3,3,0,-468.0,1.87,-1.04,3.92,-1.68,2.04,-7.27,7.1875,-16.0,522.0625,0.6375732421875,0.5010986328125,-0.28729248046875,0.0318,-42.5625,-3.5,-53.75,3.55,-3.08,moving,2
5.54,1668131.381337619,24,3,3,3,0,-416.0,1.84,-1.07,4.44,-1.71,1.99,-7.98,4.375,-16.75,524.3125,0.63470458984375,0.50347900390625,-0.28558349609375,0.0318,-42.5625,-3.5,-53.8125,3.55,-3.06,moving,2
5.56,1668131.381337619,24,3,3,3,0,-368.0,1.79,-1.16,4.93,-1.75,1.87,-8.3,5.0625,-19.0,526.5,0.63165283203125,0.50604248046875,-0.28387451171875,0.0318,-42.5625,-3.5,-53.8125,3.55,-3.04,moving,2
5.57,1668131.414005018,24,3,3,3,0,-317.0,1.58,-1.1,5.45,-1.96,1.91,-8.07,6.9375,-22.625,528.4375,0.6285400390625,0.5087890625,-0.28228759765625,0.0314,-41.75,-2.75,-53.9375,3.54,-3.02,moving,2
5.58,1668131.414005018,24,3,3,3,0,-256.0,1.4,-1.08,6.08,-2.12,1.91,-7.69,11.625,-27.625,529.9375,0.62542724609375,0.51202392578125,-0.28076171875,0.0314,-41.75,-2.75,-54.0,3.52,-3.0,moving,2
5.58,1668131.419888197,24,3,3,3,0,-256.0,1.4,-1.08,6.08,-2.12,1.91,-7.69,11.625,-27.625,529.9375,0.62542724609375,0.51202392578125,-0.28076171875,0.0314,-41.75,-2.75,-54.0,3.52,-3.0,moving,2
5.59,1668131.419888197,24,3,3,3,0,-133.0,1.01,-0.82,7.32,-2.48,2.18,-7.31,16.375,-33.9375,530.875,0.62225341796875,0.5157470703125,-0.27935791015625,0.0314,-41.75,-2.75,-54.0625,3.5,-3.0,moving,2
5.6,1668131.442544203,24,3,3,3,0,-74.0,0.82,-0.61,7.92,-2.63,2.39,-6.84,18.6875,-40.625,531.375,0.61895751953125,0.51983642578125,-0.27825927734375,0.0314,-41.75,-2.75,-54.125,3.46,-3.0,moving,2
5.6,1668131.442544203,24,3,3,3,0,-14.0,0.55,-0.53,8.54,-2.85,2.47,-6.26,18.1875,-46.1875,531.5625,0.615478515625,0.52410888671875,-0.277587890625,0.0314,-41.75,-2.75,-54.25,3.41,-3.01,moving,2
5.61,1668131.456665907,24,3,3,3,0,17.0,0.31,-0.44,8.88,-3.04,2.56,-5.57,12.0,-49.9375,531.6875,0.6119384765625,0.52813720703125,-0.277587890625,0.0311,-41.75,-4.25,-54.375,3.35,-3.0,moving,2
5.62,1668131.456665907,24,3,3,3,0,28.0,-0.06,-0.29,9.02,-3.35,2.69,-4.87,3.25,-50.625,531.9375,0.6082763671875,0.53173828125,-0.2783203125,0.0311,-41.75,-4.25,-54.5625,3.29,-2.99,moving,2
5.64,1668131.471831068,24,3,3,3,0,2.0,0.05,-0.12,8.78,-3.18,2.85,-4.69,-1.0625,-47.4375,532.375,0.604736328125,0.534912109375,-0.27911376953125,0.0311,-41.75,-4.25,-54.75,3.23,-2.97,moving,2
5.65,1668131.471831068,24,3,3,3,0,-78.0,0.26,0.22,7.99,-2.92,3.19,-5.24,2.375,-40.5625,533.0,0.60137939453125,0.5379638671875,-0.279296875,0.0311,-41.75,-4.25,-54.875,3.19,-2.96,moving,2
5.66,1668131.502518446,24,3,3,3,0,-316.0,1.06,0.85,5.62,-2.1,3.82,-6.9,21.3125,-30.75,533.5625,0.5985107421875,0.54156494140625,-0.277587890625,0.0311,-41.75,-4.25,-54.9375,3.16,-2.97,moving,2
5.67,1668131.502518446,24,3,3,3,0,-511.0,1.7,0.68,3.65,-1.46,3.7,-10.02,54.5625,-18.125,533.8125,0.5960693359375,0.5465087890625,-0.2725830078125,0.0308,-42.1875,-5.0625,-54.8125,3.17,-3.02,moving,2
5.68,1668131.516885959,24,3,3,3,0,-825.0,2.28,0.42,0.47,-0.92,3.52,-13.11,79.8125,-2.75,534.1875,0.5941162109375,0.55218505859375,-0.2646484375,0.0308,-42.1875,-5.0625,-54.5625,3.21,-3.09,moving,2
5.68,1668131.516885959,24,3,3,3,0,-1297.0,2.75,-1.52,-4.29,-0.51,1.64,-14.72,81.0,8.3125,535.25,0.5921630859375,0.5574951171875,-0.255615234375,0.0308,-42.1875,-5.0625,-54.25,3.27,-3.16,moving,2
5.69,1668131.531175103,24,3,3,3,0,-1494.0,4.66,-10.0,-6.27,1.34,-6.86,-11.53,15.1875,5.9375,538.4375,0.5894775390625,0.55950927734375,-0.25103759765625,0.0308,-42.1875,-5.0625,-54.1875,3.32,-3.14,moving,2
5.71,1668131.531175103,24,3,3,3,0,-1361.0,8.4,-15.43,-4.89,5.04,-12.44,-7.4,-89.0,3.5625,545.375,0.5855712890625,0.55621337890625,-0.253173828125,0.0308,-42.1875,-5.0625,-54.4375,3.35,-2.98,moving,2
5.72,1668131.562483941,24,3,3,3,0,-1673.0,10.5,-16.21,-7.95,7.09,-13.5,-11.55,-151.75,16.375,557.0,0.57958984375,0.54986572265625,-0.25665283203125,0.0305,-41.25,-4.5625,-54.875,3.41,-2.71,moving,2
5.73,1668131.562483941,24,3,3,3,0,-2665.0,10.66,-15.6,-17.87,7.18,-12.98,-8.89,-38.3125,27.1875,562.375,0.577392578125,0.54791259765625,-0.254638671875,0.0305,-41.25,-4.5625,-54.875,3.48,-2.62,moving,2
5.74,1668131.576518324,24,3,3,3,0,-3245.0,11.07,-3.97,-23.69,7.57,-1.28,0.97,37.9375,15.875,560.5,0.57928466796875,0.54876708984375,-0.252197265625,0.0305,-41.25,-4.5625,-54.6875,3.5,-2.68,moving,2
5.75,1668131.576518324,24,3,3,3,0,-2525.0,9.83,-0.1,-16.5,6.36,2.65,4.83,34.75,-12.8125,556.9375,0.58087158203125,0.5504150390625,-0.25250244140625,0.0305,-41.25,-4.5625,-54.625,3.47,-2.75,moving,2
5.76,1668131.592502984,24,3,3,3,0,-2028.0,7.58,0.33,-11.51,4.17,3.09,6.1,-7.5,-25.625,554.75,0.581298828125,0.550537109375,-0.25592041015625,0.0305,-41.25,-4.5625,-54.75,3.41,-2.76,moving,2
5.77,1668131.592502984,24,3,3,3,0,-1723.0,5.63,-0.62,-8.43,2.26,2.1,6.16,-34.75,-20.5,554.0,0.58135986328125,0.549072265625,-0.260498046875,0.0312,-40.6875,-7.75,-54.9375,3.36,-2.73,moving,2
5.78,1668131.621646376,24,3,3,3,0,-1283.0,5.68,-5.11,-4.0,2.35,-2.45,7.3,-60.8125,-7.1875,554.4375,0.581787109375,0.5455322265625,-0.26611328125,0.0312,-40.6875,-7.75,-55.125,3.33,-2.66,moving,2
5.79,1668131.621646376,24,3,3,3,0,-1141.0,5.67,-5.95,-2.55,2.36,-3.4,8.22,-93.75,5.1875,556.4375,0.58221435546875,0.53961181640625,-0.2730712890625,0.0312,-40.6875,-7.75,-55.375,3.31,-2.55,moving,2
5.8,1668131.638005141,24,3,3,3,0,-1050.0,5.24,-6.48,-1.61,1.93,-4.01,7.45,-69.0625,13.3125,557.625,0.58343505859375,0.5345458984375,-0.27813720703125,0.0312,-40.6875,-7.75,-55.5625,3.31,-2.47,moving,2
5.81,1668131.638005141,24,3,3,3,0,-949.0,4.48,-6.23,-0.6,1.16,-3.76,7.55,-22.75,17.4375,556.6875,0.5859375,0.5313720703125,-0.2806396484375,0.0312,-40.6875,-7.75,-55.5625,3.32,-2.46,moving,2
5.82,1668131.651382501,24,3,3,3,0,-697.0,3.02,-3.86,1.9,-0.3,-1.33,8.43,18.4375,20.375,553.5625,0.58978271484375,0.5299072265625,-0.28118896484375,0.0321,-40.375,-6.875,-55.4375,3.33,-2.52,moving,2
5.83,1668131.651382501,24,3,3,3,0,-614.0,2.21,-3.12,2.68,-1.12,-0.5,8.45,47.125,23.625,549.125,0.59454345703125,0.52960205078125,-0.280029296875,0.0321,-40.375,-6.875,-55.1875,3.34,-2.62,moving,2
5.84,1668131.681749322,24,3,3,3,0,-519.0,1.47,-2.29,3.6,-1.88,0.44,7.95,48.0625,27.125,544.875,0.59930419921875,0.52923583984375,-0.278564453125,0.0321,-40.375,-6.875,-54.9375,3.36,-2.73,moving,2
5.84,1668131.681749322,24,3,3,3,0,-519.0,1.47,-2.29,3.6,-1.88,0.44,7.95,48.0625,27.125,544.875,0.59930419921875,0.52923583984375,-0.278564453125,0.0321,-40.375,-6.875,-54.9375,3.36,-2.73,moving,2
5.85,1668131.687250705,24,3,3,3,0,-403.0,0.51,-1.03,4.73,-2.87,1.77,7.31,30.375,31.3125,541.75,0.60357666015625,0.52789306640625,-0.27764892578125,0.0321,-40.375,-6.875,-54.75,3.38,-2.8,moving,2
5.86,1668131.687250705,24,3,3,3,0,-349.0,0.3,-0.87,5.24,-3.11,1.97,6.71,17.0,34.625,539.5625,0.6075439453125,0.52581787109375,-0.27703857421875,0.0321,-40.375,-6.875,-54.5625,3.42,-2.85,moving,2
5.87,1668131.711913384,24,3,3,3,0,-317.0,0.38,-0.69,5.53,-3.06,2.19,6.92,5.5625,36.875,537.8125,0.611328125,0.5230712890625,-0.27703857421875,0.0317,-40.75,-6.1875,-54.4375,3.45,-2.89,moving,2
5.88,1668131.711913384,24,3,3,3,0,-308.0,0.54,-0.45,5.6,-2.94,2.45,7.34,-4.5,37.6875,536.4375,0.61505126953125,0.519775390625,-0.27764892578125,0.0317,-40.75,-6.1875,-54.25,3.48,-2.91,moving,2
5.89,1668131.726086114,24,3,3,3,0,-287.0,0.75,-0.25,5.79,-2.76,2.65,7.65,-14.25,36.3125,535.375,0.6185302734375,0.5159912109375,-0.2789306640625,0.0317,-40.75,-6.1875,-54.1875,3.52,-2.91,moving,2
5.9,1668131.726086114,24,3,3,3,0,-268.0,0.84,-0.26,5.98,-2.7,2.64,8.37,-26.4375,32.8125,534.5,0.62176513671875,0.51171875,-0.28118896484375,0.0317,-40.75,-6.1875,-54.125,3.54,-2.91,moving,2
5.91,1668131.741181166,24,3,3,3,0,-216.0,0.89,-0.32,6.5,-2.65,2.57,9.89,-35.9375,27.125,533.375,0.6248779296875,0.507080078125,-0.28466796875,0.0317,-40.75,-6.1875,-54.125,3.55,-2.89,moving,2
5.92,1668131.741181166,24,3,3,3,0,-143.0,0.94,-0.35,7.23,-2.6,2.53,11.46,-35.125,20.6875,531.5,0.628173828125,0.5025634765625,-0.288818359375,0.0321,-40.875,-3.875,-54.1875,3.54,-2.88,moving,2
5.93,1668131.771976291,24,3,3,3,0,-64.0,1.17,-0.24,8.03,-2.35,2.65,11.9,-24.5,14.5625,528.75,0.63153076171875,0.498779296875,-0.292724609375,0.0321,-40.875,-3.875,-54.1875,3.53,-2.89,moving,2
5.94,1668131.771976291,24,3,3,3,0,-35.0,1.02,-0.24,8.32,-2.47,2.67,11.86,-14.875,7.75,525.4375,0.63482666015625,0.49578857421875,-0.29638671875,0.0321,-40.875,-3.875,-54.25,3.5,-2.91,moving,2
5.95,1668131.787392185,24,3,3,3,0,-19.0,0.94,-0.16,8.49,-2.52,2.78,12.06,-12.125,1.3125,521.75,0.637939453125,0.49322509765625,-0.30029296875,0.0321,-40.875,-3.875,-54.25,3.47,-2.94,moving,2
5.96,1668131.787392185,24,3,3,3,0,-27.0,1.0,0.01,8.41,-2.41,2.98,11.97,-13.125,-2.0,518.0,0.64080810546875,0.49078369140625,-0.3043212890625,0.0321,-40.875,-3.875,-54.3125,3.42,-2.97,moving,2
5.97,1668131.804172987,24,3,3,3,0,-148.0,1.07,0.36,7.21,-2.31,3.36,11.67,-10.1875,-1.375,514.1875,0.64373779296875,0.48846435546875,-0.30804443359375,0.0317,-40.875,-3.5,-54.3125,3.38,-2.99,moving,2
5.98,1668131.804172987,24,3,3,3,0,-267.0,1.23,0.62,6.02,-2.11,3.66,10.94,3.25,2.6875,510.1875,0.64691162109375,0.486572265625,-0.3106689453125,0.0317,-40.875,-3.5,-54.3125,3.35,-3.04,moving,2
5.99,1668131.832860813,24,3,3,3,0,-443.0,1.52,0.93,4.24,-1.81,4.04,9.22,25.3125,9.375,506.0,0.6505126953125,0.485595703125,-0.31121826171875,0.0317,-40.875,-3.5,-54.1875,3.34,-3.11,moving,2
6.0,1668131.832860813,24,3,3,3,0,-889.0,2.71,2.41,-0.25,-0.63,5.63,5.88,49.5625,17.4375,502.1875,0.6541748046875,0.4857177734375,-0.3092041015625,0.0317,-40.875,-3.5,-53.9375,3.34,-3.21,moving,2
6.01,1668131.848559462,24,3,3,3,0,-1126.0,3.13,1.11,-2.68,-0.25,4.44,-0.35,79.75,26.4375,499.625,0.65728759765625,0.4876708984375,-0.303466796875,0.0317,-40.875,-3.5,-53.5625,3.38,-3.33,moving,2
6.02,1668131.848559462,24,3,3,3,0,-1356.0,3.55,-2.54,-5.05,0.09,0.88,-4.92,74.8125,34.9375,499.0625,0.659423828125,0.48968505859375,-0.29632568359375,0.0313,-41.5625,-3.5,-53.1875,3.45,-3.42,moving,2
6.03,1668131.862074558,24,3,3,3,0,-1416.0,5.46,-8.41,-5.65,1.94,-5.05,-2.7,-30.75,36.1875,502.375,0.65948486328125,0.4866943359375,-0.29583740234375,0.0313,-41.5625,-3.5,-53.125,3.52,-3.36,moving,2
6.04,1668131.862074558,24,3,3,3,0,-1981.0,13.47,-16.59,-11.22,9.87,-13.52,-3.64,-192.0625,44.25,513.1875,0.65533447265625,0.4764404296875,-0.30401611328125,0.0313,-41.5625,-3.5,-53.6875,3.6,-3.06,moving,2
6.05,1668131.891545709,24,3,3,3,0,-2838.0,12.17,-17.05,-19.74,8.46,-14.26,-12.67,-150.125,44.8125,525.375,0.649658203125,0.4693603515625,-0.30731201171875,0.0313,-41.5625,-3.5,-53.9375,3.7,-2.79,moving,2
6.06,1668131.891545709,24,3,3,3,0,-2879.0,14.27,-11.23,-20.15,10.52,-8.48,-2.79,-17.5625,17.875,527.625,0.649169921875,0.468017578125,-0.3067626953125,0.0313,-41.5625,-3.5,-53.9375,3.74,-2.75,moving,2
6.07,1668131.938650404,24,3,3,3,0,-2315.0,13.98,-4.84,-14.51,10.26,-2.03,3.26,24.0625,-14.3125,525.0,0.650146484375,0.4693603515625,-0.306884765625,0.0309,-41.25,-3.5,-53.9375,3.71,-2.8,moving,2
6.08,1668131.938650404,24,3,3,3,0,-1868.0,7.7,0.11,-10.04,4.03,2.95,0.87,17.9375,-24.9375,523.25,0.64984130859375,0.471435546875,-0.30718994140625,0.0309,-41.25,-3.5,-54.0,3.67,-2.83,moving,2
6.09,1668131.944642022,24,3,3,3,0,-1690.0,5.33,-2.62,-8.25,1.69,0.23,-1.58,20.625,-20.75,522.375,0.64910888671875,0.47381591796875,-0.3065185546875,0.0309,-41.25,-3.5,-54.0,3.64,-2.85,moving,2
6.1,1668131.944642022,24,3,3,3,0,-1525.0,5.07,-4.88,-6.59,1.45,-2.03,0.24,-4.9375,-15.25,522.125,0.64837646484375,0.474365234375,-0.30755615234375,0.0309,-41.25,-3.5,-54.0625,3.62,-2.85,moving,2
6.1,1668131.949906467,24,3,3,3,0,-1525.0,5.07,-4.88,-6.59,1.45,-2.03,0.24,-4.9375,-15.25,522.125,0.64837646484375,0.474365234375,-0.30755615234375,0.0309,-41.25,-3.5,-54.0625,3.62,-2.85,moving,2
6.11,1668131.949906467,24,3,3,3,0,-1348.0,5.39,-5.26,-4.8,1.79,-2.44,3.0,-28.4375,-14.5,521.8125,0.6478271484375,0.47344970703125,-0.31060791015625,0.0309,-41.25,-3.5,-54.1875,3.59,-2.82,moving,2
6.12,1668131.955334364,24,3,3,3,0,-1124.0,3.88,-5.46,-2.56,0.32,-2.63,2.33,3.8125,-14.1875,520.4375,0.64801025390625,0.4739990234375,-0.31158447265625,0.0316,-40.0625,-5.0625,-54.25,3.56,-2.83,moving,2
6.13,1668131.955334364,24,3,3,3,0,-1026.0,3.15,-4.87,-1.58,-0.38,-1.97,0.92,39.9375,-14.5,518.0,0.64874267578125,0.4764404296875,-0.31024169921875,0.0316,-40.0625,-5.0625,-54.1875,3.53,-2.9,moving,2
6.14,1668131.981330946,24,3,3,3,0,-954.0,2.55,-4.2,-0.88,-0.96,-1.21,-0.42,55.375,-16.6875,515.3125,0.6494140625,0.47991943359375,-0.30767822265625,0.0316,-40.0625,-5.0625,-54.0625,3.51,-2.98,moving,2
6.15,1668131.981330946,24,3,3,3,0,-768.0,1.66,-2.8,0.95,-1.82,0.24,-2.06,53.25,-20.0,513.1875,0.64947509765625,0.48370361328125,-0.3050537109375,0.0316,-40.0625,-5.0625,-54.0,3.49,-3.05,moving,2
6.16,1668131.99649391,24,3,3,3,0,-690.0,1.46,-2.24,1.72,-2.0,0.86,-4.06,46.5,-22.5,512.0625,0.64862060546875,0.4876708984375,-0.30230712890625,0.0316,-40.0625,-5.0625,-53.875,3.47,-3.1,moving,2
6.17,1668131.99649391,24,3,3,3,0,-622.0,1.3,-1.83,2.4,-2.15,1.29,-6.12,32.125,-23.4375,512.25,0.64678955078125,0.49139404296875,-0.29986572265625,0.0313,-40.5,-4.5625,-53.875,3.45,-3.13,moving,2
6.18,1668132.026685113,24,3,3,3,0,-559.0,1.42,-1.59,3.03,-2.01,1.54,-7.52,17.4375,-23.3125,513.5625,0.64422607421875,0.4947509765625,-0.2978515625,0.0313,-40.5,-4.5625,-53.875,3.44,-3.13,moving,2
6.19,1668132.026685113,24,3,3,3,0,-436.0,1.87,-1.05,4.27,-1.56,2.04,-8.19,4.375,-22.625,515.6875,0.64111328125,0.49749755859375,-0.29638671875,0.0313,-40.5,-4.5625,-54.0,3.43,-3.1,moving,2
6.2,1668132.042835015,24,3,3,3,0,-354.0,1.89,-0.78,5.11,-1.54,2.28,-8.85,-2.5625,-21.9375,518.375,0.63763427734375,0.50006103515625,-0.29510498046875,0.0313,-40.5,-4.5625,-54.0625,3.43,-3.07,moving,2
6.21,1668132.042835015,24,3,3,3,0,-287.0,1.9,-0.5,5.79,-1.52,2.53,-9.42,-1.25,-21.5,521.25,0.634033203125,0.502685546875,-0.2935791015625,0.0313,-40.5,-4.5625,-54.125,3.43,-3.03,moving,2
6.22,1668132.057971042,24,3,3,3,0,-234.0,1.84,-0.35,6.33,-1.58,2.65,-9.92,5.3125,-22.375,523.875,0.63043212890625,0.50579833984375,-0.29156494140625,0.0324,-41.375,-2.75,-54.25,3.43,-3.0,moving,2
6.23,1668132.057971042,24,3,3,3,0,-99.0,1.3,-0.22,7.69,-2.12,2.76,-10.17,13.0,-25.5,526.25,0.62677001953125,0.50933837890625,-0.28912353515625,0.0324,-41.375,-2.75,-54.25,3.42,-2.98,moving,2
6.24,1668132.071657078,24,3,3,3,0,-41.0,1.02,-0.21,8.28,-2.38,2.76,-9.9,18.5,-31.0,528.0625,0.62310791015625,0.513427734375,-0.2867431640625,0.0324,-41.375,-2.75,-54.3125,3.41,-2.97,moving,2
6.25,1668132.071657078,24,3,3,3,0,-32.0,0.61,-0.3,8.37,-2.77,2.67,-9.14,21.25,-37.5625,529.25,0.61932373046875,0.51788330078125,-0.28472900390625,0.0324,-41.375,-2.75,-54.375,3.38,-2.97,moving,2
6.26,1668132.101794203,24,3,3,3,0,-43.0,0.34,-0.26,8.28,-2.99,2.7,-7.94,17.4375,-41.9375,530.125,0.61566162109375,0.52215576171875,-0.283447265625,0.0324,-41.375,-2.75,-54.5,3.34,-2.97,moving,2
6.27,1668132.101794203,24,3,3,3,0,22.0,-0.13,-0.07,8.96,-3.42,2.9,-6.01,14.125,-50.625,530.25,0.61199951171875,0.52642822265625,-0.28326416015625,0.0316,-40.25,-2.75,-54.625,3.29,-2.97,moving,2
6.28,1668132.119627862,24,3,3,3,0,58.0,-0.37,0.26,9.35,-3.58,3.24,-4.16,13.3125,-61.375,529.5,0.60833740234375,0.53094482421875,-0.28411865234375,0.0316,-40.25,-2.75,-54.8125,3.21,-2.97,moving,2
6.29,1668132.119627862,24,3,3,3,0,60.0,-0.51,0.96,9.4,-3.63,3.95,-4.01,16.0,-67.75,528.375,0.60443115234375,0.53582763671875,-0.28515625,0.0316,-40.25,-2.75,-55.0,3.11,-2.99,moving,2
6.3,1668132.131655938,24,3,3,3,0,89.0,-0.46,1.75,9.71,-3.51,4.76,-6.58,30.5,-65.6875,527.4375,0.6002197265625,0.54168701171875,-0.2845458984375,0.0316,-40.25,-2.75,-55.125,3.04,-3.01,moving,2
6.31,1668132.131655938,24,3,3,3,0,61.0,-1.09,1.96,9.43,-4.08,5.03,-10.85,60.1875,-53.5,526.75,0.59613037109375,0.54888916015625,-0.28057861328125,0.0316,-40.25,-2.75,-55.0625,2.99,-3.07,moving,2
6.32,1668132.161632094,24,3,3,3,0,-110.0,-0.67,1.82,7.68,-3.66,4.99,-14.3,89.75,-33.0625,526.25,0.59271240234375,0.5567626953125,-0.27313232421875,0.0317,-39.875,-4.5625,-54.875,2.99,-3.16,moving,2
6.33,1668132.161632094,24,3,3,3,0,-360.0,-0.02,0.95,5.12,-3.06,4.23,-16.37,110.875,-9.375,525.9375,0.5902099609375,0.56463623046875,-0.2628173828125,0.0317,-39.875,-4.5625,-54.5,3.03,-3.27,moving,2
6.34,1668132.176381117,24,3,3,3,0,-1243.0,2.99,0.82,-3.77,-0.12,4.21,-17.66,111.25,12.25,526.375,0.58837890625,0.5714111328125,-0.2510986328125,0.0317,-39.875,-4.5625,-54.0625,3.11,-3.38,moving,2
6.35,1668132.176381117,24,3,3,3,0,-1675.0,3.86,-1.74,-8.16,0.64,1.7,-18.55,86.5625,21.5,528.5,0.58612060546875,0.57672119140625,-0.2398681640625,0.0317,-39.875,-4.5625,-53.6875,3.21,-3.45,moving,2
6.36,1668132.191957696,24,3,3,3,0,-1520.0,5.95,-5.51,-6.61,2.65,-2.1,-14.62,4.5625,14.9375,533.375,0.58282470703125,0.5780029296875,-0.234375,0.0317,-39.875,-4.5625,-53.625,3.29,-3.4,moving,2
6.37,1668132.191957696,24,3,3,3,0,-1520.0,5.95,-5.51,-6.61,2.65,-2.1,-14.62,4.5625,14.9375,533.375,0.58282470703125,0.5780029296875,-0.234375,0.0317,-39.875,-4.5625,-53.625,3.29,-3.4,moving,2
6.37,1668132.208090956,24,3,3,3,0,-904.0,10.83,-17.78,-0.37,7.47,-14.66,-10.67,-167.5,14.625,545.6875,0.5770263671875,0.57098388671875,-0.23883056640625,0.0317,-39.5,-3.0625,-54.1875,3.35,-3.11,moving,2
6.38,1668132.208090956,24,3,3,3,0,-2783.0,9.94,-17.19,-19.04,6.46,-14.61,-20.29,-302.875,44.8125,568.4375,0.5667724609375,0.5570068359375,-0.24560546875,0.0317,-39.5,-3.0625,-54.9375,3.48,-2.58,moving,2
6.39,1668132.222118992,24,3,3,3,0,-2983.0,11.05,-10.67,-21.03,7.46,-8.28,-13.37,-89.1875,45.375,578.0625,0.56298828125,0.55224609375,-0.24371337890625,0.0317,-39.5,-3.0625,-55.0,3.59,-2.39,moving,2
6.4,1668132.222118992,24,3,3,3,0,-2835.0,10.5,-6.17,-19.58,6.87,-3.71,0.93,42.375,19.8125,576.0625,0.56512451171875,0.55322265625,-0.240966796875,0.0317,-39.5,-3.0625,-54.8125,3.62,-2.46,moving,2
6.41,1668132.252978652,24,3,3,3,0,-2594.0,9.14,-0.58,-17.17,5.53,1.93,2.98,30.125,-7.625,573.5,0.56634521484375,0.5546875,-0.24072265625,0.0317,-39.5,-3.0625,-54.75,3.6,-2.51,moving,2
6.42,1668132.252978652,24,3,3,3,0,-1880.0,4.79,-0.55,-10.02,1.22,1.96,2.61,-8.4375,-19.6875,572.6875,0.56597900390625,0.55487060546875,-0.242919921875,0.0308,-38.0,-7.25,-54.875,3.56,-2.51,moving,2
6.43,1668132.26714422,24,3,3,3,0,-1686.0,4.37,-2.85,-8.06,0.84,-0.37,3.59,-29.1875,-16.1875,572.625,0.565673828125,0.55377197265625,-0.2462158203125,0.0308,-38.0,-7.25,-55.0,3.52,-2.48,moving,2
6.44,1668132.26714422,24,3,3,3,0,-1514.0,5.45,-4.32,-6.31,1.95,-1.9,7.27,-53.8125,-6.625,572.8125,0.56640625,0.550537109375,-0.25140380859375,0.0308,-38.0,-7.25,-55.1875,3.49,-2.42,moving,2
6.45,1668132.282950209,24,3,3,3,0,-1285.0,5.63,-5.4,-3.99,2.15,-3.06,8.18,-75.375,-1.5625,573.875,0.567138671875,0.5457763671875,-0.2576904296875,0.0308,-38.0,-7.25,-55.375,3.47,-2.34,moving,2
6.46,1668132.282950209,24,3,3,3,0,-1057.0,4.73,-6.15,-1.68,1.27,-3.87,7.36,-62.75,3.75,574.6875,0.568115234375,0.54144287109375,-0.26275634765625,0.0308,-38.0,-7.25,-55.5,3.46,-2.27,moving,2
6.47,1668132.312898696,24,3,3,3,0,-952.0,4.1,-5.45,-0.62,0.64,-3.2,6.69,-27.1875,8.0,574.0625,0.5699462890625,0.53875732421875,-0.2657470703125,0.0326,-38.0,-6.875,-55.5625,3.45,-2.25,moving,2
6.48,1668132.312898696,24,3,3,3,0,-848.0,3.59,-4.49,0.39,0.13,-2.18,6.72,16.125,10.375,571.375,0.5728759765625,0.5380859375,-0.266357421875,0.0326,-38.0,-6.875,-55.5,3.45,-2.3,moving,2
6.49,1668132.326401463,24,3,3,3,0,-699.0,2.81,-2.18,1.85,-0.64,0.21,6.8,45.875,12.4375,567.3125,0.5765380859375,0.5386962890625,-0.2655029296875,0.0326,-38.0,-6.875,-55.3125,3.45,-2.4,moving,2
6.5,1668132.326401463,24,3,3,3,0,-575.0,2.49,-1.19,3.06,-0.96,1.31,6.26,58.125,13.8125,562.8125,0.5804443359375,0.5399169921875,-0.26373291015625,0.0326,-38.0,-6.875,-55.125,3.46,-2.51,moving,2
6.51,1668132.342465997,24,3,3,3,0,-483.0,2.26,-0.41,3.96,-1.2,2.2,6.55,46.125,16.1875,558.8125,0.584228515625,0.54034423828125,-0.26251220703125,0.0326,-38.0,-6.875,-54.9375,3.47,-2.61,moving,2
6.52,1668132.342465997,24,3,3,3,0,-433.0,2.09,-0.1,4.42,-1.38,2.58,7.32,34.1875,19.9375,555.25,0.588134765625,0.5399169921875,-0.26202392578125,0.032,-37.5625,-8.0625,-54.75,3.48,-2.69,moving,2
6.53,1668132.372404433,24,3,3,3,0,-379.0,1.83,0.59,4.94,-1.65,3.35,8.36,19.375,23.6875,552.0625,0.59210205078125,0.53839111328125,-0.2623291015625,0.032,-37.5625,-8.0625,-54.625,3.49,-2.75,moving,2
6.54,1668132.372404433,24,3,3,3,0,-336.0,1.66,0.84,5.35,-1.84,3.64,9.3,7.1875,25.9375,549.25,0.59625244140625,0.53607177734375,-0.26348876953125,0.032,-37.5625,-8.0625,-54.5,3.5,-2.8,moving,2
6.55,1668132.386973118,24,3,3,3,0,-283.0,1.56,0.99,5.86,-1.94,3.82,10.21,-1.125,26.875,546.5625,0.6004638671875,0.53314208984375,-0.2652587890625,0.032,-37.5625,-8.0625,-54.375,3.51,-2.83,moving,2
6.56,1668132.386973118,24,3,3,3,0,-256.0,1.54,1.04,6.12,-1.98,3.91,10.69,-4.5625,28.125,543.8125,0.604736328125,0.5299072265625,-0.26727294921875,0.032,-37.5625,-8.0625,-54.25,3.52,-2.87,moving,2
6.57,1668132.401931492,24,3,3,3,0,-233.0,1.62,0.9,6.34,-1.9,3.81,10.51,-7.375,28.9375,541.3125,0.60894775390625,0.5264892578125,-0.2694091796875,0.031,-38.0,-3.875,-54.1875,3.53,-2.9,moving,2
6.58,1668132.401931492,24,3,3,3,0,-265.0,1.55,0.63,6.01,-1.99,3.55,9.82,-11.625,27.9375,539.1875,0.61273193359375,0.52301025390625,-0.27154541015625,0.031,-38.0,-3.875,-54.125,3.54,-2.92,moving,2
6.59,1668132.435055353,24,3,3,3,0,-292.0,1.31,0.33,5.73,-2.23,3.26,8.89,-21.5,23.5625,537.75,0.6158447265625,0.5194091796875,-0.27410888671875,0.031,-38.0,-3.875,-54.125,3.55,-2.92,moving,2
6.6,1668132.435055353,24,3,3,3,0,-285.0,1.15,0.08,5.8,-2.39,2.99,8.74,-31.375,17.375,536.625,0.618408203125,0.5157470703125,-0.27752685546875,0.031,-38.0,-3.875,-54.125,3.54,-2.91,moving,2
6.61,1668132.447135309,24,3,3,3,0,-325.0,1.39,0.03,5.41,-2.14,2.92,9.01,-31.1875,12.3125,535.25,0.6207275390625,0.51226806640625,-0.2811279296875,0.031,-38.0,-3.875,-54.1875,3.53,-2.89,moving,2
6.62,1668132.447135309,24,3,3,3,0,-415.0,1.42,-0.06,4.52,-2.1,2.82,8.76,-25.3125,10.375,533.625,0.623046875,0.5091552734375,-0.28448486328125,0.0332,-37.1875,-2.75,-54.25,3.52,-2.89,moving,2
6.62,1668132.462425999,24,3,3,3,0,-415.0,1.42,-0.06,4.52,-2.1,2.82,8.76,-25.3125,10.375,533.625,0.623046875,0.5091552734375,-0.28448486328125,0.0332,-37.1875,-2.75,-54.25,3.52,-2.89,moving,2
6.63,1668132.462425999,24,3,3,3,0,-535.0,1.61,-0.23,3.32,-1.89,2.66,8.43,-19.75,10.25,531.875,0.62542724609375,0.50640869140625,-0.2874755859375,0.0332,-37.1875,-2.75,-54.25,3.51,-2.89,moving,2
6.64,1668132.476324029,24,3,3,3,0,-757.0,2.18,-1.02,1.11,-1.31,1.88,8.3,-13.6875,10.75,529.875,0.62786865234375,0.50390625,-0.2900390625,0.0332,-37.1875,-2.75,-54.25,3.5,-2.9,moving,2
6.65,1668132.476324029,24,3,3,3,0,-894.0,2.37,-1.72,-0.26,-1.12,1.19,7.95,-7.9375,13.5625,527.8125,0.6304931640625,0.50152587890625,-0.2919921875,0.0332,-37.1875,-2.75,-54.25,3.5,-2.92,moving,2
6.66,1668132.491307387,24,3,3,3,0,-1032.0,2.4,-2.52,-1.65,-1.09,0.4,6.79,-8.8125,18.25,526.25,0.63299560546875,0.4990234375,-0.2935791015625,0.0332,-37.1875,-2.75,-54.1875,3.5,-2.93,moving,2
6.67,1668132.491307387,24,3,3,3,0,-1121.0,2.47,-3.71,-2.54,-1.05,-0.78,4.67,-20.1875,22.625,526.125,0.634765625,0.49609375,-0.294921875,0.0325,-38.375,-3.875,-54.1875,3.52,-2.92,moving,2
6.68,1668132.52217901,24,3,3,3,0,-1257.0,4.21,-5.88,-3.9,0.65,-3.0,1.96,-34.125,25.5,527.625,0.635498046875,0.49285888671875,-0.29620361328125,0.0325,-38.375,-3.875,-54.1875,3.55,-2.87,moving,2
6.69,1668132.52217901,24,3,3,3,0,-1402.0,4.56,-6.01,-5.35,0.95,-3.18,-0.85,-30.375,27.375,530.0,0.6356201171875,0.4901123046875,-0.29644775390625,0.0325,-38.375,-3.875,-54.1875,3.6,-2.82,moving,2
6.7,1668132.536034234,24,3,3,3,0,-1510.0,4.84,-5.64,-6.45,1.19,-2.81,-2.36,5.9375,22.625,531.1875,0.6361083984375,0.489501953125,-0.29449462890625,0.0325,-38.375,-3.875,-54.0625,3.64,-2.82,moving,2
6.71,1668132.536034234,24,3,3,3,0,-1516.0,5.63,-4.65,-6.54,1.96,-1.76,-0.84,39.5,12.1875,530.0625,0.63739013671875,0.49072265625,-0.29150390625,0.0325,-38.375,-3.875,-53.875,3.66,-2.88,moving,2
6.72,1668132.550915094,24,3,3,3,0,-1444.0,6.89,-2.02,-5.83,3.22,0.93,0.55,44.375,1.9375,528.0,0.63873291015625,0.4925537109375,-0.28912353515625,0.0321,-38.375,-4.5625,-53.75,3.66,-2.95,moving,2
6.73,1668132.550915094,24,3,3,3,0,-1398.0,7.32,-1.56,-5.39,3.67,1.44,0.95,31.75,-5.4375,526.125,0.63958740234375,0.49407958984375,-0.287841796875,0.0321,-38.375,-4.5625,-53.625,3.65,-3.0,moving,2
6.74,1668132.581355361,24,3,3,3,0,-1340.0,7.13,-2.0,-4.81,3.49,1.02,-0.27,18.4375,-10.8125,525.125,0.63946533203125,0.49560546875,-0.2872314453125,0.0321,-38.375,-4.5625,-53.625,3.63,-3.03,moving,2
6.75,1668132.581355361,24,3,3,3,0,-1271.0,6.51,-2.94,-4.12,2.89,0.09,-1.79,7.375,-14.5,525.0625,0.63848876953125,0.49700927734375,-0.2869873046875,0.0321,-38.375,-4.5625,-53.6875,3.62,-3.03,moving,2
6.76,1668132.596154352,24,3,3,3,0,-1132.0,5.3,-4.93,-2.71,1.69,-1.91,-2.84,-0.75,-16.8125,525.6875,0.636962890625,0.49835205078125,-0.28704833984375,0.0321,-38.375,-4.5625,-53.75,3.6,-3.02,moving,2
6.77,1668132.596154352,24,3,3,3,0,-1086.0,4.73,-5.17,-2.24,1.14,-2.17,-3.33,-8.0,-18.5,526.75,0.635009765625,0.49951171875,-0.28741455078125,0.0325,-38.0,-2.75,-53.8125,3.59,-2.99,moving,2
6.78,1668132.612747817,24,3,3,3,0,-1051.0,4.19,-5.27,-1.88,0.62,-2.29,-3.94,-2.375,-19.9375,527.75,0.6329345703125,0.50115966796875,-0.28741455078125,0.0325,-38.0,-2.75,-53.9375,3.57,-2.97,moving,2
6.79,1668132.612747817,24,3,3,3,0,-994.0,3.68,-5.3,-1.3,0.12,-2.33,-4.48,11.0,-21.875,528.3125,0.6309814453125,0.5035400390625,-0.28656005859375,0.0325,-38.0,-2.75,-54.0,3.55,-2.97,moving,2
6.8,1668132.641464044,24,3,3,3,0,-869.0,2.89,-4.72,-0.04,-0.64,-1.74,-4.22,18.8125,-24.125,528.3125,0.62921142578125,0.50634765625,-0.28546142578125,0.0325,-38.0,-2.75,-54.0,3.53,-2.98,moving,2
6.81,1668132.641464044,24,3,3,3,0,-810.0,2.66,-4.31,0.54,-0.84,-1.3,-2.99,22.375,-25.375,527.75,0.6278076171875,0.50921630859375,-0.2845458984375,0.0325,-38.0,-2.75,-54.0625,3.5,-3.0,moving,2
6.82,1668132.672139012,24,3,3,3,0,-738.0,2.51,-3.81,1.27,-0.95,-0.77,-1.39,26.375,-26.6875,526.375,0.6268310546875,0.5120849609375,-0.283935546875,0.0314,-37.875,-3.375,-54.0625,3.46,-3.04,moving,2
6.83,1668132.672139012,24,3,3,3,0,-590.0,2.33,-2.82,2.74,-1.09,0.26,-0.14,31.1875,-27.375,524.25,0.6263427734375,0.5150146484375,-0.28338623046875,0.0314,-37.875,-3.375,-54.0625,3.42,-3.09,moving,2
6.84,1668132.677765314,24,3,3,3,0,-526.0,2.31,-2.3,3.38,-1.06,0.83,0.82,34.375,-27.8125,521.6875,0.62615966796875,0.5179443359375,-0.28302001953125,0.0314,-37.875,-3.375,-54.0625,3.38,-3.14,moving,2
6.85,1668132.677765314,24,3,3,3,0,-496.0,2.25,-1.83,3.67,-1.08,1.36,1.26,35.125,-26.5625,518.9375,0.62615966796875,0.520751953125,-0.28265380859375,0.0314,-37.875,-3.375,-54.0,3.33,-3.2,moving,2
6.86,1668132.701777683,24,3,3,3,0,-495.0,2.28,-1.52,3.69,-1.01,1.73,1.01,33.8125,-23.0625,516.4375,0.626220703125,0.52337646484375,-0.2821044921875,0.0314,-37.875,-3.375,-54.0,3.29,-3.25,moving,2
6.87,1668132.701777683,24,3,3,3,0,-532.0,2.33,-1.43,3.3,-0.93,1.87,0.48,32.0625,-18.125,514.3125,0.6263427734375,0.52569580078125,-0.28125,0.0321,-37.875,-3.0,-53.9375,3.26,-3.3,moving,2
6.88,1668132.716445693,24,3,3,3,0,-558.0,2.35,-1.67,3.04,-0.89,1.67,-0.35,29.8125,-13.1875,512.6875,0.6263427734375,0.52777099609375,-0.2801513671875,0.0321,-37.875,-3.0,-53.875,3.25,-3.35,moving,2
6.89,1668132.716445693,24,3,3,3,0,-558.0,2.35,-1.67,3.04,-0.89,1.67,-0.35,29.8125,-13.1875,512.6875,0.6263427734375,0.52777099609375,-0.2801513671875,0.0321,-37.875,-3.0,-53.875,3.25,-3.35,moving,2
6.89,1668132.73186472,24,3,3,3,0,-606.0,2.55,-1.97,2.55,-0.68,1.4,-1.28,26.5625,-8.75,511.6875,0.626220703125,0.52960205078125,-0.2786865234375,0.0321,-37.875,-3.0,-53.8125,3.24,-3.38,moving,2
6.9,1668132.73186472,24,3,3,3,0,-656.0,2.85,-2.38,2.03,-0.39,1.02,-2.11,21.3125,-4.8125,511.3125,0.62591552734375,0.53106689453125,-0.27716064453125,0.0321,-37.875,-3.0,-53.75,3.24,-3.41,moving,2
6.91,1668132.746133885,24,3,3,3,0,-762.0,3.55,-3.24,0.97,0.3,0.18,-2.62,16.625,-1.4375,511.375,0.62554931640625,0.53228759765625,-0.2755126953125,0.0321,-37.875,-3.0,-53.6875,3.25,-3.42,moving,2
6.92,1668132.746133885,24,3,3,3,0,-802.0,3.94,-3.64,0.56,0.68,-0.21,-2.81,13.6875,1.1875,511.75,0.62518310546875,0.53326416015625,-0.27392578125,0.0321,-37.5,-2.25,-53.625,3.26,-3.43,moving,2
6.93,1668132.777038995,24,3,3,3,0,-850.0,4.29,-3.92,0.06,1.01,-0.48,-2.58,12.375,3.25,512.1875,0.62493896484375,0.53399658203125,-0.2723388671875,0.0321,-37.5,-2.25,-53.5625,3.27,-3.44,moving,2
6.94,1668132.777038995,24,3,3,3,0,-876.0,4.61,-4.11,-0.19,1.32,-0.66,-2.13,10.9375,4.9375,512.5,0.62481689453125,0.5345458984375,-0.27093505859375,0.0321,-37.5,-2.25,-53.5,3.29,-3.45,moving,2
6.95,1668132.807729506,24,3,3,3,0,-937.0,5.11,-4.33,-0.81,1.8,-0.87,-1.49,8.8125,5.9375,512.75,0.6248779296875,0.5347900390625,-0.26971435546875,0.0321,-37.5,-2.25,-53.4375,3.3,-3.46,moving,2
6.96,1668132.807729506,24,3,3,3,0,-950.0,5.25,-4.33,-0.95,1.93,-0.87,-0.96,6.75,5.625,512.9375,0.62506103515625,0.534912109375,-0.26885986328125,0.0321,-37.5,-2.25,-53.4375,3.31,-3.46,moving,2
6.97,1668132.812934544,24,3,3,3,0,-958.0,5.27,-4.19,-1.03,1.94,-0.72,-0.44,3.75,4.375,513.0,0.625244140625,0.534912109375,-0.268310546875,0.0318,-37.5,-2.25,-53.375,3.32,-3.47,moving,2
6.98,1668132.812934544,24,3,3,3,0,-968.0,4.84,-3.9,-1.13,1.51,-0.43,-0.18,0.875,2.5,513.0625,0.62530517578125,0.53485107421875,-0.26812744140625,0.0318,-37.5,-2.25,-53.375,3.33,-3.47,moving,2
6.99,1668132.821497736,24,3,3,3,0,-936.0,4.45,-3.9,-0.81,1.11,-0.44,-0.14,-2.9375,0.0,513.3125,0.62518310546875,0.53472900390625,-0.26824951171875,0.0318,-37.5,-2.25,-53.375,3.33,-3.46,moving,2
7.0,1668132.821497736,24,3,3,3,0,-910.0,4.08,-3.94,-0.55,0.75,-0.48,-0.11,-6.8125,-2.125,513.625,0.6248779296875,0.5345458984375,-0.2686767578125,0.0318,-37.5,-2.25,-53.4375,3.33,-3.45,moving,2
7.01,1668132.853503961,24,3,3,3,0,-888.0,3.77,-3.91,-0.32,0.44,-0.47,0.03,-9.6875,-3.3125,514.0,0.62451171875,0.5343017578125,-0.26934814453125,0.0318,-37.5,-2.25,-53.4375,3.32,-3.44,moving,2
7.02,1668132.853503961,24,3,3,3,0,-860.0,3.32,-3.95,-0.03,0.0,-0.52,0.22,-10.375,-4.0625,514.3125,0.6241455078125,0.5340576171875,-0.2701416015625,0.0313,-37.375,-0.6875,-53.5,3.31,-3.42,moving,2
7.03,1668132.866826308,24,3,3,3,0,-836.0,3.14,-3.98,0.21,-0.16,-0.56,0.42,-10.375,-4.6875,514.5625,0.623779296875,0.53375244140625,-0.27099609375,0.0313,-37.375,-0.6875,-53.5625,3.31,-3.41,moving,2
7.04,1668132.866826308,24,3,3,3,0,-817.0,3.02,-3.94,0.41,-0.27,-0.54,0.63,-8.625,-4.9375,514.625,0.62353515625,0.5335693359375,-0.27191162109375,0.0313,-37.375,-0.6875,-53.625,3.3,-3.4,moving,2
7.05,1668132.881868219,24,3,3,3,0,-801.0,2.93,-3.87,0.58,-0.35,-0.47,0.8,-6.0625,-4.875,514.5625,0.6234130859375,0.533447265625,-0.27264404296875,0.0313,-37.375,-0.6875,-53.6875,3.29,-3.39,moving,2
7.06,1668132.881868219,24,3,3,3,0,-779.0,2.93,-3.65,0.8,-0.34,-0.26,0.9,-2.6875,-4.4375,514.25,0.62335205078125,0.533447265625,-0.27325439453125,0.0313,-37.375,-0.6875,-53.6875,3.28,-3.39,moving,2
7.07,1668132.912217218,24,3,3,3,0,-765.0,2.88,-3.62,0.94,-0.38,-0.22,0.9,0.875,-3.5625,513.8125,0.62347412109375,0.53350830078125,-0.27362060546875,0.0317,-37.375,-0.25,-53.6875,3.27,-3.4,moving,2
7.08,1668132.912217218,24,3,3,3,0,-764.0,2.86,-3.64,0.95,-0.4,-0.23,0.81,3.875,-2.3125,513.25,0.6236572265625,0.53369140625,-0.27374267578125,0.0317,-37.375,-0.25,-53.6875,3.26,-3.4,moving,2
7.09,1668132.927916762,24,3,3,3,0,-772.0,2.87,-3.65,0.86,-0.38,-0.23,0.73,6.75,-0.8125,512.6875,0.6240234375,0.533935546875,-0.27362060546875,0.0317,-37.375,-0.25,-53.6875,3.26,-3.42,moving,2
7.1,1668132.927916762,24,3,3,3,0,-796.0,2.97,-3.6,0.62,-0.28,-0.16,0.69,9.3125,0.375,512.0,0.6243896484375,0.53424072265625,-0.2733154296875,0.0317,-37.375,-0.25,-53.625,3.25,-3.43,moving,2
7.11,1668132.941708836,24,3,3,3,0,-801.0,3.06,-3.56,0.56,-0.19,-0.1,0.68,10.5625,1.1875,511.3125,0.62493896484375,0.53448486328125,-0.27288818359375,0.0317,-37.375,-0.25,-53.5625,3.25,-3.45,moving,2
7.12,1668132.941708836,24,3,3,3,0,-811.0,3.2,-3.58,0.32,-0.05,0.2,0.59,10.125,2.0625,498.5625,0.6336669921875,0.5401611328125,-0.263916015625,0.0315,-37.75,-1.0625,-52.6875,3.25,-3.79,moving,2
7.13,1668132.971806533,24,3,3,3,0,-845.0,3.45,-3.7,-0.02,0.19,0.1,0.41,8.5,2.625,498.0625,0.63409423828125,0.54034423828125,-0.263427734375,0.0315,-37.75,-1.0625,-52.6875,3.25,-3.8,moving,2
7.14,1668132.971806533,24,3,3,3,0,-849.0,3.55,-3.77,-0.07,0.29,0.03,0.18,6.375,3.375,497.75,0.63446044921875,0.5404052734375,-0.26300048828125,0.0315,-37.75,-1.0625,-52.625,3.26,-3.81,moving,2
7.15,1668132.98646437,24,3,3,3,0,-854.0,3.64,-3.9,-0.12,0.38,-0.08,0.0,3.8125,3.5,497.625,0.63470458984375,0.54034423828125,-0.26263427734375,0.0315,-37.75,-1.0625,-52.625,3.26,-3.82,moving,2
7.16,1668132.98646437,24,3,3,3,0,-859.0,3.7,-3.97,-0.17,0.43,-0.14,0.0,1.875,3.625,497.625,0.63494873046875,0.54022216796875,-0.26239013671875,0.0315,-37.75,-1.0625,-52.5625,3.27,-3.82,moving,2
7.17,1668133.021068821,24,3,3,3,0,-864.0,3.7,-4.01,-0.22,0.42,-0.18,0.06,0.0625,3.125,497.6875,0.63507080078125,0.5400390625,-0.26220703125,0.0322,-36.6875,-0.25,-52.5625,3.27,-3.82,moving,2
7.18,1668133.021068821,24,3,3,3,0,-867.0,3.64,-3.91,-0.26,0.36,-0.09,0.19,-0.9375,2.4375,497.75,0.63525390625,0.53985595703125,-0.26226806640625,0.0322,-36.6875,-0.25,-52.5625,3.27,-3.82,moving,2
7.19,1668133.035168593,24,3,3,3,0,-866.0,3.6,-3.88,-0.24,0.31,-0.06,0.29,-2.1875,1.6875,497.8125,0.63531494140625,0.53961181640625,-0.26239013671875,0.0322,-36.6875,-0.25,-52.5625,3.28,-3.82,moving,2
7.2,1668133.035168593,24,3,3,3,0,-861.0,3.53,-3.83,-0.2,0.25,-0.02,0.3,-3.9375,1.1875,497.9375,0.6353759765625,0.539306640625,-0.26263427734375,0.0322,-36.6875,-0.25,-52.5625,3.28,-3.81,moving,2
7.21,1668133.046022923,24,3,3,3,0,-853.0,3.34,-3.82,-0.11,0.05,-0.01,0.33,-5.3125,0.75,498.0625,0.6353759765625,0.53900146484375,-0.262939453125,0.0322,-36.6875,-0.25,-52.5625,3.28,-3.8,moving,2
7.22,1668133.046022923,24,3,3,3,0,-852.0,3.29,-3.79,-0.1,0.01,0.0,0.38,-6.125,0.6875,498.25,0.6353759765625,0.53863525390625,-0.26336669921875,0.0322,-37.375,-1.5,-52.625,3.28,-3.8,moving,2
7.23,1668133.060747451,24,3,3,3,0,-846.0,3.21,-3.78,-0.03,-0.06,0.01,0.48,-6.375,0.5,498.4375,0.6353759765625,0.53826904296875,-0.26385498046875,0.0322,-37.375,-1.5,-52.625,3.27,-3.79,moving,2
7.24,1668133.060747451,24,3,3,3,0,-843.0,3.15,-3.75,0.0,-0.12,0.03,0.61,-5.75,0.3125,498.5,0.63543701171875,0.5379638671875,-0.264404296875,0.0322,-37.375,-1.5,-52.6875,3.27,-3.78,moving,2
7.25,1668133.091458388,24,3,3,3,0,-834.0,3.13,-3.65,0.09,-0.14,0.12,0.75,-5.25,0.5625,498.5,0.635498046875,0.53759765625,-0.26483154296875,0.0322,-37.375,-1.5,-52.6875,3.27,-3.78,moving,2
7.26,1668133.091458388,24,3,3,3,0,-832.0,3.12,-3.64,0.11,-0.14,0.12,0.84,-4.875,1.0,498.4375,0.63568115234375,0.53717041015625,-0.26531982421875,0.0322,-37.375,-1.5,-52.6875,3.27,-3.77,moving,2
7.27,1668133.106159601,24,3,3,3,0,-831.0,3.15,-3.62,0.12,-0.12,0.15,0.85,-4.25,1.1875,498.375,0.6358642578125,0.53680419921875,-0.2657470703125,0.0312,-37.75,-2.25,-52.6875,3.27,-3.77,moving,2
7.28,1668133.106159601,24,3,3,3,0,-835.0,3.19,-3.57,0.08,-0.07,0.2,0.84,-3.0625,1.375,498.25,0.63604736328125,0.5364990234375,-0.26611328125,0.0312,-37.75,-2.25,-52.75,3.27,-3.77,moving,2
7.29,1668133.136279759,24,3,3,3,0,-837.0,3.25,-3.57,0.06,-0.01,0.19,0.83,-2.125,1.6875,498.125,0.63629150390625,0.53619384765625,-0.26641845703125,0.0312,-37.75,-2.25,-52.75,3.26,-3.77,moving,2
7.3,1668133.136279759,24,3,3,3,0,-840.0,3.26,-3.55,0.03,0.0,0.21,0.79,-1.875,1.875,498.0,0.63653564453125,0.53582763671875,-0.26666259765625,0.0312,-37.75,-2.25,-52.75,3.26,-3.77,moving,2
7.31,1668133.151870823,24,3,3,3,0,-841.0,3.32,-3.53,0.02,0.05,0.23,0.67,-1.5625,2.0625,497.9375,0.63677978515625,0.5355224609375,-0.26690673828125,0.0312,-37.75,-2.25,-52.75,3.26,-3.77,moving,2
7.32,1668133.151870823,24,3,3,3,0,-852.0,3.37,-3.52,-0.08,0.1,0.24,0.55,-1.6875,2.3125,497.9375,0.636962890625,0.53521728515625,-0.26708984375,0.0315,-37.75,-1.75,-52.75,3.27,-3.76,moving,2
7.33,1668133.183225193,24,3,3,3,0,-853.0,3.41,-3.51,-0.09,0.13,0.25,0.44,-1.375,2.375,498.0,0.63714599609375,0.534912109375,-0.2672119140625,0.0315,-37.75,-1.75,-52.75,3.27,-3.76,moving,2
7.34,1668133.183225193,24,3,3,3,0,-854.0,3.42,-3.51,-0.1,0.14,0.25,0.35,-1.75,2.375,498.125,0.63726806640625,0.53460693359375,-0.267333984375,0.0315,-37.75,-1.75,-52.75,3.27,-3.76,moving,2
7.35,1668133.206284031,24,3,3,3,0,-855.0,3.42,-3.51,-0.11,0.14,0.24,0.26,-2.0625,2.625,498.3125,0.6373291015625,0.53424072265625,-0.2674560546875,0.0315,-37.75,-1.75,-52.75,3.28,-3.75,moving,2
7.36,1668133.206284031,24,3,3,3,0,-846.0,3.36,-3.51,-0.01,0.07,0.24,0.2,-2.5625,2.625,498.5625,0.637451171875,0.53387451171875,-0.26751708984375,0.0315,-37.75,-1.75,-52.75,3.28,-3.75,moving,2
7.37,1668133.212151626,24,3,3,3,0,-847.0,3.33,-3.49,-0.02,0.04,0.24,0.1,-3.5,2.5,498.875,0.637451171875,0.5335693359375,-0.2677001953125,0.0322,-37.75,-2.25,-52.75,3.28,-3.74,stop,2
7.38,1668133.212151626,24,3,3,3,0,-845.0,3.28,-3.52,0.0,0.0,0.21,0.06,-4.3125,2.0625,499.1875,0.637451171875,0.533203125,-0.26788330078125,0.0322,-37.75,-2.25,-52.75,3.29,-3.73,stop,2
7.39,1668133.225996312,24,3,3,3,0,-842.0,3.23,-3.52,0.02,-0.05,0.2,0.0,-5.25,1.25,499.5,0.6373291015625,0.53289794921875,-0.26812744140625,0.0322,-37.75,-2.25,-52.75,3.29,-3.72,stop,2
7.4,1668133.225996312,24,3,3,3,0,-840.0,3.16,-3.51,0.04,-0.12,0.2,-0.06,-6.125,0.625,499.8125,0.63720703125,0.5325927734375,-0.26849365234375,0.0322,-37.75,-2.25,-52.8125,3.29,-3.71,stop,2
7.41,1668133.242782241,24,3,3,3,0,-843.0,3.14,-3.51,0.02,-0.15,0.19,-0.15,-6.625,0.0625,500.25,0.636962890625,0.53228759765625,-0.268798828125,0.0322,-37.75,-2.25,-52.8125,3.29,-3.7,stop,2
7.42,1668133.242782241,24,3,3,3,0,-844.0,3.08,-3.52,0.02,-0.2,0.17,-0.32,-6.375,-0.375,500.6875,0.63671875,0.5321044921875,-0.2691650390625,0.0322,-37.75,-1.0625,-52.875,3.29,-3.69,stop,2
7.43,1668133.2716961,24,3,3,3,0,-848.0,3.02,-3.46,-0.01,-0.27,0.22,-0.41,-5.8125,-0.8125,501.125,0.6363525390625,0.53192138671875,-0.26947021484375,0.0322,-37.75,-1.0625,-52.875,3.29,-3.68,stop,2
7.44,1668133.2716961,24,3,3,3,0,-854.0,3.01,-3.54,-0.06,-0.28,0.12,-0.39,-6.0,-1.25,501.5,0.635986328125,0.5318603515625,-0.26983642578125,0.0322,-37.75,-1.0625,-52.9375,3.29,-3.67,stop,2
7.45,1668133.286097956,24,3,3,3,0,-862.0,3.07,-3.56,-0.14,-0.21,0.09,-0.33,-6.25,-1.1875,501.875,0.6356201171875,0.53173828125,-0.270263671875,0.0322,-37.75,-1.0625,-53.0,3.29,-3.66,stop,2
7.46,1668133.286097956,24,3,3,3,0,-868.0,3.1,-3.55,-0.19,-0.18,0.09,-0.25,-6.75,-1.4375,502.25,0.63525390625,0.53155517578125,-0.270751953125,0.0322,-37.75,-1.0625,-53.0,3.28,-3.65,stop,2
7.47,1668133.302724624,24,3,3,3,0,-864.0,3.17,-3.42,-0.15,-0.1,0.21,-0.15,-6.25,-2.0,502.5625,0.6348876953125,0.53143310546875,-0.271240234375,0.0319,-37.75,-2.25,-53.0625,3.28,-3.63,stop,2
7.48,1668133.302724624,24,3,3,3,0,-862.0,3.23,-3.36,-0.12,-0.04,0.26,-0.09,-5.5,-2.5625,502.875,0.63458251953125,0.5313720703125,-0.27166748046875,0.0319,-37.75,-2.25,-53.0625,3.28,-3.62,stop,2
7.49,1668133.332241754,24,3,3,3,0,-861.0,3.27,-3.33,-0.1,0.0,0.28,-0.17,-5.0,-3.0,503.125,0.63421630859375,0.53131103515625,-0.2720947265625,0.0319,-37.75,-2.25,-53.125,3.27,-3.61,stop,2
7.5,1668133.332241754,24,3,3,3,0,-866.0,3.3,-3.31,-0.15,0.03,0.28,-0.35,-5.3125,-3.4375,503.5,0.6337890625,0.53131103515625,-0.27252197265625,0.0319,-37.75,-2.25,-53.1875,3.27,-3.6,stop,2
7.51,1668133.346847711,24,3,3,3,0,-872.0,3.35,-3.38,-0.21,0.08,0.2,-0.49,-5.6875,-3.9375,503.9375,0.63323974609375,0.53131103515625,-0.27288818359375,0.0319,-37.75,-2.25,-53.1875,3.26,-3.59,stop,2
7.52,1668133.346847711,24,3,3,3,0,-873.0,3.37,-3.4,-0.2,0.1,0.17,-0.53,-5.8125,-4.0625,504.375,0.63275146484375,0.53131103515625,-0.27325439453125,0.0315,-37.375,-3.375,-53.25,3.26,-3.58,stop,2
7.53,1668133.379470067,24,3,3,3,0,-872.0,3.38,-3.42,-0.19,0.12,0.15,-0.48,-5.75,-4.0,504.8125,0.63226318359375,0.5313720703125,-0.273681640625,0.0315,-37.375,-3.375,-53.3125,3.26,-3.57,stop,2
7.54,1668133.379470067,24,3,3,3,0,-869.0,3.42,-3.46,-0.16,0.16,0.09,-0.45,-5.5,-4.1875,505.1875,0.63177490234375,0.5313720703125,-0.2740478515625,0.0315,-37.375,-3.375,-53.3125,3.25,-3.56,stop,2
7.55,1668133.391798314,24,3,3,3,0,-870.0,3.41,-3.4,-0.16,0.15,0.14,-0.4,-5.0,-3.9375,505.5625,0.63134765625,0.5313720703125,-0.27435302734375,0.0315,-37.375,-3.375,-53.375,3.25,-3.54,stop,2
7.56,1668133.391798314,24,3,3,3,0,-869.0,3.41,-3.34,-0.14,0.16,0.19,-0.38,-4.1875,-3.75,505.875,0.63092041015625,0.53143310546875,-0.274658203125,0.0315,-37.375,-3.375,-53.375,3.25,-3.54,stop,2
7.57,1668133.406241307,24,3,3,3,0,-866.0,3.43,-3.27,-0.11,0.18,0.25,-0.38,-3.0,-3.5,506.1875,0.63055419921875,0.531494140625,-0.27490234375,0.0326,-37.375,-1.75,-53.4375,3.24,-3.53,stop,2
7.58,1668133.406241307,24,3,3,3,0,-864.0,3.4,-3.18,-0.09,0.16,0.33,-0.36,-2.25,-3.1875,506.5,0.6302490234375,0.531494140625,-0.27508544921875,0.0326,-37.375,-1.75,-53.4375,3.24,-3.52,stop,2
7.59,1668133.421439508,24,3,3,3,0,-861.0,3.38,-3.16,-0.05,0.13,0.35,-0.35,-1.5625,-2.875,506.8125,0.6298828125,0.53155517578125,-0.27520751953125,0.0326,-37.375,-1.75,-53.4375,3.24,-3.51,stop,2
7.6,1668133.421439508,24,3,3,3,0,-858.0,3.36,-3.15,-0.02,0.12,0.35,-0.37,-1.5,-2.4375,507.125,0.62957763671875,0.53155517578125,-0.27532958984375,0.0326,-37.375,-1.75,-53.5,3.24,-3.5,stop,2
7.61,1668133.453440444,24,3,3,3,0,-857.0,3.37,-3.18,0.0,0.13,0.32,-0.4,-2.0,-2.25,507.5,0.6292724609375,0.53155517578125,-0.27545166015625,0.0326,-37.375,-1.75,-53.5,3.24,-3.5,stop,2
7.62,1668133.453440444,24,3,3,3,0,-859.0,3.36,-3.21,-0.02,0.11,0.27,-0.39,-2.5625,-1.875,507.875,0.62890625,0.531494140625,-0.27557373046875,0.0315,-37.75,-3.375,-53.5,3.24,-3.49,stop,2
7.63,1668133.466057469,24,3,3,3,0,-861.0,3.35,-3.26,-0.04,0.1,0.21,-0.39,-2.875,-1.75,508.25,0.628662109375,0.53143310546875,-0.27569580078125,0.0315,-37.75,-3.375,-53.5625,3.24,-3.48,stop,2
7.64,1668133.466057469,24,3,3,3,0,-862.0,3.34,-3.25,-0.04,0.1,0.21,-0.37,-3.1875,-1.5625,508.5625,0.62835693359375,0.5313720703125,-0.27587890625,0.0315,-37.75,-3.375,-53.5625,3.24,-3.47,stop,2
7.65,1668133.481797337,24,3,3,3,0,-864.0,3.34,-3.26,-0.06,0.1,0.2,-0.3,-3.125,-1.75,508.875,0.6280517578125,0.5313720703125,-0.27606201171875,0.0315,-37.75,-3.375,-53.5625,3.24,-3.46,stop,2
7.66,1668133.481797337,24,3,3,3,0,-866.0,3.34,-3.18,-0.07,0.1,0.27,-0.21,-2.6875,-1.75,509.1875,0.6278076171875,0.53131103515625,-0.2762451171875,0.0315,-37.75,-3.375,-53.625,3.24,-3.46,stop,2
7.67,1668133.512226333,24,3,3,3,0,-864.0,3.34,-3.13,-0.06,0.09,0.32,-0.12,-2.375,-1.8125,509.4375,0.62762451171875,0.53125,-0.27642822265625,0.0319,-37.375,-2.6875,-53.625,3.24,-3.45,stop,2
7.68,1668133.512226333,24,3,3,3,0,-862.0,3.31,-3.12,-0.03,0.07,0.32,-0.06,-2.0,-1.875,509.625,0.62738037109375,0.53118896484375,-0.27667236328125,0.0319,-37.375,-2.6875,-53.625,3.24,-3.44,stop,2
7.69,1668133.526641698,24,3,3,3,0,-860.0,3.34,-3.07,-0.01,0.1,0.36,-0.06,-2.1875,-1.6875,509.8125,0.627197265625,0.53106689453125,-0.27691650390625,0.0319,-37.375,-2.6875,-53.6875,3.24,-3.44,stop,2
7.7,1668133.526641698,24,3,3,3,0,-857.0,3.33,-3.08,0.02,0.09,0.34,-0.1,-2.8125,-1.6875,510.125,0.626953125,0.53094482421875,-0.27716064453125,0.0319,-37.375,-2.6875,-53.6875,3.23,-3.43,stop,2
7.71,1668133.556957249,24,3,3,3,0,-860.0,3.33,-3.14,0.0,0.09,0.28,-0.14,-3.6875,-1.6875,510.5,0.626708984375,0.53082275390625,-0.27740478515625,0.0319,-37.375,-2.6875,-53.75,3.23,-3.42,stop,2
7.72,1668133.556957249,24,3,3,3,0,-862.0,3.34,-3.19,-0.01,0.1,0.22,-0.15,-4.0625,-1.5,510.8125,0.62646484375,0.53070068359375,-0.2777099609375,0.0326,-37.375,-3.0,-53.75,3.23,-3.41,stop,2
7.73,1668133.572002497,24,3,3,3,0,-862.0,3.35,-3.23,-0.01,0.11,0.17,-0.14,-4.5625,-1.375,511.125,0.626220703125,0.530517578125,-0.2779541015625,0.0326,-37.375,-3.0,-53.75,3.23,-3.4,stop,2
7.74,1668133.572002497,24,3,3,3,0,-874.0,3.35,-3.3,-0.13,0.11,0.09,-0.14,-4.6875,-1.1875,511.4375,0.6259765625,0.5303955078125,-0.27825927734375,0.0326,-37.375,-3.0,-53.8125,3.23,-3.39,stop,2
7.75,1668133.587924616,24,3,3,3,0,-881.0,3.34,-3.28,-0.19,0.1,0.1,-0.09,-4.25,-0.875,511.75,0.62579345703125,0.53021240234375,-0.27850341796875,0.0326,-37.375,-3.0,-53.8125,3.23,-3.38,stop,2
7.76,1668133.587924616,24,3,3,3,0,-879.0,3.29,-3.27,-0.17,0.05,0.1,0.0,-3.0625,-0.75,511.875,0.6256103515625,0.53009033203125,-0.2786865234375,0.0326,-37.375,-3.0,-53.8125,3.23,-3.38,stop,2
7.77,1668133.602723322,24,3,3,3,0,-874.0,3.26,-3.22,-0.12,0.02,0.15,0.1,-2.1875,-0.6875,512.0,0.62554931640625,0.530029296875,-0.2789306640625,0.0315,-36.6875,-2.6875,-53.8125,3.23,-3.37,stop,2
7.78,1668133.602723322,24,3,3,3,0,-876.0,3.22,-3.21,-0.14,0.0,0.16,0.12,-1.5,-0.375,512.0625,0.62554931640625,0.5299072265625,-0.279052734375,0.0315,-36.6875,-2.6875,-53.875,3.23,-3.37,stop,2
7.79,1668133.633307021,24,3,3,3,0,-876.0,3.21,-3.23,-0.13,-0.01,0.13,0.1,-1.4375,-0.3125,512.125,0.62548828125,0.52978515625,-0.2791748046875,0.0315,-36.6875,-2.6875,-53.875,3.23,-3.37,stop,2
7.8,1668133.633307021,24,3,3,3,0,-875.0,3.22,-3.25,-0.13,-0.01,0.11,0.05,-1.25,-0.0625,512.1875,0.62542724609375,0.52972412109375,-0.279296875,0.0315,-36.6875,-2.6875,-53.875,3.23,-3.36,stop,2
7.81,1668133.646750218,24,3,3,3,0,-873.0,3.18,-3.23,-0.11,-0.05,0.13,0.09,-0.625,0.0,512.25,0.62542724609375,0.5296630859375,-0.27935791015625,0.0315,-36.6875,-2.6875,-53.875,3.23,-3.36,stop,2
7.82,1668133.646750218,24,3,3,3,0,-872.0,3.17,-3.24,-0.09,-0.05,0.12,0.19,-0.375,0.0,512.1875,0.62542724609375,0.5296630859375,-0.27947998046875,0.0315,-37.0,-3.0,-53.875,3.23,-3.36,stop,2
7.83,1668133.662000828,24,3,3,3,0,-871.0,3.17,-3.26,-0.08,-0.05,0.1,0.31,-0.0625,-0.125,512.125,0.62548828125,0.52960205078125,-0.27960205078125,0.0315,-37.0,-3.0,-53.875,3.23,-3.36,stop,2
7.84,1668133.662000828,24,3,3,3,0,-871.0,3.14,-3.24,-0.08,-0.08,0.12,0.36,-0.1875,-0.3125,512.0,0.6256103515625,0.529541015625,-0.27972412109375,0.0315,-37.0,-3.0,-53.875,3.22,-3.36,stop,2
7.85,1668133.691907567,24,3,3,3,0,-873.0,3.13,-3.28,-0.1,-0.09,0.08,0.38,-0.4375,-0.3125,511.875,0.62567138671875,0.52947998046875,-0.2799072265625,0.0315,-37.0,-3.0,-53.875,3.22,-3.36,stop,2
7.86,1668133.691907567,24,3,3,3,0,-872.0,3.11,-3.28,-0.09,-0.1,0.08,0.39,-0.25,-0.3125,511.75,0.625732421875,0.5294189453125,-0.280029296875,0.0315,-37.0,-3.0,-53.875,3.22,-3.36,stop,2
7.87,1668133.706301772,24,3,3,3,0,-875.0,3.11,-3.25,-0.12,-0.1,0.11,0.42,0.0,-0.375,511.625,0.62579345703125,0.52935791015625,-0.28021240234375,0.0315,-37.375,-3.0,-53.875,3.22,-3.37,stop,2
7.88,1668133.706301772,24,3,3,3,0,-875.0,3.1,-3.2,-0.12,-0.11,0.16,0.46,0.125,-0.25,511.5,0.62591552734375,0.52923583984375,-0.2803955078125,0.0315,-37.375,-3.0,-53.875,3.22,-3.37,stop,2
7.89,1668133.73809527,24,3,3,3,0,-876.0,3.09,-3.18,-0.13,-0.12,0.18,0.49,0.25,-0.125,511.375,0.6259765625,0.5291748046875,-0.2806396484375,0.0315,-37.375,-3.0,-53.875,3.21,-3.37,stop,2
7.9,1668133.73809527,24,3,3,3,0,-874.0,3.1,-3.17,-0.11,-0.1,0.2,0.5,0.0,0.0,511.25,0.62603759765625,0.52911376953125,-0.28082275390625,0.0315,-37.375,-3.0,-53.875,3.21,-3.37,stop,2
7.91,1668133.752458348,24,3,3,3,0,-873.0,3.11,-3.18,-0.1,-0.1,0.19,0.47,-0.125,0.1875,511.125,0.6260986328125,0.52899169921875,-0.28106689453125,0.0315,-37.375,-3.0,-53.9375,3.21,-3.37,stop,2
7.92,1668133.752458348,24,3,3,3,0,-872.0,3.1,-3.15,-0.09,-0.1,0.21,0.45,-0.1875,0.3125,511.0,0.62615966796875,0.5289306640625,-0.28125,0.0319,-37.6875,-4.5,-53.9375,3.21,-3.37,stop,2
7.93,1668133.766535822,24,3,3,3,0,-875.0,3.15,-3.13,-0.12,-0.04,0.23,0.45,-0.5,0.0625,510.875,0.626220703125,0.52886962890625,-0.281494140625,0.0319,-37.6875,-4.5,-53.9375,3.2,-3.37,stop,2
7.94,1668133.766535822,24,3,3,3,0,-876.0,3.17,-3.17,-0.13,-0.02,0.19,0.45,-0.5,0.0,510.75,0.6263427734375,0.52874755859375,-0.28167724609375,0.0319,-37.6875,-4.5,-53.9375,3.2,-3.37,stop,2
7.95,1668133.796572891,24,3,3,3,0,-875.0,3.19,-3.08,-0.11,0.0,0.28,0.45,-0.625,0.0,510.6875,0.6263427734375,0.52862548828125,-0.28192138671875,0.0319,-37.6875,-4.5,-53.9375,3.2,-3.36,stop,2
7.96,1668133.796572891,24,3,3,3,0,-872.0,3.21,-3.08,-0.09,0.01,0.27,0.46,-0.8125,0.0625,510.6875,0.62640380859375,0.52850341796875,-0.28216552734375,0.0319,-37.6875,-4.5,-53.9375,3.2,-3.36,stop,2
7.97,1668133.811928929,24,3,3,3,0,-872.0,3.19,-3.09,-0.09,0.0,0.26,0.45,-0.625,0.125,510.625,0.62646484375,0.5283203125,-0.2823486328125,0.0308,-37.25,-3.75,-53.9375,3.2,-3.36,stop,2
7.98,1668133.811928929,24,3,3,3,0,-874.0,3.18,-3.09,-0.1,-0.01,0.26,0.44,-0.625,0.375,510.5625,0.62652587890625,0.5281982421875,-0.2825927734375,0.0308,-37.25,-3.75,-53.9375,3.19,-3.36,stop,2
7.99,1668133.826550755,24,3,3,3,0,-872.0,3.19,-3.12,-0.08,0.0,0.23,0.43,-0.5625,0.625,510.5,0.6265869140625,0.528076171875,-0.28277587890625,0.0308,-37.25,-3.75,-53.9375,3.19,-3.36,stop,2
8.0,1668133.826550755,24,3,3,3,0,-876.0,3.17,-3.08,-0.12,-0.01,0.28,0.43,-0.5625,1.0625,510.5,0.626708984375,0.52783203125,-0.282958984375,0.0308,-37.25,-3.75,-53.9375,3.19,-3.36,stop,2
8.01,1668133.857335952,24,3,3,3,0,-875.0,3.21,-3.08,-0.11,0.01,0.27,0.42,-0.375,1.1875,510.5,0.6268310546875,0.5277099609375,-0.2830810546875,0.0308,-37.25,-3.75,-53.9375,3.19,-3.36,stop,2
8.02,1668133.857335952,24,3,3,3,0,-873.0,3.23,-3.07,-0.09,0.03,0.28,0.42,-0.4375,1.3125,510.4375,0.626953125,0.52752685546875,-0.283203125,0.033,-37.6875,-4.1875,-53.9375,3.19,-3.35,stop,2
8.03,1668133.872062311,24,3,3,3,0,-877.0,3.28,-3.11,-0.13,0.08,0.24,0.4,-0.4375,1.625,510.4375,0.6270751953125,0.52728271484375,-0.2833251953125,0.033,-37.6875,-4.1875,-53.9375,3.2,-3.35,stop,2
8.04,1668133.872062311,24,3,3,3,0,-879.0,3.33,-3.17,-0.15,0.12,0.18,0.41,-0.25,1.9375,510.4375,0.627197265625,0.527099609375,-0.28338623046875,0.033,-37.6875,-4.1875,-53.9375,3.2,-3.35,stop,2
8.05,1668133.887959691,24,3,3,3,0,-877.0,3.33,-3.13,-0.13,0.12,0.22,0.4,0.0,2.25,510.5,0.62738037109375,0.52685546875,-0.283447265625,0.033,-37.6875,-4.1875,-53.9375,3.2,-3.35,stop,2
8.06,1668133.887959691,24,3,3,3,0,-874.0,3.34,-3.08,-0.1,0.13,0.26,0.43,0.4375,2.25,510.5,0.6275634765625,0.52655029296875,-0.28350830078125,0.033,-37.6875,-4.1875,-53.9375,3.2,-3.35,stop,2
8.07,1668133.917170059,24,3,3,3,0,-874.0,3.3,-3.02,-0.1,0.09,0.33,0.39,1.3125,2.5625,510.5,0.62774658203125,0.5263671875,-0.283447265625,0.0333,-37.25,-4.5,-53.9375,3.21,-3.35,stop,2
8.08,1668133.917170059,24,3,3,3,0,-868.0,3.22,-2.96,-0.05,0.0,0.39,0.35,2.1875,2.875,510.5,0.6279296875,0.526123046875,-0.28338623046875,0.0333,-37.25,-4.5,-53.9375,3.21,-3.35,stop,2
8.09,1668133.932412002,24,3,3,3,0,-868.0,3.15,-3.01,-0.05,-0.06,0.34,0.37,1.875,2.875,510.5,0.62811279296875,0.52593994140625,-0.28338623046875,0.0333,-37.25,-4.5,-53.9375,3.21,-3.35,stop,2
8.1,1668133.932412002,24,3,3,3,0,-872.0,3.15,-3.1,-0.09,-0.07,0.24,0.35,1.25,3.25,510.5,0.62835693359375,0.5257568359375,-0.2833251953125,0.0333,-37.25,-4.5,-53.9375,3.22,-3.35,stop,2
8.11,1668133.946530003,24,3,3,3,0,-874.0,3.12,-3.17,-0.11,-0.1,0.18,0.38,0.1875,3.25,510.5,0.6285400390625,0.52545166015625,-0.28338623046875,0.0333,-37.25,-4.5,-53.9375,3.22,-3.35,stop,2
8.12,1668133.946530003,24,3,3,3,0,-873.0,3.14,-3.09,-0.1,-0.08,0.26,0.41,0.3125,3.0625,510.5,0.62872314453125,0.52520751953125,-0.283447265625,0.033,-37.25,-2.25,-53.9375,3.22,-3.35,stop,2
8.13,1668133.977663345,24,3,3,3,0,-869.0,3.11,-2.96,-0.06,-0.11,0.39,0.46,1.0625,2.625,510.5,0.62890625,0.5250244140625,-0.28350830078125,0.033,-37.25,-2.25,-53.875,3.22,-3.35,stop,2
8.14,1668133.977663345,24,3,3,3,0,-863.0,3.09,-2.91,0.0,-0.13,0.43,0.4,2.125,2.375,510.4375,0.6290283203125,0.52484130859375,-0.28350830078125,0.033,-37.25,-2.25,-53.875,3.23,-3.35,stop,2
8.15,1668133.991647761,24,3,3,3,0,-866.0,3.1,-2.98,-0.03,-0.12,0.37,0.31,1.6875,2.125,510.375,0.629150390625,0.52471923828125,-0.2835693359375,0.033,-37.25,-2.25,-53.875,3.23,-3.35,stop,2
8.16,1668133.991647761,24,3,3,3,0,-869.0,3.1,-3.07,-0.06,-0.12,0.27,0.14,0.375,2.125,510.5,0.629150390625,0.5245361328125,-0.28363037109375,0.033,-37.25,-2.25,-53.875,3.23,-3.35,stop,2
8.17,1668134.006473159,24,3,3,3,0,-872.0,3.14,-3.14,-0.09,-0.09,0.2,0.12,-0.0625,2.0625,510.625,0.62921142578125,0.5244140625,-0.28369140625,0.0319,-37.25,-3.0,-53.875,3.23,-3.35,stop,2
8.18,1668134.006473159,24,3,3,3,0,-876.0,3.14,-3.17,-0.13,-0.09,0.17,0.16,0.0625,2.125,510.625,0.6292724609375,0.52423095703125,-0.28375244140625,0.0319,-37.25,-3.0,-53.875,3.23,-3.35,stop,2
8.19,1668134.038501887,24,3,3,3,0,-875.0,3.14,-3.23,-0.12,-0.09,0.11,0.21,0.4375,1.875,510.6875,0.62939453125,0.52410888671875,-0.2838134765625,0.0319,-37.25,-3.0,-53.875,3.23,-3.34,stop,2
8.2,1668134.038501887,24,3,3,3,0,-878.0,3.15,-3.24,-0.15,-0.08,0.1,0.24,0.5625,1.75,510.625,0.62945556640625,0.52398681640625,-0.2838134765625,0.0319,-37.25,-3.0,-53.875,3.23,-3.34,stop,2
8.21,1668134.066751968,24,3,3,3,0,-879.0,3.17,-3.22,-0.16,-0.06,0.12,0.27,0.375,1.5,510.625,0.62957763671875,0.52386474609375,-0.28387451171875,0.0319,-37.25,-3.0,-53.875,3.24,-3.34,stop,2
8.22,1668134.066751968,24,3,3,3,0,-877.0,3.18,-3.18,-0.14,-0.05,0.16,0.29,0.5625,1.1875,510.5625,0.62969970703125,0.52374267578125,-0.283935546875,0.0322,-37.6875,-4.1875,-53.875,3.24,-3.34,stop,2
8.23,1668134.072221572,24,3,3,3,0,-878.0,3.21,-3.15,-0.15,-0.02,0.19,0.3,0.625,0.875,510.5,0.6297607421875,0.523681640625,-0.28399658203125,0.0322,-37.6875,-4.1875,-53.875,3.24,-3.35,stop,2
8.24,1668134.072221572,24,3,3,3,0,-876.0,3.19,-3.15,-0.13,-0.04,0.19,0.3,0.875,0.625,510.375,0.62982177734375,0.52362060546875,-0.28411865234375,0.0322,-37.6875,-4.1875,-53.875,3.23,-3.35,stop,2
8.25,1668134.097472468,24,3,3,3,0,-875.0,3.21,-3.13,-0.12,-0.02,0.21,0.27,0.75,0.5625,510.3125,0.62994384765625,0.5235595703125,-0.2841796875,0.0322,-37.6875,-4.1875,-53.875,3.23,-3.35,stop,2
8.26,1668134.097472468,24,3,3,3,0,-876.0,3.22,-3.19,-0.13,-0.01,0.15,0.26,0.625,0.5625,510.25,0.6300048828125,0.52349853515625,-0.28424072265625,0.0322,-37.6875,-4.1875,-53.875,3.23,-3.35,stop,2
8.27,1668134.111842178,24,3,3,3,0,-874.0,3.21,-3.19,-0.11,-0.02,0.16,0.26,0.375,0.5625,510.25,0.63006591796875,0.52337646484375,-0.2843017578125,0.0319,-37.6875,-3.0,-53.875,3.23,-3.35,stop,2
8.28,1668134.111842178,24,3,3,3,0,-875.0,3.24,-3.18,-0.12,0.0,0.17,0.29,0.75,0.6875,510.125,0.630126953125,0.5233154296875,-0.28436279296875,0.0319,-37.6875,-3.0,-53.875,3.23,-3.35,stop,2
8.29,1668134.126091812,24,3,3,3,0,-873.0,3.22,-3.19,-0.11,-0.01,0.15,0.32,1.0,0.8125,510.0625,0.6302490234375,0.52325439453125,-0.284423828125,0.0319,-37.6875,-3.0,-53.875,3.23,-3.35,stop,2
8.3,1668134.126091812,24,3,3,3,0,-875.0,3.23,-3.16,-0.13,0.0,0.19,0.35,1.25,1.0,509.9375,0.63037109375,0.523193359375,-0.284423828125,0.0319,-37.6875,-3.0,-53.875,3.23,-3.35,stop,2
8.31,1668134.157631159,24,3,3,3,0,-873.0,3.25,-3.17,-0.11,0.01,0.18,0.37,1.5625,1.1875,509.8125,0.63055419921875,0.5230712890625,-0.284423828125,0.0319,-37.6875,-3.0,-53.875,3.23,-3.35,stop,2
8.32,1668134.157631159,24,3,3,3,0,-872.0,3.22,-3.13,-0.09,-0.01,0.22,0.38,1.8125,1.1875,509.6875,0.6307373046875,0.52301025390625,-0.284423828125,0.0319,-37.25,-3.75,-53.875,3.23,-3.36,stop,2
8.33,1668134.173568456,24,3,3,3,0,-870.0,3.23,-3.15,-0.08,0.0,0.21,0.34,2.125,1.1875,509.5625,0.630859375,0.52294921875,-0.284423828125,0.0319,-37.25,-3.75,-53.875,3.23,-3.36,stop,2
8.34,1668134.173568456,24,3,3,3,0,-867.0,3.22,-3.15,-0.05,-0.01,0.21,0.28,2.125,1.125,509.4375,0.63104248046875,0.52294921875,-0.28436279296875,0.0319,-37.25,-3.75,-53.875,3.24,-3.36,stop,2
8.35,1668134.186318496,24,3,3,3,0,-869.0,3.23,-3.15,-0.06,0.0,0.21,0.21,1.8125,1.25,509.3125,0.63116455078125,0.52288818359375,-0.2843017578125,0.0319,-37.25,-3.75,-53.875,3.24,-3.36,stop,2
8.36,1668134.186318496,24,3,3,3,0,-871.0,3.23,-3.15,-0.09,0.0,0.21,0.18,1.4375,1.25,509.3125,0.6312255859375,0.5228271484375,-0.28424072265625,0.0319,-37.25,-3.75,-53.8125,3.24,-3.37,stop,2
8.37,1668134.21748024,24,3,3,3,0,-874.0,3.24,-3.14,-0.12,0.0,0.22,0.2,1.8125,1.1875,509.25,0.63134765625,0.52276611328125,-0.28424072265625,0.0319,-37.25,-3.75,-53.8125,3.24,-3.37,stop,2
8.38,1668134.21748024,24,3,3,3,0,-869.0,3.27,-3.17,-0.07,0.02,0.19,0.25,1.9375,1.0625,509.125,0.6314697265625,0.52276611328125,-0.2841796875,0.0319,-37.25,-3.75,-53.8125,3.24,-3.37,stop,2
8.39,1668134.232212824,24,3,3,3,0,-867.0,3.26,-3.16,-0.05,0.01,0.21,0.21,2.125,0.6875,509.0625,0.631591796875,0.522705078125,-0.28411865234375,0.0319,-37.25,-3.75,-53.8125,3.24,-3.37,stop,2
8.4,1668134.232212824,24,3,3,3,0,-868.0,3.26,-3.16,-0.06,0.01,0.21,0.15,2.375,0.625,508.9375,0.6317138671875,0.52276611328125,-0.2840576171875,0.0319,-37.25,-3.75,-53.8125,3.24,-3.37,stop,2
8.41,1668134.246452367,24,3,3,3,0,-867.0,3.21,-3.13,-0.05,-0.02,0.24,0.11,2.6875,0.6875,508.875,0.63177490234375,0.52276611328125,-0.283935546875,0.0319,-37.25,-3.75,-53.8125,3.24,-3.38,stop,2
8.42,1668134.246452367,24,3,3,3,0,-861.0,3.18,-3.17,0.0,-0.06,0.21,0.09,2.75,0.6875,508.75,0.63189697265625,0.5228271484375,-0.2838134765625,0.0315,-37.1875,-1.75,-53.8125,3.24,-3.38,stop,2
8.43,1668134.279980606,24,3,3,3,0,-857.0,3.19,-3.22,0.03,-0.04,0.16,0.07,2.125,0.375,508.6875,0.63189697265625,0.52288818359375,-0.28375244140625,0.0315,-37.1875,-1.75,-53.8125,3.24,-3.38,stop,2
8.44,1668134.279980606,24,3,3,3,0,-858.0,3.17,-3.3,0.02,-0.06,0.08,0.03,1.3125,0.375,508.6875,0.63189697265625,0.52294921875,-0.28369140625,0.0315,-37.1875,-1.75,-53.8125,3.24,-3.38,stop,2
8.45,1668134.291810155,24,3,3,3,0,-855.0,3.09,-3.22,0.05,-0.15,0.16,0.0,1.1875,0.1875,508.625,0.63189697265625,0.52301025390625,-0.28363037109375,0.0315,-37.1875,-1.75,-53.8125,3.24,-3.38,stop,2
8.46,1668134.291810155,24,3,3,3,0,-842.0,3.05,-3.22,0.18,-0.19,0.16,0.02,2.25,0.0,508.5625,0.6319580078125,0.5230712890625,-0.2835693359375,0.0315,-37.1875,-1.75,-53.75,3.24,-3.39,stop,2
8.47,1668134.307097305,24,3,3,3,0,-821.0,3.01,-3.14,0.39,-0.23,0.24,0.04,2.8125,-0.1875,508.4375,0.6319580078125,0.523193359375,-0.283447265625,0.0319,-37.5625,-3.375,-53.75,3.24,-3.39,stop,2
8.48,1668134.307097305,24,3,3,3,0,-821.0,3.01,-3.14,0.39,-0.23,0.24,0.04,2.8125,-0.1875,508.4375,0.6319580078125,0.523193359375,-0.283447265625,0.0319,-37.5625,-3.375,-53.75,3.24,-3.39,stop,2
8.48,1668134.322278864,24,3,3,3,0,-800.0,2.94,-3.1,0.6,-0.3,0.29,-0.05,3.375,0.0625,508.25,0.632080078125,0.52337646484375,-0.28326416015625,0.0319,-37.5625,-3.375,-53.75,3.24,-3.4,stop,2
8.49,1668134.322278864,24,3,3,3,0,-788.0,2.67,-3.17,0.72,-0.57,0.22,-0.41,3.25,1.0,508.3125,0.632080078125,0.52349853515625,-0.28289794921875,0.0319,-37.5625,-3.375,-53.75,3.24,-3.4,stop,2
8.5,1668134.337569473,24,3,3,3,0,-786.0,2.49,-3.2,0.73,-0.76,0.19,-0.91,2.625,2.1875,508.5625,0.6319580078125,0.52362060546875,-0.28240966796875,0.0319,-37.5625,-3.375,-53.75,3.25,-3.4,stop,2
8.51,1668134.337569473,24,3,3,3,0,-783.0,2.24,-3.2,0.76,-1.01,0.19,-1.41,2.1875,3.625,509.0625,0.6318359375,0.52374267578125,-0.28173828125,0.0319,-37.5625,-3.375,-53.6875,3.26,-3.4,stop,2
8.52,1668134.367454198,24,3,3,3,0,-760.0,1.92,-3.11,0.98,-1.35,0.28,-1.77,2.625,5.25,509.6875,0.63165283203125,0.52386474609375,-0.2808837890625,0.0315,-36.5,-3.375,-53.6875,3.28,-3.4,stop,2
8.53,1668134.367454198,24,3,3,3,0,-699.0,1.25,-2.49,1.59,-2.03,0.9,-1.96,3.8125,7.125,510.375,0.63153076171875,0.52392578125,-0.27978515625,0.0315,-36.5,-3.375,-53.625,3.29,-3.39,stop,2
8.54,1668134.381312312,24,3,3,3,0,-668.0,0.88,-2.03,1.89,-2.43,1.36,-2.12,3.8125,9.0,511.1875,0.6314697265625,0.52392578125,-0.278564453125,0.0315,-36.5,-3.375,-53.5625,3.31,-3.39,stop,2
8.55,1668134.381312312,24,3,3,3,0,-635.0,0.44,-1.59,2.21,-2.89,1.79,-2.44,2.125,10.625,512.1875,0.63128662109375,0.5238037109375,-0.27728271484375,0.0315,-36.5,-3.375,-53.5625,3.34,-3.39,stop,2
8.56,1668134.396482518,24,3,3,3,0,-602.0,0.12,-1.32,2.53,-3.24,2.05,-2.75,-2.625,12.0,513.625,0.63104248046875,0.5234375,-0.276123046875,0.0315,-36.5,-3.375,-53.5,3.37,-3.37,stop,2
8.57,1668134.396482518,24,3,3,3,0,-527.0,-0.19,-0.99,3.28,-3.59,2.35,-2.84,-10.0625,12.75,515.375,0.630615234375,0.522705078125,-0.27532958984375,0.0308,-36.75,-3.0,-53.5,3.4,-3.35,stop,2
8.58,1668134.42824619,24,3,3,3,0,-496.0,-0.16,-0.89,3.6,-3.6,2.41,-2.7,-18.3125,13.5,517.5,0.6300048828125,0.52154541015625,-0.2750244140625,0.0308,-36.75,-3.0,-53.5,3.43,-3.31,stop,2
8.59,1668134.42824619,24,3,3,3,0,-441.0,0.0,-1.01,4.16,-3.46,2.25,-2.71,-26.8125,13.875,520.0625,0.6292724609375,0.52001953125,-0.27508544921875,0.0308,-36.75,-3.0,-53.5625,3.46,-3.26,stop,2
8.6,1668134.441605402,24,3,3,3,0,-284.0,1.78,-1.8,5.73,-1.71,1.38,-2.56,-37.875,14.6875,523.125,0.6282958984375,0.5179443359375,-0.27581787109375,0.0308,-36.75,-3.0,-53.625,3.49,-3.19,stop,2
8.61,1668134.441605402,24,3,3,3,0,-202.0,2.69,-2.38,6.58,-0.82,0.73,-1.66,-52.3125,16.0625,526.5,0.62725830078125,0.51495361328125,-0.27752685546875,0.0308,-36.75,-3.0,-53.75,3.52,-3.11,stop,2
8.62,1668134.456293716,24,3,3,3,0,-143.0,3.51,-3.0,7.2,-0.03,0.0,-0.27,-68.25,19.125,530.1875,0.62640380859375,0.5108642578125,-0.28033447265625,0.0315,-37.5625,-3.0,-53.9375,3.55,-3.0,stop,2
8.63,1668134.456293716,24,3,3,3,0,-122.0,4.23,-3.54,7.42,0.64,-0.65,0.44,-79.8125,22.375,534.25,0.62554931640625,0.5059814453125,-0.2838134765625,0.0315,-37.5625,-3.0,-54.0625,3.58,-2.88,stop,2
8.64,1668134.487067642,24,3,3,3,0,-317.0,5.61,-4.07,5.5,1.99,-1.3,0.88,-80.9375,24.875,538.1875,0.6248779296875,0.50079345703125,-0.28729248046875,0.0315,-37.5625,-3.0,-54.25,3.61,-2.76,stop,2
8.65,1668134.487067642,24,3,3,3,0,-520.0,6.14,-3.93,3.49,2.48,-1.26,2.3,-73.875,26.6875,541.375,0.62481689453125,0.49554443359375,-0.29071044921875,0.0315,-37.5625,-3.0,-54.375,3.65,-2.66,stop,2
8.66,1668134.501861669,24,3,3,3,0,-765.0,6.36,-3.76,1.05,2.68,-1.17,4.26,-56.125,26.875,543.0625,0.62579345703125,0.49078369140625,-0.293701171875,0.0315,-37.5625,-3.0,-54.375,3.68,-2.59,stop,2
8.67,1668134.501861669,24,3,3,3,0,-983.0,6.46,-3.87,-1.12,2.76,-1.3,5.13,-30.5625,24.6875,543.25,0.62750244140625,0.48724365234375,-0.29559326171875,0.0315,-38.25,-6.0625,-54.375,3.7,-2.57,stop,2
8.68,1668134.516205988,24,3,3,3,0,-1481.0,8.23,-5.19,-6.12,4.51,-2.6,5.69,-2.25,22.5625,541.9375,0.63006591796875,0.48492431640625,-0.29620361328125,0.0315,-38.25,-6.0625,-54.3125,3.72,-2.59,stop,2
8.69,1668134.516205988,24,3,3,3,0,-1621.0,9.56,-6.06,-7.54,5.82,-3.41,5.87,17.875,23.3125,539.75,0.63323974609375,0.4835205078125,-0.295654296875,0.0315,-38.25,-6.0625,-54.1875,3.74,-2.64,stop,2
8.7,1668134.562012344,24,3,3,3,0,-1725.0,11.0,-7.82,-8.61,7.23,-5.12,5.02,24.375,26.625,537.5625,0.63641357421875,0.48236083984375,-0.29443359375,0.0315,-38.25,-6.0625,-54.0,3.76,-2.7,stop,2
8.71,1668134.562012344,24,3,3,3,0,-1931.0,13.32,-9.83,-10.7,9.51,-7.09,2.93,16.1875,30.1875,536.625,0.63897705078125,0.48095703125,-0.2928466796875,0.0315,-38.25,-6.0625,-53.8125,3.8,-2.73,stop,2
8.72,1668134.567526545,24,3,3,3,0,-3185.0,14.87,-6.55,-23.25,11.03,-3.82,1.68,-8.625,30.8125,537.25,0.6405029296875,0.47857666015625,-0.2923583984375,0.032,-37.5625,-6.5,-53.6875,3.84,-2.73,stop,2
8.73,1668134.567526545,24,3,3,3,0,-2997.0,14.23,-1.8,-21.37,10.36,0.91,3.28,-21.125,16.375,537.375,0.6416015625,0.47613525390625,-0.29364013671875,0.032,-37.5625,-6.5,-53.6875,3.86,-2.71,stop,2
8.74,1668134.575885839,24,3,3,3,0,-2395.0,11.78,-0.69,-15.32,7.96,2.0,6.9,-32.6875,-14.0,535.9375,0.64215087890625,0.47430419921875,-0.29791259765625,0.032,-37.5625,-6.5,-53.875,3.82,-2.69,stop,2
8.75,1668134.575885839,24,3,3,3,0,-1703.0,7.43,-3.47,-8.37,3.68,-0.8,6.9,-29.5625,-33.0625,533.8125,0.6419677734375,0.47369384765625,-0.3028564453125,0.032,-37.5625,-6.5,-54.0625,3.75,-2.67,stop,2
8.76,1668134.591103449,24,3,3,3,0,-1703.0,7.43,-3.47,-8.37,3.68,-0.8,6.9,-29.5625,-33.0625,533.8125,0.6419677734375,0.47369384765625,-0.3028564453125,0.032,-37.5625,-6.5,-54.0625,3.75,-2.67,stop,2
8.76,1668134.591103449,24,3,3,3,0,-1560.0,6.63,-5.12,-6.9,2.95,-2.48,5.63,-35.5,-35.0,532.375,0.64117431640625,0.47308349609375,-0.307861328125,0.032,-37.5625,-6.5,-54.3125,3.68,-2.64,stop,2
8.77,1668134.606304703,24,3,3,3,0,-1494.0,6.41,-4.73,-6.21,2.79,-2.13,6.1,-49.25,-30.875,531.4375,0.64031982421875,0.4715576171875,-0.3135986328125,0.0313,-37.5625,-6.5,-54.5625,3.61,-2.59,stop,2
8.78,1668134.606304703,24,3,3,3,0,-1412.0,5.58,-4.16,-5.35,2.02,-1.58,5.05,-25.4375,-28.125,529.9375,0.639892578125,0.4710693359375,-0.31756591796875,0.0313,-37.5625,-6.5,-54.75,3.56,-2.57,stop,2
8.79,1668134.639086034,24,3,3,3,0,-1168.0,3.35,-2.61,-2.91,-0.15,0.01,2.85,23.125,-27.1875,527.1875,0.64019775390625,0.47314453125,-0.3182373046875,0.0313,-37.5625,-6.5,-54.8125,3.51,-2.62,stop,2
8.8,1668134.639086034,24,3,3,3,0,-1019.0,2.05,-2.23,-1.43,-1.41,0.47,0.66,51.0,-27.25,524.0,0.64068603515625,0.476806640625,-0.3167724609375,0.0313,-37.5625,-6.5,-54.75,3.46,-2.7,stop,2
8.81,1668134.651583796,24,3,3,3,0,-857.0,1.03,-2.22,0.18,-2.39,0.55,-1.36,51.9375,-28.625,521.4375,0.6405029296875,0.48095703125,-0.31475830078125,0.0313,-37.5625,-6.5,-54.6875,3.42,-2.77,stop,2
8.82,1668134.651583796,24,3,3,3,0,-749.0,0.3,-2.35,1.26,-3.09,0.47,-2.61,37.125,-27.9375,520.0,0.6396484375,0.484619140625,-0.313232421875,0.0313,-38.0,-7.1875,-54.6875,3.39,-2.82,stop,2
8.83,1668134.666603734,24,3,3,3,0,-611.0,-0.64,-2.19,2.64,-4.0,0.64,-3.37,17.6875,-24.625,519.75,0.63812255859375,0.4873046875,-0.31243896484375,0.0313,-38.0,-7.1875,-54.75,3.36,-2.83,stop,2
8.84,1668134.666603734,24,3,3,3,0,-508.0,-0.69,-1.98,3.68,-4.04,0.84,-3.79,3.375,-23.625,520.3125,0.63616943359375,0.48944091796875,-0.31231689453125,0.0313,-38.0,-7.1875,-54.8125,3.34,-2.82,stop,2
8.85,1668134.696781753,24,3,3,3,0,-407.0,-0.47,-1.68,4.71,-3.79,1.13,-4.24,-0.3125,-24.4375,521.1875,0.63397216796875,0.49151611328125,-0.312255859375,0.0313,-38.0,-7.1875,-54.875,3.31,-2.81,stop,2
8.86,1668134.696781753,24,3,3,3,0,-332.0,0.02,-1.47,5.47,-3.26,1.34,-4.98,10.0,-25.375,521.75,0.63177490234375,0.49420166015625,-0.31146240234375,0.0313,-38.0,-7.1875,-54.9375,3.29,-2.81,stop,2
8.87,1668134.71189829,24,3,3,3,0,-182.0,0.63,-0.84,6.97,-2.63,1.98,-6.1,26.5,-29.75,521.9375,0.62945556640625,0.498046875,-0.3096923828125,0.0305,-37.6875,-5.6875,-55.0,3.26,-2.82,stop,2
8.88,1668134.71189829,24,3,3,3,0,-108.0,0.63,-0.48,7.71,-2.6,2.37,-7.49,39.3125,-36.125,521.8125,0.62689208984375,0.5030517578125,-0.30712890625,0.0305,-37.6875,-5.6875,-55.0,3.23,-2.86,stop,2
8.89,1668134.72700323,24,3,3,3,0,-51.0,0.35,-0.26,8.28,-2.84,2.64,-8.5,50.8125,-43.6875,521.3125,0.62396240234375,0.50909423828125,-0.303955078125,0.0305,-37.6875,-5.6875,-55.0,3.19,-2.91,stop,2
8.9,1668134.72700323,24,3,3,3,0,-4.0,0.21,-0.05,8.75,-2.93,2.91,-8.96,58.3125,-51.25,520.375,0.62066650390625,0.51593017578125,-0.300537109375,0.0305,-37.6875,-5.6875,-55.0,3.14,-2.97,stop,2
8.91,1668134.758672256,24,3,3,3,0,134.0,-0.47,0.57,10.14,-3.56,3.6,-8.29,56.5625,-58.75,519.0,0.6171875,0.52294921875,-0.2977294921875,0.0305,-37.6875,-5.6875,-55.0,3.08,-3.02,stop,2
8.92,1668134.758672256,24,3,3,3,0,207.0,-0.49,1.34,10.88,-3.49,4.43,-6.66,52.875,-67.9375,517.0,0.61358642578125,0.530029296875,-0.2960205078125,0.0333,-36.75,-5.6875,-55.0625,2.99,-3.08,stop,2
8.93,1668134.77152683,24,3,3,3,0,289.0,-0.41,2.43,11.71,-3.31,5.58,-5.51,52.625,-76.0625,514.375,0.60992431640625,0.53729248046875,-0.294921875,0.0333,-36.75,-5.6875,-55.125,2.9,-3.15,stop,2
8.94,1668134.77152683,24,3,3,3,0,525.0,-0.37,3.54,14.08,-3.17,6.77,-5.77,61.0,-79.5,511.3125,0.60614013671875,0.54510498046875,-0.29345703125,0.0333,-36.75,-5.6875,-55.125,2.79,-3.22,stop,2
8.95,1668134.787729914,24,3,3,3,0,545.0,-0.8,3.36,14.27,-3.51,6.69,-7.77,81.9375,-72.125,508.0625,0.6026611328125,0.55364990234375,-0.28997802734375,0.0333,-36.75,-5.6875,-55.0625,2.71,-3.32,stop,2
8.96,1668134.787729914,24,3,3,3,0,463.0,-1.03,2.58,13.42,-3.69,6.02,-10.42,90.6875,-57.625,505.5625,0.59930419921875,0.562255859375,-0.2845458984375,0.0333,-36.75,-5.6875,-54.875,2.66,-3.43,stop,2
8.97,1668134.826579157,24,3,3,3,0,228.0,-1.1,1.59,11.04,-3.77,5.11,-13.74,76.8125,-35.375,505.375,0.59576416015625,0.56951904296875,-0.27783203125,0.0322,-36.0625,-4.5,-54.6875,2.66,-3.51,stop,2
8.98,1668134.826579157,24,3,3,3,0,-188.0,-1.58,-0.84,6.85,-4.28,2.7,-16.29,55.125,-14.5625,507.625,0.5919189453125,0.5750732421875,-0.2705078125,0.0322,-36.0625,-4.5,-54.5625,2.7,-3.55,stop,2
8.99,1668134.833290502,24,3,3,3,0,-440.0,-0.29,-0.84,4.3,-3.06,2.71,-15.96,34.6875,2.8125,511.1875,0.58856201171875,0.5787353515625,-0.2635498046875,0.0322,-36.0625,-4.5,-54.375,2.77,-3.55,stop,2
9.0,1668134.833290502,24,3,3,3,0,-797.0,1.88,-2.16,0.71,-0.96,1.37,-13.38,15.6875,20.0625,515.25,0.58624267578125,0.580322265625,-0.2576904296875,0.0322,-36.0625,-4.5,-54.25,2.85,-3.53,stop,2
9.01,1668134.846300593,24,3,3,3,0,-1338.0,4.39,-3.07,-4.7,1.45,0.41,-10.18,-17.3125,35.5625,520.25,0.5848388671875,0.5791015625,-0.2537841796875,0.0322,-36.0625,-4.5,-54.25,2.94,-3.48,stop,2
9.02,1668134.846300593,24,3,3,3,0,-1338.0,4.39,-3.07,-4.7,1.45,0.41,-10.18,-17.3125,35.5625,520.25,0.5848388671875,0.5791015625,-0.2537841796875,0.0322,-36.0625,-4.5,-54.25,2.94,-3.48,stop,2
9.03,1668134.861314468,24,3,3,3,0,-2018.0,10.35,-16.28,-11.41,7.33,-13.08,-7.7,-168.1875,30.4375,532.125,0.58050537109375,0.57110595703125,-0.258544921875,0.0314,-34.75,-3.75,-54.75,3.02,-3.19,stop,2
9.03,1668134.861314468,24,3,3,3,0,-1541.0,9.46,-24.36,-6.57,6.37,-21.44,-7.7,-168.1875,30.4375,543.8125,0.575927734375,0.56298828125,-0.26324462890625,0.0314,-34.75,-3.75,-55.1875,3.09,-2.91,stop,2
9.04,1668134.87594431,24,3,3,3,0,-2963.0,12.66,-23.01,-20.7,9.46,-20.53,-16.33,-241.6875,35.5,561.9375,0.5672607421875,0.55218505859375,-0.26861572265625,0.0314,-34.75,-3.75,-55.8125,3.19,-2.48,stop,2
9.05,1668134.87594431,24,3,3,3,0,-3739.0,14.89,-11.06,-28.47,11.63,-8.59,-8.56,9.5625,25.875,564.75,0.566162109375,0.5526123046875,-0.26434326171875,0.0314,-34.75,-3.75,-55.6875,3.25,-2.47,stop,2
9.06,1668134.907697566,24,3,3,3,0,-2857.0,8.92,3.04,-19.72,5.67,5.72,7.17,121.9375,5.3125,556.5625,0.57135009765625,0.55712890625,-0.26019287109375,0.0314,-34.75,-3.75,-55.3125,3.24,-2.68,stop,2
9.07,1668134.907697566,24,3,3,3,0,-2278.0,5.91,2.62,-13.9,2.71,5.28,5.64,-30.375,-15.25,555.875,0.57159423828125,0.5556640625,-0.26416015625,0.031,-35.1875,-9.5,-55.4375,3.2,-2.65,stop,2
9.08,1668134.921346329,24,3,3,3,0,-1913.0,4.17,-0.86,-10.23,1.0,1.76,5.64,-30.375,-15.25,555.25,0.57183837890625,0.55419921875,-0.26806640625,0.031,-35.1875,-9.5,-55.625,3.16,-2.63,stop,2
9.09,1668134.921346329,24,3,3,3,0,-1486.0,4.64,-6.08,-5.92,1.5,-3.55,8.13,-86.125,-3.8125,556.8125,0.572021484375,0.549072265625,-0.2750244140625,0.031,-35.1875,-9.5,-55.875,3.13,-2.52,stop,2
9.1,1668134.936730728,24,3,3,3,0,-1291.0,4.22,-6.74,-3.92,1.1,-4.35,11.25,-110.0625,8.875,558.75,0.5731201171875,0.54168701171875,-0.283447265625,0.031,-35.1875,-9.5,-56.125,3.12,-2.39,stop,2
9.11,1668134.936730728,24,3,3,3,0,-1172.0,3.71,-7.32,-2.7,0.59,-5.06,10.84,-106.4375,14.6875,560.8125,0.57440185546875,0.5341796875,-0.29119873046875,0.031,-35.1875,-9.5,-56.3125,3.11,-2.26,stop,2
9.12,1668134.967238866,24,3,3,3,0,-1091.0,3.41,-6.56,-1.91,0.28,-4.26,11.54,-0.8125,22.5,557.6875,0.578857421875,0.53118896484375,-0.29351806640625,0.033,-35.75,-6.0625,-56.25,3.12,-2.29,stop,2
9.13,1668134.967238866,24,3,3,3,0,-842.0,2.63,-3.11,0.55,-0.5,-0.71,11.88,37.375,26.1875,552.75,0.58453369140625,0.52972412109375,-0.2938232421875,0.033,-35.75,-6.0625,-56.0625,3.13,-2.39,stop,2
9.14,1668134.981107641,24,3,3,3,0,-732.0,2.26,-1.62,1.61,-0.88,0.9,10.66,58.375,30.1875,547.25,0.590576171875,0.52923583984375,-0.29248046875,0.033,-35.75,-6.0625,-55.8125,3.15,-2.52,stop,2
9.15,1668134.981107641,24,3,3,3,0,-582.0,1.59,-1.06,3.06,-1.58,1.58,8.91,56.125,35.75,542.5625,0.59625244140625,0.528564453125,-0.29052734375,0.033,-35.75,-6.0625,-55.5625,3.18,-2.64,stop,2
9.16,1668134.996735855,24,3,3,3,0,-484.0,0.87,-0.62,3.99,-2.35,2.1,7.67,39.1875,42.5625,539.25,0.60137939453125,0.52691650390625,-0.2886962890625,0.033,-35.75,-6.0625,-55.25,3.22,-2.73,stop,2
9.17,1668134.996735855,24,3,3,3,0,-396.0,0.29,-0.12,4.84,-2.98,2.67,6.61,23.9375,45.5625,537.0625,0.60595703125,0.52459716796875,-0.2872314453125,0.0326,-35.75,-7.6875,-55.0625,3.27,-2.79,stop,2
9.18,1668135.027194717,24,3,3,3,0,-367.0,0.13,0.05,5.1,-3.19,2.88,6.29,9.6875,43.6875,535.5625,0.61004638671875,0.521728515625,-0.2864990234375,0.0326,-35.75,-7.6875,-54.875,3.32,-2.83,stop,2
9.19,1668135.027194717,24,3,3,3,0,-288.0,0.37,0.72,5.87,-2.98,3.57,6.27,-5.0625,38.9375,534.6875,0.61346435546875,0.5184326171875,-0.28680419921875,0.0326,-35.75,-7.6875,-54.75,3.36,-2.84,stop,2
9.2,1668135.041955297,24,3,3,3,0,-222.0,0.38,0.91,6.52,-3.0,3.76,7.22,-16.375,34.1875,533.8125,0.61663818359375,0.5147705078125,-0.28814697265625,0.0326,-35.75,-7.6875,-54.625,3.39,-2.84,stop,2
9.21,1668135.041955297,24,3,3,3,0,-129.0,0.28,0.85,7.44,-3.12,3.7,8.88,-20.6875,26.8125,532.375,0.61981201171875,0.510986328125,-0.29052734375,0.0326,-35.75,-7.6875,-54.625,3.4,-2.84,stop,2
9.22,1668135.057985285,24,3,3,3,0,-94.0,0.45,0.39,7.79,-2.94,3.26,11.25,-16.875,16.6875,529.6875,0.62335205078125,0.50750732421875,-0.2938232421875,0.0334,-36.75,-5.0,-54.625,3.39,-2.86,stop,2
9.23,1668135.057985285,24,3,3,3,0,-40.0,0.41,0.36,8.33,-2.94,3.26,13.12,-8.1875,4.75,525.625,0.62701416015625,0.5047607421875,-0.29766845703125,0.0334,-36.75,-5.0,-54.625,3.36,-2.9,stop,2
9.24,1668135.087217789,24,3,3,3,0,32.0,0.12,0.38,9.06,-3.18,3.33,13.99,-0.125,-8.0625,520.4375,0.63055419921875,0.5029296875,-0.3018798828125,0.0334,-36.75,-5.0,-54.625,3.3,-2.95,stop,2
9.25,1668135.087217789,24,3,3,3,0,35.0,-0.24,0.45,9.11,-3.47,3.45,14.55,-2.0625,-20.6875,514.875,0.63360595703125,0.5015869140625,-0.306884765625,0.0334,-36.75,-5.0,-54.6875,3.22,-3.0,stop,2
9.26,1668135.101333267,24,3,3,3,0,84.0,-0.41,0.86,9.63,-3.55,3.89,14.99,-11.9375,-27.9375,509.3125,0.6361083984375,0.50006103515625,-0.3128662109375,0.0334,-36.75,-5.0,-54.875,3.13,-3.03,stop,2
9.27,1668135.101333267,24,3,3,3,0,147.0,-0.34,1.3,10.27,-3.39,4.37,14.04,-7.1875,-25.75,503.875,0.63861083984375,0.498779296875,-0.3182373046875,0.0328,-36.0,-5.0,-54.9375,3.05,-3.07,stop,2
9.28,1668135.116407323,24,3,3,3,0,76.0,0.93,1.7,9.55,-2.05,4.83,10.01,18.1875,-14.5625,499.0625,0.64117431640625,0.49859619140625,-0.320556640625,0.0328,-36.0,-5.0,-54.9375,2.99,-3.13,stop,2
9.29,1668135.116407323,24,3,3,3,0,76.0,0.93,1.7,9.55,-2.05,4.83,10.01,18.1875,-14.5625,499.0625,0.64117431640625,0.49859619140625,-0.320556640625,0.0328,-36.0,-5.0,-54.9375,2.99,-3.13,stop,2
9.29,1668135.131420548,24,3,3,3,0,-103.0,1.09,1.34,7.72,-1.88,4.56,4.56,50.625,4.75,495.3125,0.64398193359375,0.49969482421875,-0.31878662109375,0.0328,-36.0,-5.0,-54.75,2.98,-3.22,stop,2
9.3,1668135.131420548,24,3,3,3,0,-323.0,1.27,0.98,5.47,-1.75,4.31,-0.26,68.1875,29.4375,493.1875,0.6470947265625,0.5009765625,-0.3135986328125,0.0328,-36.0,-5.0,-54.4375,3.03,-3.32,stop,2
9.31,1668135.146691625,24,3,3,3,0,-641.0,1.79,-0.23,2.23,-1.33,3.17,-2.13,58.5,57.5,492.9375,0.65057373046875,0.50054931640625,-0.30731201171875,0.0328,-36.0,-5.0,-54.0,3.12,-3.4,stop,2
9.32,1668135.146691625,24,3,3,3,0,-1654.0,4.15,-2.59,-7.94,0.91,0.82,-2.09,11.375,68.0625,495.0625,0.6533203125,0.49749755859375,-0.30322265625,0.0324,-36.75,-4.5,-53.75,3.23,-3.41,stop,2
9.33,1668135.177617528,24,3,3,3,0,-1608.0,5.79,-11.09,-7.46,2.47,-7.8,1.48,-90.875,58.6875,500.125,0.65380859375,0.49005126953125,-0.30633544921875,0.0324,-36.75,-4.5,-53.875,3.31,-3.28,stop,2
9.34,1668135.177617528,24,3,3,3,0,-1460.0,12.63,-17.37,-5.86,9.22,-14.51,2.85,-288.25,63.0,513.25,0.64935302734375,0.4735107421875,-0.32073974609375,0.0324,-36.75,-4.5,-54.625,3.4,-2.86,stop,2
9.35,1668135.19207399,24,3,3,3,0,-2259.0,11.96,-19.92,-13.8,8.47,-17.32,-6.54,-151.1875,40.3125,523.125,0.64495849609375,0.46575927734375,-0.3258056640625,0.0324,-36.75,-4.5,-54.875,3.48,-2.6,stop,2
9.36,1668135.19207399,24,3,3,3,0,-2934.0,14.19,-6.81,-20.56,10.72,-4.17,4.24,17.5625,-0.125,520.875,0.6466064453125,0.46575927734375,-0.325927734375,0.0324,-36.75,-4.5,-54.8125,3.47,-2.64,stop,2
9.37,1668135.206596003,24,3,3,3,0,-2508.0,12.53,-1.37,-16.3,9.1,1.36,2.69,51.625,-26.75,516.9375,0.64776611328125,0.46905517578125,-0.3248291015625,0.0317,-37.1875,-3.375,-54.8125,3.42,-2.73,moving,2
9.38,1668135.206596003,24,3,3,3,0,-2174.0,8.91,1.33,-12.96,5.53,4.1,-3.04,28.625,-34.125,515.875,0.64630126953125,0.4727783203125,-0.32391357421875,0.0317,-37.1875,-3.375,-54.8125,3.38,-2.77,moving,2
9.39,1668135.237597305,24,3,3,3,0,-1961.0,5.64,0.56,-10.83,2.28,3.34,-6.0,15.9375,-27.9375,516.5625,0.64398193359375,0.47613525390625,-0.32269287109375,0.0317,-37.1875,-3.375,-54.875,3.35,-2.77,moving,2
9.4,1668135.237597305,24,3,3,3,0,-1462.0,4.49,-3.76,-5.82,1.15,-1.03,-3.6,-16.6875,-20.4375,517.9375,0.64166259765625,0.4771728515625,-0.3236083984375,0.0317,-37.1875,-3.375,-55.0,3.33,-2.73,moving,2
9.41,1668135.251623184,24,3,3,3,0,-1234.0,4.63,-4.44,-3.51,1.31,-1.76,-3.32,-22.375,-17.375,519.625,0.639404296875,0.47772216796875,-0.32476806640625,0.0317,-37.1875,-3.375,-55.125,3.32,-2.68,moving,2
9.42,1668135.251623184,24,3,3,3,0,-1054.0,4.06,-4.97,-1.71,0.75,-2.29,-5.71,10.3125,-17.1875,520.6875,0.63739013671875,0.48016357421875,-0.323486328125,0.032,-36.5,-5.6875,-55.1875,3.31,-2.68,moving,2
9.43,1668135.266631567,24,3,3,3,0,-843.0,2.4,-4.68,0.38,-0.89,-1.97,-8.01,40.9375,-19.625,521.25,0.63543701171875,0.4844970703125,-0.3199462890625,0.032,-36.5,-5.6875,-55.125,3.3,-2.71,moving,2
9.44,1668135.266631567,24,3,3,3,0,-716.0,1.66,-4.06,1.64,-1.63,-1.29,-9.1,54.5,-23.8125,521.4375,0.6334228515625,0.48980712890625,-0.3155517578125,0.032,-36.5,-5.6875,-55.0625,3.29,-2.76,moving,2
9.45,1668135.296915624,24,3,3,3,0,-586.0,1.32,-3.45,2.92,-1.95,-0.63,-9.93,61.25,-27.4375,521.4375,0.63116455078125,0.4957275390625,-0.31072998046875,0.032,-36.5,-5.6875,-54.9375,3.28,-2.82,moving,2
9.46,1668135.296915624,24,3,3,3,0,-453.0,0.98,-2.72,4.24,-2.28,0.16,-10.89,63.9375,-29.9375,521.625,0.6285400390625,0.50201416015625,-0.30560302734375,0.032,-36.5,-5.6875,-54.875,3.27,-2.88,moving,2
9.47,1668135.31207045,24,3,3,3,0,-283.0,0.62,-1.63,5.93,-2.63,1.29,-11.67,55.75,-32.875,522.3125,0.6253662109375,0.50823974609375,-0.30078125,0.032,-36.875,-5.0,-54.8125,3.25,-2.92,moving,2
9.48,1668135.31207045,24,3,3,3,0,-202.0,0.75,-0.98,6.74,-2.48,1.96,-11.99,41.0625,-34.0625,523.6875,0.62158203125,0.51385498046875,-0.2967529296875,0.032,-36.875,-5.0,-54.8125,3.24,-2.95,moving,2
9.49,1668135.326329361,24,3,3,3,0,-149.0,1.09,-0.53,7.28,-2.13,2.41,-11.85,26.0,-32.25,525.75,0.61749267578125,0.5186767578125,-0.29345703125,0.032,-36.875,-5.0,-54.8125,3.23,-2.94,moving,2
9.5,1668135.326329361,24,3,3,3,0,-101.0,1.22,-0.04,7.77,-2.0,2.87,-11.67,13.0625,-29.0,528.375,0.61322021484375,0.522705078125,-0.29071044921875,0.032,-36.875,-5.0,-54.875,3.22,-2.92,moving,2
9.51,1668135.356146866,24,3,3,3,0,-31.0,0.87,0.39,8.48,-2.35,3.28,-11.57,2.625,-26.625,531.5,0.60882568359375,0.52606201171875,-0.2884521484375,0.032,-36.875,-5.0,-54.9375,3.22,-2.89,moving,2
9.52,1668135.356146866,24,3,3,3,0,-11.0,0.41,0.54,8.69,-2.79,3.39,-11.19,-3.125,-26.5,534.75,0.60430908203125,0.529052734375,-0.28662109375,0.0321,-35.5625,-4.1875,-55.0625,3.21,-2.84,moving,2
9.53,1668135.388302017,24,3,3,3,0,-5.0,0.14,0.91,8.77,-3.06,3.72,-10.82,-1.3125,-29.5625,537.6875,0.599853515625,0.53228759765625,-0.284912109375,0.0321,-35.5625,-4.1875,-55.1875,3.2,-2.8,moving,2
9.54,1668135.388302017,24,3,3,3,0,-1.0,0.25,1.3,8.83,-2.92,4.09,-10.98,11.125,-35.75,539.9375,0.59527587890625,0.53631591796875,-0.28277587890625,0.0321,-35.5625,-4.1875,-55.25,3.18,-2.78,moving,2
9.55,1668135.393943578,24,3,3,3,0,136.0,0.61,1.58,10.21,-2.53,4.37,-11.14,27.0625,-39.75,541.3125,0.59088134765625,0.54132080078125,-0.2799072265625,0.0321,-35.5625,-4.1875,-55.3125,3.15,-2.78,moving,2
9.56,1668135.393943578,24,3,3,3,0,188.0,0.58,1.46,10.73,-2.54,4.27,-11.18,41.6875,-37.75,542.0625,0.58685302734375,0.54693603515625,-0.27618408203125,0.0321,-35.5625,-4.1875,-55.3125,3.13,-2.81,moving,2
9.57,1668135.416608048,24,3,3,3,0,199.0,0.5,1.18,10.84,-2.61,4.03,-11.18,46.625,-29.1875,542.6875,0.5833740234375,0.55224609375,-0.27178955078125,0.0329,-36.375,-6.0625,-55.25,3.12,-2.84,moving,2
9.58,1668135.416608048,24,3,3,3,0,199.0,0.5,1.18,10.84,-2.61,4.03,-11.18,46.625,-29.1875,542.6875,0.5833740234375,0.55224609375,-0.27178955078125,0.0329,-36.375,-6.0625,-55.25,3.12,-2.84,moving,2
9.59,1668135.422594579,24,3,3,3,0,32.0,0.29,0.38,9.16,-2.83,3.26,-10.92,41.1875,-14.9375,543.875,0.5804443359375,0.5565185546875,-0.26708984375,0.0329,-36.375,-6.0625,-55.1875,3.13,-2.87,moving,2
9.6,1668135.422594579,24,3,3,3,0,-173.0,0.59,0.14,7.08,-2.57,3.03,-10.55,34.1875,0.0,545.5625,0.57818603515625,0.5595703125,-0.26214599609375,0.0329,-36.375,-6.0625,-55.125,3.16,-2.89,moving,2
9.6,1668135.447166397,24,3,3,3,0,-366.0,1.06,-0.25,5.13,-2.15,2.65,-9.83,31.5,13.1875,547.4375,0.57666015625,0.561767578125,-0.2569580078125,0.0329,-36.375,-6.0625,-54.9375,3.21,-2.9,moving,2
9.61,1668135.447166397,24,3,3,3,0,-604.0,2.16,-1.41,2.72,-1.11,1.5,-7.44,24.625,25.5,549.1875,0.5762939453125,0.56268310546875,-0.252197265625,0.0329,-36.375,-6.0625,-54.75,3.27,-2.91,moving,2
9.62,1668135.461562597,24,3,3,3,0,-1458.0,6.18,-2.74,-5.82,2.83,0.13,-4.88,-11.25,33.5625,552.125,0.5762939453125,0.56109619140625,-0.24969482421875,0.0317,-35.5,-4.375,-54.6875,3.34,-2.88,moving,2
9.63,1668135.461562597,24,3,3,3,0,-1597.0,8.35,-8.49,-7.19,4.95,-5.75,-2.0,-89.625,33.8125,558.0,0.57537841796875,0.55548095703125,-0.25201416015625,0.0317,-35.5,-4.375,-54.875,3.4,-2.73,moving,2
9.64,1668135.477000585,24,3,3,3,0,-1335.0,11.0,-16.44,-4.51,7.52,-14.04,-3.21,-209.0625,48.5625,570.375,0.57208251953125,0.54339599609375,-0.2591552734375,0.0317,-35.5,-4.375,-55.25,3.48,-2.4,moving,2
9.65,1668135.477000585,24,3,3,3,0,-1535.0,10.16,-21.07,-6.5,6.55,-18.85,-10.52,-98.3125,57.125,579.8125,0.5693359375,0.5372314453125,-0.25811767578125,0.0317,-35.5,-4.375,-55.25,3.6,-2.21,moving,2
9.66,1668135.507360367,24,3,3,3,0,-3030.0,12.34,-9.79,-21.5,8.68,-7.5,4.27,40.9375,45.3125,577.5,0.57373046875,0.536376953125,-0.25506591796875,0.0317,-35.5,-4.375,-55.0,3.66,-2.29,moving,2
9.68,1668135.507360367,24,3,3,3,0,-2701.0,11.24,-2.46,-18.24,7.57,-0.05,10.0,51.625,21.9375,572.3125,0.5789794921875,0.53643798828125,-0.25433349609375,0.032,-35.5,-6.0,-54.75,3.67,-2.41,moving,2
9.68,1668135.521994767,24,3,3,3,0,-2355.0,8.27,2.8,-14.79,4.61,5.26,7.27,6.125,9.0,569.875,0.58172607421875,0.5352783203125,-0.25567626953125,0.032,-35.5,-6.0,-54.6875,3.66,-2.45,moving,2
9.69,1668135.521994767,24,3,3,3,0,-2135.0,5.86,2.75,-12.58,2.19,5.18,4.29,-25.9375,5.3125,569.8125,0.58270263671875,0.53314208984375,-0.25799560546875,0.032,-35.5,-6.0,-54.75,3.66,-2.42,moving,2
9.7,1668135.55258579,24,3,3,3,0,-1830.0,4.27,-2.15,-9.51,0.61,0.2,6.04,-58.1875,8.5625,570.8125,0.58367919921875,0.52899169921875,-0.26226806640625,0.032,-35.5,-6.0,-54.875,3.65,-2.36,moving,2
9.71,1668135.55258579,24,3,3,3,0,-1695.0,4.93,-3.93,-8.13,1.28,-1.66,9.12,-87.875,10.5625,572.1875,0.58489990234375,0.52288818359375,-0.26885986328125,0.032,-35.5,-6.0,-55.0625,3.65,-2.26,moving,2
9.72,1668135.566519262,24,3,3,3,0,-1603.0,5.15,-5.57,-7.18,1.5,-3.4,9.47,-84.1875,9.5,573.25,0.586181640625,0.516845703125,-0.27532958984375,0.0322,-34.875,-5.5625,-55.25,3.64,-2.17,moving,2
9.73,1668135.566519262,24,3,3,3,0,-1390.0,3.47,-6.99,-5.05,-0.16,-4.86,8.73,-47.1875,9.375,572.8125,0.588134765625,0.51275634765625,-0.27978515625,0.0322,-34.875,-5.5625,-55.3125,3.63,-2.13,moving,2
9.74,1668135.582672908,24,3,3,3,0,-1283.0,2.79,-6.35,-3.98,-0.83,-4.18,8.9,-3.75,8.6875,570.25,0.5911865234375,0.5107421875,-0.281982421875,0.0322,-34.875,-5.5625,-55.25,3.63,-2.16,moving,2
9.76,1668135.582672908,24,3,3,3,0,-1172.0,2.63,-5.06,-2.89,-0.98,-2.81,8.68,32.0625,7.0625,566.0625,0.59490966796875,0.5106201171875,-0.28240966796875,0.0322,-34.875,-5.5625,-55.1875,3.62,-2.24,moving,2
9.76,1668135.612147517,24,3,3,3,0,-1075.0,2.57,-3.87,-1.94,-1.03,-1.52,7.78,47.375,7.875,561.5,0.5987548828125,0.51129150390625,-0.28173828125,0.0322,-34.875,-5.5625,-55.0,3.61,-2.35,moving,2
9.77,1668135.612147517,24,3,3,3,0,-819.0,2.08,-1.62,0.58,-1.53,0.82,6.53,47.375,10.1875,557.375,0.60235595703125,0.51202392578125,-0.28057861328125,0.0312,-34.875,-8.6875,-54.875,3.61,-2.45,moving,2
9.78,1668135.62690297,24,3,3,3,0,-700.0,1.72,-1.28,1.74,-1.88,1.25,5.84,43.25,13.0625,553.75,0.605712890625,0.51251220703125,-0.27935791015625,0.0312,-34.875,-8.6875,-54.6875,3.61,-2.54,moving,2
9.79,1668135.62690297,24,3,3,3,0,-574.0,1.57,-0.85,2.98,-2.04,1.74,5.84,28.375,16.3125,550.875,0.60882568359375,0.5120849609375,-0.2786865234375,0.0312,-34.875,-8.6875,-54.5625,3.62,-2.6,moving,2
9.8,1668135.641764786,24,3,3,3,0,-465.0,1.48,-0.4,4.05,-2.15,2.24,6.0,15.8125,18.6875,548.5625,0.61181640625,0.51092529296875,-0.27862548828125,0.0312,-34.875,-8.6875,-54.4375,3.63,-2.65,moving,2
9.81,1668135.641764786,24,3,3,3,0,-283.0,1.32,0.08,5.85,-2.32,2.77,6.39,9.75,19.625,546.4375,0.61480712890625,0.50933837890625,-0.27899169921875,0.0312,-34.875,-8.6875,-54.3125,3.64,-2.69,moving,2
9.82,1668135.65800323,24,3,3,3,0,-218.0,1.23,0.17,6.49,-2.41,2.89,7.28,1.4375,18.6875,544.3125,0.6177978515625,0.50732421875,-0.280029296875,0.0329,-36.0,-5.5625,-54.25,3.65,-2.72,moving,2
9.83,1668135.65800323,24,3,3,3,0,-218.0,1.23,0.17,6.49,-2.41,2.89,7.28,1.4375,18.6875,544.3125,0.6177978515625,0.50732421875,-0.280029296875,0.0329,-36.0,-5.5625,-54.25,3.65,-2.72,moving,2
9.84,1668135.671575089,24,3,3,3,0,-135.0,1.11,0.28,7.31,-2.53,3.02,8.55,-9.375,14.5625,542.125,0.62066650390625,0.5047607421875,-0.2822265625,0.0329,-36.0,-5.5625,-54.1875,3.65,-2.74,moving,2
9.85,1668135.671575089,24,3,3,3,0,-38.0,1.15,0.43,8.29,-2.47,3.2,10.44,-15.9375,9.3125,539.4375,0.62371826171875,0.501953125,-0.28558349609375,0.0329,-36.0,-5.5625,-54.1875,3.63,-2.76,moving,2
9.85,1668135.703343725,24,3,3,3,0,65.0,1.53,0.34,9.34,-2.06,3.13,12.13,-17.0,2.875,536.0625,0.62689208984375,0.49908447265625,-0.2896728515625,0.0329,-36.0,-5.5625,-54.25,3.6,-2.78,moving,2
9.86,1668135.703343725,24,3,3,3,0,126.0,1.48,0.13,9.96,-2.06,2.94,13.28,-19.8125,-4.4375,532.125,0.62994384765625,0.496337890625,-0.2945556640625,0.0329,-36.0,-5.5625,-54.3125,3.55,-2.8,moving,2
9.87,1668135.717052628,24,3,3,3,0,187.0,1.31,0.16,10.59,-2.18,2.98,14.53,-25.375,-10.3125,527.875,0.6329345703125,0.493408203125,-0.30035400390625,0.0329,-35.5625,-3.6875,-54.4375,3.49,-2.82,moving,2
9.88,1668135.717052628,24,3,3,3,0,247.0,1.2,0.53,11.21,-2.22,3.37,15.21,-28.9375,-11.6875,523.4375,0.63592529296875,0.490234375,-0.3065185546875,0.0329,-35.5625,-3.6875,-54.5625,3.42,-2.83,moving,2
9.9,1668135.732054947,24,3,3,3,0,232.0,1.11,0.83,11.08,-2.26,3.68,14.59,-26.6875,-6.375,519.25,0.63897705078125,0.4869384765625,-0.31219482421875,0.0329,-35.5625,-3.6875,-54.6875,3.37,-2.85,moving,2
9.91,1668135.732054947,24,3,3,3,0,188.0,1.18,0.92,10.63,-2.16,3.8,12.18,-10.125,5.625,515.4375,0.642333984375,0.48406982421875,-0.31573486328125,0.0329,-35.5625,-3.6875,-54.6875,3.34,-2.88,moving,2
9.92,1668135.764341202,24,3,3,3,0,51.0,1.14,0.84,9.24,-2.2,3.78,8.75,16.6875,22.3125,512.25,0.6461181640625,0.4820556640625,-0.31610107421875,0.0329,-35.5625,-3.6875,-54.5625,3.35,-2.93,moving,2
9.93,1668135.764341202,24,3,3,3,0,-385.0,1.45,0.33,4.83,-1.94,3.35,5.06,39.4375,40.5,509.8125,0.6502685546875,0.4805908203125,-0.3134765625,0.032,-36.1875,-4.375,-54.3125,3.39,-3.01,moving,2
9.93,1668135.776763484,24,3,3,3,0,-702.0,2.14,-0.08,1.6,-1.32,3.0,2.97,42.0,58.875,508.625,0.65472412109375,0.47857666015625,-0.30926513671875,0.032,-36.1875,-4.375,-53.9375,3.47,-3.09,moving,2
9.94,1668135.776763484,24,3,3,3,0,-1220.0,3.56,-0.63,-3.62,0.0,2.49,2.51,16.625,70.1875,508.875,0.65875244140625,0.474853515625,-0.305908203125,0.032,-36.1875,-4.375,-53.625,3.57,-3.12,moving,2
9.95,1668135.791239721,24,3,3,3,0,-1755.0,4.57,-2.14,-8.99,0.91,0.93,2.56,-40.3125,67.6875,511.5,0.6611328125,0.46875,-0.30596923828125,0.032,-36.1875,-4.375,-53.5,3.66,-3.07,moving,2
9.96,1668135.791239721,24,3,3,3,0,-1458.0,9.75,-18.91,-5.97,6.02,-16.07,7.68,-175.5,61.6875,517.625,0.6610107421875,0.45623779296875,-0.3153076171875,0.032,-36.1875,-4.375,-53.8125,3.73,-2.84,moving,2
9.98,1668135.807340958,24,3,3,3,0,-2099.0,11.33,-20.09,-12.32,7.51,-17.55,0.03,-201.125,58.3125,527.375,0.65765380859375,0.44390869140625,-0.32427978515625,0.0328,-36.1875,-2.1875,-54.125,3.82,-2.54,moving,2
9.99,1668135.807340958,24,3,3,3,0,-2660.0,11.5,-12.46,-17.94,7.66,-9.92,4.81,-10.9375,18.625,526.625,0.659423828125,0.44146728515625,-0.3251953125,0.0328,-36.1875,-2.1875,-54.0625,3.83,-2.54,moving,2
10.0,1668135.838693009,24,3,3,3,0,-2456.0,14.04,-3.92,-15.91,10.25,-1.28,9.94,35.4375,-9.125,521.25,0.66290283203125,0.44183349609375,-0.32598876953125,0.0328,-36.1875,-2.1875,-54.0,3.79,-2.64,moving,2
10.01,1668135.838693009,24,3,3,3,0,-2018.0,11.18,1.22,-11.52,7.43,3.89,4.38,1.8125,-20.25,518.9375,0.66339111328125,0.44232177734375,-0.32781982421875,0.0328,-36.1875,-2.1875,-54.125,3.75,-2.66,moving,2
10.01,1668135.85309458,24,3,3,3,0,-1877.0,8.05,-0.66,-10.09,4.34,1.95,0.26,-25.75,-21.4375,519.25,0.661865234375,0.4423828125,-0.330322265625,0.0328,-36.1875,-2.1875,-54.25,3.71,-2.62,moving,2
10.02,1668135.85309458,24,3,3,3,0,-1818.0,6.7,-3.81,-9.46,3.01,-1.24,1.89,-38.625,-17.6875,519.5625,0.66064453125,0.44134521484375,-0.333740234375,0.0317,-35.25,-6.0,-54.4375,3.68,-2.57,moving,2
10.03,1668135.866467423,24,3,3,3,0,-1703.0,6.12,-5.85,-8.29,2.48,-3.32,4.59,-41.5625,-18.125,518.9375,0.65997314453125,0.439697265625,-0.33807373046875,0.0317,-35.25,-6.0,-54.625,3.64,-2.52,moving,2
10.04,1668135.866467423,24,3,3,3,0,-1419.0,5.07,-7.14,-5.42,1.48,-4.6,4.71,-7.625,-21.6875,516.875,0.66021728515625,0.43975830078125,-0.340576171875,0.0317,-35.25,-6.0,-54.75,3.59,-2.53,moving,2
10.05,1668135.896671362,24,3,3,3,0,-1327.0,4.14,-6.34,-4.51,0.59,-3.74,3.27,32.9375,-26.375,513.5625,0.66107177734375,0.44207763671875,-0.340576171875,0.0317,-35.25,-6.0,-54.75,3.54,-2.59,moving,2
10.07,1668135.896671362,24,3,3,3,0,-1174.0,3.53,-5.38,-2.99,0.03,-2.68,0.97,59.75,-31.4375,509.8125,0.66192626953125,0.44635009765625,-0.3387451171875,0.0317,-35.25,-6.0,-54.6875,3.49,-2.69,moving,2
10.08,1668135.911516943,24,3,3,3,0,-895.0,2.33,-3.24,-0.21,-1.11,-0.44,-1.44,71.5,-33.9375,506.5,0.66229248046875,0.45166015625,-0.33575439453125,0.032,-36.0,-6.375,-54.625,3.45,-2.79,moving,2
10.09,1668135.911516943,24,3,3,3,0,-765.0,1.9,-2.52,1.07,-1.49,0.36,-3.47,69.625,-35.125,503.875,0.66204833984375,0.45733642578125,-0.33233642578125,0.032,-36.0,-6.375,-54.5,3.4,-2.89,moving,2
10.09,1668135.92725913,24,3,3,3,0,-765.0,1.9,-2.52,1.07,-1.49,0.36,-3.47,69.625,-35.125,503.875,0.66204833984375,0.45733642578125,-0.33233642578125,0.032,-36.0,-6.375,-54.5,3.4,-2.89,moving,2
10.1,1668135.92725913,24,3,3,3,0,-633.0,1.6,-1.72,2.38,-1.76,1.23,-4.82,57.3125,-34.25,502.3125,0.6610107421875,0.462646484375,-0.32928466796875,0.032,-36.0,-6.375,-54.4375,3.37,-2.96,moving,2
10.1,1668135.956969783,24,3,3,3,0,-548.0,1.31,-1.37,3.22,-2.02,1.63,-5.85,44.8125,-32.875,501.625,0.659423828125,0.46746826171875,-0.32666015625,0.032,-36.0,-6.375,-54.4375,3.34,-3.0,moving,2
10.11,1668135.956969783,24,3,3,3,0,-384.0,0.96,-0.66,4.86,-2.35,2.36,-6.66,27.1875,-30.0625,502.0625,0.65716552734375,0.4715576171875,-0.32464599609375,0.032,-36.0,-6.375,-54.4375,3.31,-3.02,moving,2
10.12,1668135.961961319,24,3,3,3,0,-318.0,0.91,-0.27,5.53,-2.38,2.74,-7.74,18.0,-25.875,503.375,0.654541015625,0.47515869140625,-0.32269287109375,0.0331,-34.875,-4.0625,-54.5,3.3,-3.02,moving,2
10.14,1668135.961961319,24,3,3,3,0,-295.0,1.11,-0.2,5.77,-2.18,2.81,-9.36,20.0625,-22.1875,505.25,0.65167236328125,0.47894287109375,-0.320068359375,0.0331,-34.875,-4.0625,-54.5,3.29,-3.02,moving,2
10.15,1668135.987810441,24,3,3,3,0,-281.0,1.11,-0.36,5.9,-2.18,2.64,-10.93,19.875,-22.1875,507.75,0.6483154296875,0.48297119140625,-0.3170166015625,0.0331,-34.875,-4.0625,-54.5,3.3,-3.01,moving,2
10.16,1668135.987810441,24,3,3,3,0,-218.0,0.43,-0.44,6.55,-2.86,2.55,-12.52,19.25,-26.5,510.6875,0.64434814453125,0.48748779296875,-0.31378173828125,0.0331,-34.875,-4.0625,-54.5625,3.3,-2.99,moving,2
10.17,1668136.001259374,24,3,3,3,0,-156.0,0.06,-0.38,7.17,-3.23,2.59,-14.01,23.5625,-33.5,513.75,0.6397705078125,0.49273681640625,-0.3101806640625,0.0331,-34.875,-4.0625,-54.625,3.29,-2.98,moving,2
10.18,1668136.001259374,24,3,3,3,0,-97.0,-0.24,-0.39,7.77,-3.53,2.58,-14.92,33.625,-41.75,516.375,0.634765625,0.49908447265625,-0.30609130859375,0.032,-34.875,-2.875,-54.625,3.28,-2.98,moving,2
10.18,1668136.031404028,24,3,3,3,0,-51.0,-0.56,-0.52,8.24,-3.81,2.46,-14.98,41.875,-51.3125,518.4375,0.6295166015625,0.5062255859375,-0.30194091796875,0.032,-34.875,-2.875,-54.6875,3.25,-2.99,moving,2
10.2,1668136.031404028,24,3,3,3,0,23.0,-0.99,-0.32,8.99,-4.19,2.68,-14.44,43.625,-62.4375,519.8125,0.6239013671875,0.513916015625,-0.29833984375,0.032,-34.875,-2.875,-54.75,3.2,-3.0,moving,2
10.2,1668136.046672623,24,3,3,3,0,58.0,-1.23,-0.03,9.36,-4.37,2.99,-13.72,46.4375,-71.3125,520.5,0.6180419921875,0.5220947265625,-0.29510498046875,0.032,-34.875,-2.875,-54.875,3.14,-3.03,moving,2
10.22,1668136.046672623,24,3,3,3,0,72.0,-1.33,0.22,9.52,-4.4,3.29,-13.13,52.0625,-73.5625,520.625,0.61236572265625,0.53045654296875,-0.291748046875,0.032,-34.875,-2.875,-54.9375,3.07,-3.06,moving,2
10.23,1668136.06243125,24,3,3,3,0,56.0,-1.05,0.98,9.36,-4.06,4.1,-12.59,63.125,-67.5,520.125,0.60736083984375,0.538818359375,-0.2877197265625,0.0338,-34.375,-3.25,-54.9375,3.0,-3.12,moving,2
10.24,1668136.06243125,24,3,3,3,0,-11.0,-0.66,1.13,8.66,-3.63,4.33,-13.05,81.4375,-53.375,519.25,0.60321044921875,0.54730224609375,-0.28192138671875,0.0338,-34.375,-3.25,-54.8125,2.97,-3.2,moving,2
10.25,1668136.07797434,24,3,3,3,0,-154.0,-0.12,0.7,7.2,-3.08,4.01,-13.43,97.0625,-34.75,518.125,0.6002197265625,0.555419921875,-0.27435302734375,0.0338,-34.375,-3.25,-54.625,2.96,-3.3,moving,2
10.26,1668136.07797434,24,3,3,3,0,-350.0,0.52,0.21,5.2,-2.46,3.6,-12.3,77.9375,-16.25,517.9375,0.59783935546875,0.5615234375,-0.26727294921875,0.0338,-34.375,-3.25,-54.375,2.98,-3.38,moving,2
10.26,1668136.108099462,24,3,3,3,0,-996.0,3.6,-0.71,-1.27,0.57,2.67,-8.98,22.5625,-0.25,519.8125,0.59588623046875,0.5638427734375,-0.2633056640625,0.0338,-34.375,-3.25,-54.3125,3.02,-3.39,moving,2
10.28,1668136.108099462,24,3,3,3,0,-1341.0,6.0,-2.0,-4.69,2.95,1.27,-5.11,-58.875,7.375,524.625,0.59344482421875,0.56158447265625,-0.26446533203125,0.0323,-33.5625,-2.5625,-54.5,3.05,-3.28,moving,2
10.29,1668136.121374161,24,3,3,3,0,-1316.0,8.11,-7.62,-4.36,5.03,-4.57,-2.72,-143.75,10.0,532.9375,0.58984375,0.55499267578125,-0.2706298828125,0.0323,-33.5625,-2.5625,-54.9375,3.07,-3.05,moving,2
10.3,1668136.121374161,24,3,3,3,0,-1008.0,11.42,-15.04,-1.2,8.3,-12.31,-5.13,-200.125,24.4375,545.0625,0.584716796875,0.5452880859375,-0.2781982421875,0.0323,-33.5625,-2.5625,-55.5,3.12,-2.73,moving,2
10.31,1668136.151536881,24,3,3,3,0,-2225.0,9.38,-13.24,-13.37,6.19,-10.58,-10.84,-26.1875,21.0625,550.375,0.58197021484375,0.544677734375,-0.27532958984375,0.0323,-33.5625,-2.5625,-55.5,3.19,-2.65,moving,2
10.32,1668136.151536881,24,3,3,3,0,-2452.0,10.08,-6.94,-15.67,6.88,-4.2,0.08,60.9375,5.1875,547.5,0.58367919921875,0.5472412109375,-0.27197265625,0.0323,-33.5625,-2.5625,-55.3125,3.2,-2.74,moving,2
10.33,1668136.166986954,24,3,3,3,0,-2525.0,9.1,-3.79,-16.41,5.92,-1.0,2.0,23.25,-9.8125,545.5,0.5843505859375,0.54852294921875,-0.2718505859375,0.0321,-32.6875,-6.25,-55.25,3.18,-2.79,moving,2
10.34,1668136.166986954,24,3,3,3,0,-2510.0,7.71,-1.42,-16.23,4.56,1.31,0.62,-38.75,-21.375,546.625,0.58258056640625,0.5477294921875,-0.27496337890625,0.0321,-32.6875,-6.25,-55.4375,3.14,-2.73,moving,2
10.35,1668136.181107153,24,3,3,3,0,-2331.0,5.06,-3.58,-14.38,1.96,-0.95,1.47,-70.1875,-27.8125,548.9375,0.58001708984375,0.545654296875,-0.2802734375,0.0321,-32.6875,-6.25,-55.75,3.09,-2.63,moving,2
10.35,1668136.181107153,24,3,3,3,0,-2331.0,5.06,-3.58,-14.38,1.96,-0.95,1.47,-70.1875,-27.8125,548.9375,0.58001708984375,0.545654296875,-0.2802734375,0.0321,-32.6875,-6.25,-55.75,3.09,-2.63,moving,2
10.36,1668136.196745418,24,3,3,3,0,-2110.0,3.5,-4.87,-12.13,0.45,-2.32,5.46,-59.625,-24.4375,549.4375,0.5789794921875,0.543212890625,-0.28607177734375,0.0321,-32.6875,-6.25,-56.0,3.04,-2.55,moving,2
10.37,1668136.196745418,24,3,3,3,0,-1893.0,3.75,-5.56,-9.94,0.76,-3.03,10.31,-40.375,-16.875,547.625,0.58013916015625,0.54058837890625,-0.29193115234375,0.0321,-32.6875,-6.25,-56.1875,2.98,-2.52,moving,2
10.38,1668136.211440323,24,3,3,3,0,-1481.0,4.11,-6.39,-5.81,1.17,-3.87,11.67,-25.9375,-10.25,544.8125,0.5823974609375,0.53802490234375,-0.297119140625,0.0324,-33.0,-7.5,-56.25,2.94,-2.52,moving,2
10.39,1668136.211440323,24,3,3,3,0,-1332.0,3.48,-5.54,-4.31,0.57,-2.99,10.26,-3.875,-5.3125,541.5,0.58502197265625,0.53643798828125,-0.30059814453125,0.0324,-33.0,-7.5,-56.3125,2.9,-2.54,moving,2
10.4,1668136.241990006,24,3,3,3,0,-1140.0,3.0,-4.92,-2.4,0.12,-2.3,8.58,29.375,-0.9375,537.25,0.58819580078125,0.53643798828125,-0.3016357421875,0.0324,-33.0,-7.5,-56.1875,2.87,-2.62,moving,2
10.41,1668136.241990006,24,3,3,3,0,-961.0,2.71,-3.96,-0.64,-0.15,-1.23,7.05,52.9375,5.5,532.5,0.59185791015625,0.53741455078125,-0.30072021484375,0.0324,-33.0,-7.5,-56.0625,2.86,-2.72,moving,2
10.42,1668136.256095678,24,3,3,3,0,-683.0,2.43,-2.49,2.1,-0.43,0.34,5.99,57.8125,12.3125,528.0625,0.59564208984375,0.53839111328125,-0.2989501953125,0.0324,-33.0,-7.5,-55.8125,2.86,-2.83,moving,2
10.43,1668136.256095678,24,3,3,3,0,-552.0,2.19,-1.95,3.37,-0.68,0.97,4.99,48.25,19.0,524.5625,0.59918212890625,0.53875732421875,-0.29705810546875,0.0313,-32.875,-7.75,-55.625,2.88,-2.92,moving,2
10.43,1668136.272413916,24,3,3,3,0,-480.0,1.84,-1.66,4.07,-1.06,1.32,4.58,30.625,26.75,522.3125,0.6025390625,0.53802490234375,-0.29559326171875,0.0313,-32.875,-7.75,-55.4375,2.9,-2.99,moving,2
10.45,1668136.272413916,24,3,3,3,0,-457.0,1.49,-1.54,4.27,-1.44,1.47,4.95,8.1875,32.75,521.0625,0.60565185546875,0.53582763671875,-0.29510498046875,0.0313,-32.875,-7.75,-55.3125,2.94,-3.01,moving,2
10.46,1668136.303375097,24,3,3,3,0,-346.0,1.15,-1.11,5.38,-1.81,1.89,6.32,-15.75,35.6875,520.625,0.60870361328125,0.5322265625,-0.29620361328125,0.0313,-32.875,-7.75,-55.25,2.97,-3.01,moving,2
10.47,1668136.303375097,24,3,3,3,0,-294.0,1.26,-0.84,5.89,-1.74,2.14,7.8,-32.0625,36.875,520.4375,0.6116943359375,0.527587890625,-0.29852294921875,0.0313,-32.875,-7.75,-55.25,3.0,-2.99,moving,2
10.48,1668136.317498388,24,3,3,3,0,-241.0,1.38,-0.96,6.43,-1.64,1.98,9.14,-42.3125,36.25,520.25,0.61480712890625,0.52227783203125,-0.30181884765625,0.032,-32.875,-4.75,-55.25,3.03,-2.95,moving,2
10.49,1668136.317498388,24,3,3,3,0,-165.0,1.45,-1.0,7.19,-1.59,1.91,11.12,-47.4375,35.0,519.5625,0.61822509765625,0.51641845703125,-0.30596923828125,0.032,-32.875,-4.75,-55.25,3.05,-2.92,moving,2
10.5,1668136.332112158,24,3,3,3,0,-26.0,1.85,-0.82,8.59,-1.2,2.06,13.17,-44.375,32.8125,518.0,0.62213134765625,0.510498046875,-0.31060791015625,0.032,-32.875,-4.75,-55.3125,3.06,-2.89,moving,2
10.51,1668136.332112158,24,3,3,3,0,22.0,1.9,-0.58,9.08,-1.15,2.31,14.89,-35.125,29.4375,515.1875,0.6265869140625,0.50482177734375,-0.3153076171875,0.032,-32.875,-4.75,-55.3125,3.06,-2.89,moving,2
10.52,1668136.363817195,24,3,3,3,0,57.0,1.81,-0.25,9.42,-1.23,2.65,15.88,-23.75,24.6875,511.375,0.63134765625,0.4996337890625,-0.31988525390625,0.032,-32.875,-4.75,-55.3125,3.04,-2.9,moving,2
10.53,1668136.363817195,24,3,3,3,0,67.0,1.63,0.03,9.52,-1.38,2.97,16.66,-16.4375,18.875,506.75,0.63623046875,0.4949951171875,-0.32452392578125,0.0326,-33.0,-4.75,-55.3125,3.02,-2.93,moving,2
10.54,1668136.378750341,24,3,3,3,0,115.0,1.09,0.68,10.01,-1.89,3.65,16.96,-14.3125,13.75,501.75,0.6409912109375,0.49053955078125,-0.32928466796875,0.0326,-33.0,-4.75,-55.3125,2.99,-2.97,moving,2
10.55,1668136.378750341,24,3,3,3,0,110.0,0.71,1.05,9.96,-2.24,4.05,16.61,-14.6875,13.875,496.8125,0.64556884765625,0.48614501953125,-0.33392333984375,0.0326,-33.0,-4.75,-55.3125,2.95,-3.0,moving,2
10.56,1668136.392116023,24,3,3,3,0,39.0,0.12,1.54,9.24,-2.81,4.58,15.15,-6.6875,20.5625,492.25,0.65020751953125,0.48193359375,-0.33740234375,0.0326,-33.0,-4.75,-55.25,2.94,-3.04,moving,2
10.57,1668136.392116023,24,3,3,3,0,-243.0,-0.24,2.5,6.38,-3.18,5.61,12.09,22.875,30.3125,487.8125,0.65533447265625,0.47894287109375,-0.3380126953125,0.0326,-33.0,-4.75,-55.0625,2.94,-3.11,moving,2
10.58,1668136.422870215,24,3,3,3,0,-388.0,0.16,2.53,4.87,-2.82,5.77,7.69,64.875,40.0625,483.375,0.660888671875,0.4779052734375,-0.3345947265625,0.0322,-34.1875,-3.5625,-54.75,2.98,-3.23,moving,2
10.59,1668136.422870215,24,3,3,3,0,-603.0,0.69,2.23,2.64,-2.35,5.61,2.16,92.75,51.0,480.125,0.666259765625,0.47833251953125,-0.32769775390625,0.0322,-34.1875,-3.5625,-54.25,3.05,-3.38,moving,2
10.6,1668136.436304419,24,3,3,3,0,-943.0,1.14,1.82,-0.83,-2.0,5.33,-3.32,90.8125,58.1875,479.1875,0.67041015625,0.479248046875,-0.31915283203125,0.0322,-34.1875,-3.5625,-53.6875,3.15,-3.51,moving,2
10.61,1668136.436304419,24,3,3,3,0,-1473.0,0.38,-2.31,-6.2,-2.87,1.25,-7.63,55.125,53.875,481.1875,0.6722412109375,0.47967529296875,-0.311767578125,0.0322,-34.1875,-3.5625,-53.3125,3.26,-3.56,moving,2
10.61,1668136.452076635,24,3,3,3,0,-1473.0,0.38,-2.31,-6.2,-2.87,1.25,-7.63,55.125,53.875,481.1875,0.6722412109375,0.47967529296875,-0.311767578125,0.0322,-34.1875,-3.5625,-53.3125,3.26,-3.56,moving,2
10.62,1668136.452076635,24,3,3,3,0,-1382.0,0.66,-7.62,-5.29,-2.68,-4.13,-4.78,-37.6875,41.125,485.75,0.67169189453125,0.47650146484375,-0.31103515625,0.0322,-34.1875,-3.5625,-53.3125,3.34,-3.49,moving,2
10.63,1668136.466524145,24,3,3,3,0,-1211.0,5.53,-11.01,-3.5,2.14,-7.75,2.04,-165.1875,36.5625,493.0,0.669189453125,0.4671630859375,-0.3197021484375,0.0327,-33.6875,-1.5625,-53.75,3.38,-3.25,moving,2
10.64,1668136.466524145,24,3,3,3,0,-1753.0,8.12,-13.14,-8.87,4.64,-10.13,-9.95,-140.5625,36.5625,503.5625,0.6640625,0.4608154296875,-0.32379150390625,0.0327,-33.6875,-1.5625,-54.125,3.47,-3.0,moving,2
10.65,1668136.483313615,24,3,3,3,0,-2353.0,8.34,-9.37,-14.87,4.82,-6.42,-8.14,-14.3125,9.9375,507.4375,0.661865234375,0.4610595703125,-0.3221435546875,0.0327,-33.6875,-1.5625,-54.125,3.52,-2.95,moving,2
10.66,1668136.483313615,24,3,3,3,0,-2061.0,10.22,-5.24,-11.96,6.72,-2.22,-0.69,49.0625,-18.8125,505.125,0.66229248046875,0.46435546875,-0.3199462890625,0.0327,-33.6875,-1.5625,-54.0,3.49,-3.02,moving,2
10.67,1668136.512180802,24,3,3,3,0,-1708.0,9.33,-1.68,-8.45,5.88,1.43,-1.27,61.1875,-35.875,502.0625,0.66217041015625,0.46929931640625,-0.31768798828125,0.0327,-33.6875,-1.5625,-53.9375,3.44,-3.11,moving,2
10.68,1668136.512180802,24,3,3,3,0,-1498.0,8.08,-0.08,-6.36,4.67,3.11,-4.4,66.3125,-37.125,499.8125,0.66131591796875,0.47503662109375,-0.31427001953125,0.0323,-34.0625,-4.75,-53.875,3.4,-3.19,moving,2
10.69,1668136.526866552,24,3,3,3,0,-1247.0,5.47,-1.0,-3.86,2.08,2.24,-7.47,54.125,-29.75,499.4375,0.6595458984375,0.48028564453125,-0.31048583984375,0.0323,-34.0625,-4.75,-53.8125,3.38,-3.24,moving,2
10.7,1668136.526866552,24,3,3,3,0,-1204.0,5.0,-2.95,-3.43,1.61,0.29,-9.92,25.8125,-21.1875,501.375,0.65667724609375,0.48431396484375,-0.30731201171875,0.0323,-34.0625,-4.75,-53.75,3.38,-3.25,moving,2
10.71,1668136.542134497,24,3,3,3,0,-1133.0,4.71,-4.34,-2.7,1.31,-1.14,-10.69,-10.375,-16.9375,505.3125,0.65283203125,0.48663330078125,-0.3057861328125,0.0323,-34.0625,-4.75,-53.875,3.39,-3.19,moving,2
10.72,1668136.542134497,24,3,3,3,0,-1078.0,4.13,-6.71,-2.14,0.72,-3.58,-10.94,-18.3125,-17.0,509.625,0.648681640625,0.48858642578125,-0.3046875,0.0323,-34.0625,-4.75,-54.0,3.41,-3.12,moving,2
10.73,1668136.574301896,24,3,3,3,0,-1035.0,3.9,-7.4,-1.69,0.48,-4.32,-9.82,-5.1875,-18.8125,512.875,0.64501953125,0.4910888671875,-0.30316162109375,0.0323,-33.75,-2.75,-54.0625,3.41,-3.08,moving,2
10.74,1668136.574301896,24,3,3,3,0,-955.0,3.76,-7.38,-0.88,0.35,-4.31,-7.46,9.0625,-21.25,514.625,0.642333984375,0.493896484375,-0.30157470703125,0.0323,-33.75,-2.75,-54.125,3.4,-3.06,moving,2
10.75,1668136.589409521,24,3,3,3,0,-871.0,4.01,-6.83,-0.04,0.61,-3.75,-5.03,21.375,-21.5,514.875,0.64056396484375,0.496826171875,-0.29998779296875,0.0323,-33.75,-2.75,-54.125,3.39,-3.08,moving,2
10.76,1668136.589409521,24,3,3,3,0,-773.0,3.99,-4.95,0.92,0.62,-1.83,-3.4,31.0625,-21.25,514.125,0.6395263671875,0.49993896484375,-0.2982177734375,0.0323,-33.75,-2.75,-54.125,3.37,-3.11,moving,2
10.77,1668136.602277482,24,3,3,3,0,-716.0,3.72,-4.19,1.49,0.38,-1.03,-2.42,32.5625,-21.375,513.0,0.6387939453125,0.50299072265625,-0.29669189453125,0.0323,-33.75,-2.75,-54.0625,3.34,-3.15,moving,2
10.78,1668136.602277482,24,3,3,3,0,-623.0,3.3,-3.48,2.42,-0.01,-0.29,-1.59,23.6875,-20.875,511.9375,0.6380615234375,0.50543212890625,-0.29583740234375,0.032,-33.0625,-4.0,-54.0625,3.32,-3.18,moving,2
10.79,1668136.633062964,24,3,3,3,0,-582.0,2.96,-2.89,2.83,-0.33,0.3,-0.99,12.875,-17.9375,511.25,0.6373291015625,0.50714111328125,-0.295654296875,0.032,-33.0625,-4.0,-54.125,3.29,-3.2,moving,2
10.8,1668136.633062964,24,3,3,3,0,-529.0,2.7,-2.32,3.36,-0.57,0.88,-0.85,5.3125,-15.25,510.875,0.63653564453125,0.50836181640625,-0.2957763671875,0.032,-33.0625,-4.0,-54.125,3.27,-3.2,moving,2
10.81,1668136.648201229,24,3,3,3,0,-495.0,2.63,-2.07,3.71,-0.62,1.13,-0.97,4.0,-13.5625,510.6875,0.63580322265625,0.50946044921875,-0.29583740234375,0.032,-33.0625,-4.0,-54.1875,3.26,-3.21,moving,2
10.82,1668136.648201229,24,3,3,3,0,-480.0,2.55,-1.97,3.87,-0.69,1.24,-1.27,10.0625,-12.0,510.375,0.6351318359375,0.5107421875,-0.29547119140625,0.032,-33.0625,-4.0,-54.1875,3.24,-3.22,moving,2
10.83,1668136.661755957,24,3,3,3,0,-486.0,2.46,-1.82,3.8,-0.77,1.42,-1.54,16.3125,-10.0625,509.875,0.63470458984375,0.51226806640625,-0.2945556640625,0.032,-33.0625,-2.5,-54.125,3.23,-3.24,moving,2
10.84,1668136.661755957,24,3,3,3,0,-529.0,2.42,-1.55,3.36,-0.8,1.71,-1.83,21.0625,-8.625,509.3125,0.6343994140625,0.51397705078125,-0.29327392578125,0.032,-33.0625,-2.5,-54.125,3.23,-3.26,moving,2
10.85,1668136.691820084,24,3,3,3,0,-543.0,2.45,-1.56,3.21,-0.77,1.73,-1.95,25.4375,-7.0625,508.6875,0.6341552734375,0.5157470703125,-0.29156494140625,0.032,-33.0625,-2.5,-54.0625,3.22,-3.29,moving,2
10.86,1668136.691820084,24,3,3,3,0,-560.0,2.61,-1.68,3.03,-0.61,1.65,-2.12,30.3125,-4.8125,507.875,0.6341552734375,0.5177001953125,-0.28955078125,0.032,-33.0625,-2.5,-53.9375,3.22,-3.33,moving,2
10.86,1668136.696766699,24,3,3,3,0,-560.0,2.61,-1.68,3.03,-0.61,1.65,-2.12,30.3125,-4.8125,507.875,0.6341552734375,0.5177001953125,-0.28955078125,0.032,-33.0625,-2.5,-53.9375,3.22,-3.33,moving,2
10.87,1668136.696766699,24,3,3,3,0,-631.0,3.02,-2.13,2.29,-0.21,1.24,-2.28,32.3125,-1.375,507.1875,0.63427734375,0.51953125,-0.287109375,0.032,-33.0625,-2.5,-53.8125,3.23,-3.37,moving,2
10.88,1668136.723708024,24,3,3,3,0,-672.0,3.29,-2.47,1.87,0.05,0.94,-2.38,30.625,2.375,506.6875,0.634521484375,0.52105712890625,-0.28466796875,0.0327,-32.6875,-2.5,-53.6875,3.24,-3.41,moving,2
10.89,1668136.723708024,24,3,3,3,0,-714.0,3.62,-2.81,1.43,0.35,0.62,-2.56,24.3125,6.0,506.5625,0.63470458984375,0.522216796875,-0.28228759765625,0.0327,-32.6875,-2.5,-53.625,3.26,-3.44,moving,2
10.9,1668136.73662998,24,3,3,3,0,-761.0,3.91,-3.26,0.94,0.62,0.19,-2.91,16.875,9.625,507.0625,0.63482666015625,0.5228271484375,-0.28009033203125,0.0327,-32.6875,-2.5,-53.5,3.29,-3.45,moving,2
10.91,1668136.73662998,24,3,3,3,0,-886.0,4.37,-4.21,-0.31,1.04,-0.75,-3.24,10.0625,12.9375,508.0625,0.634765625,0.5230712890625,-0.278076171875,0.0327,-32.6875,-2.5,-53.4375,3.32,-3.46,moving,2
10.92,1668136.751929826,24,3,3,3,0,-950.0,4.5,-4.48,-0.96,1.15,-1.03,-3.4,4.375,14.375,509.4375,0.63458251953125,0.52294921875,-0.2762451171875,0.0327,-32.6875,-2.5,-53.375,3.35,-3.45,moving,2
10.93,1668136.751929826,24,3,3,3,0,-1004.0,4.57,-4.65,-1.51,1.18,-1.2,-3.12,0.375,14.0,510.875,0.6343994140625,0.52264404296875,-0.27471923828125,0.0323,-33.5,-1.5625,-53.3125,3.39,-3.44,moving,2
10.94,1668136.782303971,24,3,3,3,0,-1049.0,4.58,-4.6,-1.96,1.16,-1.17,-2.5,-1.5,12.125,512.125,0.63421630859375,0.52227783203125,-0.2735595703125,0.0323,-33.5,-1.5625,-53.25,3.41,-3.43,moving,2
10.95,1668136.782303971,24,3,3,3,0,-1078.0,4.44,-4.28,-2.26,1.0,-0.86,-1.7,-3.0625,8.5,513.125,0.63409423828125,0.52191162109375,-0.2728271484375,0.0323,-33.5,-1.5625,-53.25,3.43,-3.42,moving,2
10.96,1668136.797358048,24,3,3,3,0,-1070.0,4.39,-3.97,-2.17,0.94,-0.56,-0.88,-5.6875,4.1875,513.8125,0.6339111328125,0.52154541015625,-0.272705078125,0.0323,-33.5,-1.5625,-53.25,3.44,-3.41,moving,2
10.97,1668136.797358048,24,3,3,3,0,-1055.0,4.26,-3.64,-2.02,0.81,-0.25,-0.44,-8.25,0.0,514.3125,0.63360595703125,0.521240234375,-0.2730712890625,0.0323,-33.5,-1.5625,-53.25,3.45,-3.39,moving,2
10.98,1668136.811883358,24,3,3,3,0,-1022.0,4.05,-3.47,-1.68,0.6,-0.09,-0.35,-11.25,-3.5,514.875,0.633056640625,0.52099609375,-0.27374267578125,0.0323,-33.0625,-2.0625,-53.3125,3.44,-3.37,moving,2
10.99,1668136.811883358,24,3,3,3,0,-942.0,3.54,-3.49,-0.87,0.1,-0.13,-0.36,-14.75,-6.125,515.5625,0.63238525390625,0.520751953125,-0.27471923828125,0.0323,-33.0625,-2.0625,-53.375,3.43,-3.35,moving,2
11.0,1668136.84193418,24,3,3,3,0,-908.0,3.34,-3.66,-0.51,-0.08,-0.33,-0.36,-16.25,-7.375,516.25,0.63153076171875,0.5205078125,-0.27581787109375,0.0323,-33.0625,-2.0625,-53.5,3.42,-3.32,moving,2
11.01,1668136.84193418,24,3,3,3,0,-879.0,3.17,-3.78,-0.21,-0.23,-0.48,-0.21,-14.9375,-8.0,516.875,0.6307373046875,0.52032470703125,-0.27691650390625,0.0323,-33.0625,-2.0625,-53.5625,3.41,-3.3,moving,2
11.02,1668136.857137874,24,3,3,3,0,-820.0,2.9,-3.87,0.38,-0.49,-0.58,0.09,-11.4375,-8.625,517.125,0.630126953125,0.520263671875,-0.2779541015625,0.0323,-33.0625,-2.0625,-53.625,3.4,-3.28,moving,2
11.03,1668136.857137874,24,3,3,3,0,-790.0,2.76,-3.81,0.68,-0.62,-0.53,0.53,-6.5625,-8.625,517.0625,0.62969970703125,0.52032470703125,-0.27880859375,0.0324,-33.0625,-2.0625,-53.6875,3.39,-3.28,moving,2
11.04,1668136.873542781,24,3,3,3,0,-764.0,2.67,-3.7,0.96,-0.7,-0.42,0.96,-1.8125,-8.25,516.5625,0.62957763671875,0.52056884765625,-0.279541015625,0.0324,-33.0625,-2.0625,-53.75,3.37,-3.28,moving,2
11.05,1668136.873542781,24,3,3,3,0,-745.0,2.63,-3.53,1.14,-0.72,-0.24,1.24,1.4375,-7.3125,515.875,0.629638671875,0.5208740234375,-0.2801513671875,0.0324,-33.0625,-2.0625,-53.75,3.35,-3.28,moving,2
11.06,1668136.90271722,24,3,3,3,0,-726.0,2.57,-3.26,1.34,-0.77,0.03,1.27,3.6875,-5.4375,515.125,0.62982177734375,0.5211181640625,-0.280517578125,0.0324,-33.0625,-2.0625,-53.75,3.34,-3.29,moving,2
11.07,1668136.90271722,24,3,3,3,0,-740.0,2.64,-3.16,1.19,-0.69,0.14,1.17,4.0,-3.375,514.4375,0.63006591796875,0.52130126953125,-0.28082275390625,0.0324,-33.0625,-2.0625,-53.75,3.33,-3.3,moving,2
11.08,1668136.91698138,24,3,3,3,0,-749.0,2.72,-3.1,1.11,-0.6,0.2,1.0,2.625,-1.4375,513.9375,0.63037109375,0.5213623046875,-0.281005859375,0.0332,-32.6875,-2.5,-53.75,3.33,-3.31,moving,2
11.09,1668136.91698138,24,3,3,3,0,-768.0,2.88,-3.05,0.91,-0.44,0.26,0.75,0.625,0.3125,513.625,0.630615234375,0.521240234375,-0.28118896484375,0.0332,-32.6875,-2.5,-53.75,3.32,-3.32,moving,2
11.1,1668136.948485612,24,3,3,3,0,-824.0,3.23,-3.24,0.36,-0.09,0.07,0.55,-1.875,1.8125,513.5625,0.63079833984375,0.52099609375,-0.28131103515625,0.0332,-32.6875,-2.5,-53.75,3.32,-3.32,moving,2
11.11,1668136.948485612,24,3,3,3,0,-846.0,3.41,-3.34,0.14,0.08,-0.02,0.47,-3.5625,3.0,513.625,0.6309814453125,0.52056884765625,-0.28155517578125,0.0332,-32.6875,-2.5,-53.75,3.33,-3.31,moving,2
11.12,1668136.961730648,24,3,3,3,0,-866.0,3.58,-3.41,-0.06,0.24,-0.09,0.61,-4.125,3.75,513.6875,0.6312255859375,0.52008056640625,-0.28173828125,0.0332,-32.6875,-2.5,-53.75,3.33,-3.31,moving,2
11.13,1668136.961730648,24,3,3,3,0,-883.0,3.69,-3.43,-0.23,0.35,-0.12,0.74,-4.25,4.375,513.75,0.63153076171875,0.51959228515625,-0.281982421875,0.0321,-32.0,-2.0625,-53.75,3.34,-3.3,moving,2
11.14,1668136.992790462,24,3,3,3,0,-891.0,3.78,-3.5,-0.31,0.43,-0.2,0.85,-4.5625,4.1875,513.75,0.6318359375,0.51898193359375,-0.28228759765625,0.0321,-32.0,-2.0625,-53.75,3.34,-3.3,moving,2
11.15,1668136.992790462,24,3,3,3,0,-897.0,3.74,-3.42,-0.36,0.4,-0.12,0.84,-4.8125,3.3125,513.8125,0.632080078125,0.51849365234375,-0.28265380859375,0.0321,-32.0,-2.0625,-53.75,3.34,-3.3,moving,2
11.16,1668137.007801367,24,3,3,3,0,-897.0,3.64,-3.37,-0.36,0.3,-0.08,0.71,-5.75,2.4375,513.875,0.63226318359375,0.5179443359375,-0.2830810546875,0.0321,-32.0,-2.0625,-53.75,3.34,-3.29,moving,2
11.17,1668137.007801367,24,3,3,3,0,-897.0,3.52,-3.36,-0.36,0.17,-0.07,0.62,-8.25,1.75,514.0625,0.63232421875,0.51739501953125,-0.28363037109375,0.0321,-32.0,-2.0625,-53.8125,3.34,-3.28,moving,2
11.18,1668137.03848549,24,3,3,3,0,-898.0,3.25,-3.58,-0.36,-0.09,-0.31,0.58,-10.4375,1.25,514.375,0.63226318359375,0.51678466796875,-0.2843017578125,0.0317,-32.6875,-2.75,-53.8125,3.34,-3.27,moving,2
11.19,1668137.03848549,24,3,3,3,0,-896.0,3.17,-3.66,-0.34,-0.16,-0.41,0.71,-11.625,0.5,514.6875,0.6322021484375,0.51617431640625,-0.28515625,0.0317,-32.6875,-2.75,-53.875,3.34,-3.25,moving,2
11.2,1668137.043440405,24,3,3,3,0,-896.0,3.09,-3.65,-0.33,-0.24,-0.41,0.87,-10.4375,-0.25,514.8125,0.63214111328125,0.51556396484375,-0.28594970703125,0.0317,-32.6875,-2.75,-53.875,3.34,-3.24,moving,2
11.21,1668137.043440405,24,3,3,3,0,-878.0,2.97,-3.43,-0.15,-0.36,-0.19,1.04,-8.125,-0.9375,514.8125,0.6322021484375,0.51513671875,-0.2867431640625,0.0317,-32.6875,-2.75,-53.9375,3.33,-3.23,moving,2
11.22,1668137.052266699,24,3,3,3,0,-863.0,2.89,-3.3,0.0,-0.43,-0.07,1.1,-6.125,-1.625,514.6875,0.63226318359375,0.5147705078125,-0.2874755859375,0.0317,-32.6875,-2.75,-53.9375,3.33,-3.23,moving,2
11.23,1668137.052266699,24,3,3,3,0,-854.0,2.88,-3.22,0.09,-0.43,0.0,0.98,-5.3125,-2.25,514.5,0.63232421875,0.51446533203125,-0.2880859375,0.0306,-32.0,-4.0,-54.0,3.32,-3.22,moving,2
11.24,1668137.082651546,24,3,3,3,0,-852.0,2.84,-3.22,0.12,-0.47,0.0,0.73,-5.4375,-2.5,514.4375,0.63226318359375,0.5142822265625,-0.2886962890625,0.0306,-32.0,-4.0,-54.0,3.31,-3.22,moving,2
11.25,1668137.082651546,24,3,3,3,0,-851.0,2.87,-3.34,0.13,-0.43,-0.13,0.49,-5.5,-2.375,514.4375,0.6322021484375,0.51409912109375,-0.28924560546875,0.0306,-32.0,-4.0,-54.0625,3.31,-3.21,moving,2
11.26,1668137.098134416,24,3,3,3,0,-851.0,2.89,-3.35,0.14,-0.41,-0.14,0.36,-4.8125,-2.375,514.4375,0.632080078125,0.51397705078125,-0.28973388671875,0.0306,-32.0,-4.0,-54.0625,3.3,-3.2,moving,2
11.27,1668137.098134416,24,3,3,3,0,-855.0,2.93,-3.32,0.1,-0.36,-0.11,0.26,-3.3125,-2.0625,514.4375,0.6319580078125,0.51385498046875,-0.29010009765625,0.0306,-32.0,-4.0,-54.0625,3.3,-3.2,moving,2
11.28,1668137.112632463,24,3,3,3,0,-857.0,2.97,-3.31,0.13,-0.01,0.06,0.19,-2.4375,-1.875,500.8125,0.6304931640625,0.52435302734375,-0.29730224609375,0.0321,-33.0625,-3.1875,-54.375,2.99,-3.38,moving,2
11.29,1668137.112632463,24,3,3,3,0,-868.0,3.06,-3.28,0.02,0.07,0.09,0.12,-1.625,-1.9375,500.75,0.63037109375,0.52435302734375,-0.2974853515625,0.0321,-33.0625,-3.1875,-54.375,2.98,-3.38,moving,2
11.3,1668137.143578711,24,3,3,3,0,-874.0,3.12,-3.27,-0.03,0.14,0.1,0.05,-1.0,-1.8125,500.8125,0.6302490234375,0.5244140625,-0.297607421875,0.0321,-33.0625,-3.1875,-54.375,2.98,-3.37,moving,2
11.31,1668137.143578711,24,3,3,3,0,-880.0,3.13,-3.21,-0.09,0.14,0.16,-0.02,-0.5,-1.75,500.75,0.63018798828125,0.52447509765625,-0.29766845703125,0.0321,-33.0625,-3.1875,-54.4375,2.98,-3.37,moving,2
11.32,1668137.156915829,24,3,3,3,0,-885.0,3.17,-3.23,-0.14,0.19,0.13,-0.12,-0.25,-1.6875,500.8125,0.63006591796875,0.5245361328125,-0.2977294921875,0.0321,-33.0625,-3.1875,-54.4375,2.98,-3.37,moving,2
11.33,1668137.156915829,24,3,3,3,0,-889.0,3.2,-3.31,-0.17,0.22,0.05,-0.23,-0.375,-1.75,500.9375,0.62994384765625,0.524658203125,-0.2977294921875,0.0328,-33.5,-4.0,-54.4375,2.98,-3.37,moving,2
11.34,1668137.171582048,24,3,3,3,0,-891.0,3.19,-3.33,-0.19,0.21,0.03,-0.35,-0.4375,-1.875,501.0625,0.6297607421875,0.5247802734375,-0.29766845703125,0.0328,-33.5,-4.0,-54.4375,2.97,-3.37,moving,2
11.35,1668137.171582048,24,3,3,3,0,-889.0,3.24,-3.38,-0.17,0.26,-0.01,-0.42,-0.3125,-2.125,501.1875,0.6295166015625,0.52496337890625,-0.297607421875,0.0328,-33.5,-4.0,-54.4375,2.97,-3.37,moving,2
11.36,1668137.203448747,24,3,3,3,0,-880.0,3.23,-3.29,-0.08,0.25,0.07,-0.43,0.0,-2.625,501.3125,0.62933349609375,0.52508544921875,-0.29754638671875,0.0328,-33.5,-4.0,-54.4375,2.97,-3.36,moving,2
11.37,1668137.203448747,24,3,3,3,0,-874.0,3.25,-3.27,-0.02,0.27,0.09,-0.47,0.0,-3.125,501.5,0.6290283203125,0.52532958984375,-0.29754638671875,0.0328,-33.5,-4.0,-54.4375,2.97,-3.36,stop,2
11.38,1668137.216460221,24,3,3,3,0,-869.0,3.27,-3.22,0.02,0.3,0.14,-0.49,0.0625,-3.5,501.6875,0.6287841796875,0.5255126953125,-0.2974853515625,0.0324,-33.5,-4.25,-54.4375,2.97,-3.36,stop,2
11.39,1668137.216460221,24,3,3,3,0,-864.0,3.26,-3.21,0.07,0.28,0.14,-0.55,-0.125,-4.0,501.875,0.62847900390625,0.5257568359375,-0.29742431640625,0.0324,-33.5,-4.25,-54.4375,2.97,-3.36,stop,2
11.4,1668137.231888648,24,3,3,3,0,-859.0,3.26,-3.25,0.12,0.29,0.1,-0.62,-0.0625,-3.75,502.0625,0.628173828125,0.52593994140625,-0.29730224609375,0.0324,-33.5,-4.25,-54.5,2.97,-3.35,stop,2
