timestamp,android_nano_timestamp,temperature,calib_mag,calib_accel,calib_gyro,calib_sys,acc_x,acc_y,acc_z,lacc_x,lacc_y,lacc_z,gyro_x,gyro_y,gyro_z,quat_w,quat_x,quat_y,quat_z,mag_x,mag_y,mag_z,gravity_x,gravity_y,gravity_z,label,person
4.54,1663681.075896646,26,3,3,3,0,-40.0,-0.08,1.86,8.51,-3.79,3.58,-28.89,130.6875,-43.4375,587.8125,-0.053955078125,0.7647705078125,0.2877197265625,0.0278,18.25,-7.0,-55.6875,3.7,-1.72,moving,7
4.55,1663681.091446695,26,3,3,3,0,-343.0,1.17,1.45,5.48,-2.51,3.23,-32.31,117.4375,-53.6875,580.0625,-0.07061767578125,0.76513671875,0.2978515625,0.0278,18.25,-7.0,-55.6875,3.68,-1.77,moving,7
4.56,1663681.091446695,26,3,3,3,0,-2260.0,10.93,6.77,-13.68,7.28,8.58,-33.1,109.5,-63.5625,572.8125,-0.087890625,0.76458740234375,0.30780029296875,0.0278,18.25,-7.0,-55.6875,3.65,-1.81,moving,7
4.57,1663681.122894123,26,3,3,3,0,-3140.0,19.37,7.44,-22.5,15.71,9.31,-29.33,112.5,-32.0,564.5,-0.10198974609375,0.7647705078125,0.3175048828125,0.0278,18.25,-7.0,-55.625,3.65,-1.86,moving,7
4.58,1663681.122894123,26,3,3,3,0,-2575.0,20.68,4.17,-16.84,17.01,5.98,-5.04,-22.375,1.625,565.75,-0.102783203125,0.7628173828125,0.31988525390625,0.0274,18.5625,2.375,-55.6875,3.67,-1.81,moving,7
4.59,1663681.13594466,26,3,3,3,0,-2401.0,22.68,3.15,-15.05,18.99,4.69,-3.24,-170.1875,12.6875,576.75,-0.09814453125,0.75408935546875,0.3233642578125,0.0274,18.5625,2.375,-55.9375,3.69,-1.53,moving,7
4.6,1663681.13594466,26,3,3,3,0,-2052.0,27.98,-6.35,-11.52,24.23,-5.27,1.08,-295.875,32.0,595.625,-0.08734130859375,0.73974609375,0.326904296875,0.0274,18.5625,2.375,-56.1875,3.74,-1.07,moving,7
4.61,1663681.16664514,26,3,3,3,0,-2235.0,16.12,-12.03,-13.33,12.29,-11.54,-1.8,-367.4375,50.0,618.0,-0.0740966796875,0.72076416015625,0.33282470703125,0.0274,18.5625,2.375,-56.3125,3.82,-0.48,moving,7
4.62,1663681.16664514,26,3,3,3,0,-2850.0,2.03,-26.47,-19.5,-1.86,-26.61,4.9,-411.25,42.3125,643.0,-0.057861328125,0.69976806640625,0.33563232421875,0.0274,18.5625,2.375,-56.1875,3.89,0.13,moving,7
4.63,1663681.172091145,26,3,3,3,0,-2208.0,5.03,-7.95,-13.11,1.09,-8.37,33.67,-273.5,25.8125,660.125,-0.03668212890625,0.6907958984375,0.325439453125,0.0264,19.0,5.0,-56.0,3.94,0.42,moving,7
4.64,1663681.172091145,26,3,3,3,0,-1902.0,5.97,-2.63,-10.06,1.99,-2.99,44.78,-87.3125,11.1875,665.875,-0.017822265625,0.693603515625,0.30938720703125,0.0264,19.0,5.0,-55.9375,3.98,0.36,moving,7
4.65,1663681.242392414,26,3,3,3,0,-1595.0,7.03,1.24,-7.0,3.03,1.04,41.21,-10.0625,6.125,666.5625,-0.00250244140625,0.6998291015625,0.29412841796875,0.0264,19.0,5.0,-55.875,4.0,0.2,moving,7
4.66,1663681.242392414,26,3,3,3,0,-1298.0,7.53,2.64,-4.04,3.51,2.6,34.82,4.125,8.6875,666.0,0.01025390625,0.70556640625,0.28125,0.0264,19.0,5.0,-55.875,4.02,0.04,moving,7
4.67,1663681.248285114,26,3,3,3,0,-1009.0,5.02,1.73,-1.15,0.97,1.77,27.66,-32.0,15.6875,667.375,0.0218505859375,0.7078857421875,0.271484375,0.0264,19.0,5.0,-55.8125,4.04,-0.03,moving,7
4.68,1663681.248285114,26,3,3,3,0,-812.0,3.45,1.58,0.79,-0.62,1.59,23.27,-77.6875,21.875,671.375,0.0333251953125,0.706787109375,0.2635498046875,0.0285,17.875,-4.5625,-55.6875,4.08,-0.01,moving,7
4.69,1663681.253453368,26,3,3,3,0,-505.0,2.08,1.55,3.85,-2.02,1.54,22.54,-80.1875,16.9375,675.5625,0.04425048828125,0.705322265625,0.255615234375,0.0285,17.875,-4.5625,-55.625,4.1,0.01,moving,7
4.7,1663681.253453368,26,3,3,3,0,-322.0,0.73,1.05,5.68,-3.38,1.05,22.42,-61.75,4.0625,678.6875,0.053955078125,0.704833984375,0.2469482421875,0.0285,17.875,-4.5625,-55.625,4.11,0.0,moving,7
4.71,1663681.258884927,26,3,3,3,0,-40.0,0.09,0.67,8.5,-4.01,0.68,23.29,-58.0,-2.5625,681.625,0.0634765625,0.70458984375,0.237548828125,0.0285,17.875,-4.5625,-55.625,4.11,0.0,moving,7
4.72,1663681.258884927,26,3,3,3,0,13.0,1.17,1.48,9.04,-2.92,1.49,24.61,-64.75,-4.75,684.875,0.073486328125,0.70391845703125,0.22747802734375,0.0285,17.875,-4.5625,-55.625,4.1,-0.01,moving,7
4.73,1663681.287708495,26,3,3,3,0,243.0,1.58,1.72,11.35,-2.5,1.75,24.65,-65.4375,-13.75,688.1875,0.0828857421875,0.70318603515625,0.216796875,0.0288,17.1875,-11.5625,-55.6875,4.08,-0.02,moving,7
4.74,1663681.287708495,26,3,3,3,0,329.0,1.39,2.29,12.21,-2.66,2.31,22.66,-71.0625,-14.875,691.8125,0.09161376953125,0.7017822265625,0.2066650390625,0.0288,17.1875,-11.5625,-55.75,4.05,-0.01,moving,7
4.75,1663681.29311739,26,3,3,3,0,357.0,0.22,2.94,12.51,-3.79,2.92,19.96,-75.4375,-22.4375,695.875,0.0989990234375,0.69970703125,0.1971435546875,0.0288,17.1875,-11.5625,-55.875,4.02,0.01,moving,7
4.76,1663681.29311739,26,3,3,3,0,357.0,0.22,2.94,12.51,-3.79,2.92,19.96,-75.4375,-22.4375,695.875,0.0989990234375,0.69970703125,0.1971435546875,0.0288,17.1875,-11.5625,-55.875,4.02,0.01,moving,7
4.76,1663681.301293252,26,3,3,3,0,324.0,-0.62,2.56,12.2,-4.6,2.49,16.48,-84.5,-27.1875,700.6875,0.10491943359375,0.6966552734375,0.1884765625,0.0288,17.1875,-11.5625,-56.0,3.98,0.07,moving,7
4.77,1663681.301293252,26,3,3,3,0,370.0,-1.9,3.14,12.68,-5.84,2.99,12.71,-84.25,-24.6875,705.5625,0.1094970703125,0.693115234375,0.181396484375,0.0288,17.1875,-11.5625,-56.0625,3.94,0.14,moving,7
4.78,1663681.331021239,26,3,3,3,0,310.0,-4.08,3.4,12.09,-8.0,3.19,9.21,-64.125,-22.25,709.3125,0.1126708984375,0.6903076171875,0.17596435546875,0.0292,17.5625,-22.0625,-56.125,3.91,0.21,moving,7
4.79,1663681.331021239,26,3,3,3,0,303.0,-4.7,3.28,12.03,-8.57,3.01,6.16,-50.875,-26.375,712.4375,0.11419677734375,0.6881103515625,0.17156982421875,0.0292,17.5625,-22.0625,-56.25,3.87,0.26,moving,7
4.8,1663681.345619343,26,3,3,3,0,236.0,-5.14,3.93,11.38,-8.97,3.61,2.21,-44.5,-28.25,715.4375,0.114013671875,0.68585205078125,0.1685791015625,0.0292,17.5625,-22.0625,-56.375,3.83,0.32,moving,7
4.81,1663681.345619343,26,3,3,3,0,181.0,-5.63,4.75,10.84,-9.42,4.4,-2.34,-12.625,-23.9375,716.75,0.11187744140625,0.68511962890625,0.16790771484375,0.0292,17.5625,-22.0625,-56.4375,3.79,0.35,moving,7
4.82,1663681.376853962,26,3,3,3,0,-4.0,-4.91,3.0,8.99,-8.7,2.64,-6.73,16.6875,-2.0625,716.1875,0.10894775390625,0.68548583984375,0.17047119140625,0.0292,17.5625,-22.0625,-56.4375,3.78,0.35,moving,7
4.83,1663681.376853962,26,3,3,3,0,-465.0,-1.89,2.06,4.37,-5.71,1.69,-7.15,9.125,20.125,715.75,0.1072998046875,0.6851806640625,0.1744384765625,0.0297,18.25,-27.0625,-56.375,3.81,0.37,moving,7
4.84,1663681.382421752,26,3,3,3,0,-699.0,-0.72,1.67,2.01,-4.57,1.27,-2.43,-8.5,22.6875,716.0625,0.10784912109375,0.6842041015625,0.1766357421875,0.0297,18.25,-27.0625,-56.3125,3.84,0.39,moving,7
4.85,1663681.382421752,26,3,3,3,0,-865.0,-0.94,1.49,0.32,-4.88,1.15,10.56,5.5,52.125,714.3125,0.1148681640625,0.68505859375,0.17596435546875,0.0297,18.25,-27.0625,-56.0625,3.93,0.34,moving,7
4.86,1663681.424134235,26,3,3,3,0,-2604.0,10.0,10.69,-17.13,5.91,10.75,20.42,201.125,98.625,698.9375,0.12542724609375,0.69805908203125,0.17626953125,0.0297,18.25,-27.0625,-55.6875,4.09,-0.05,moving,7
4.87,1663681.424134235,26,3,3,3,0,-3954.0,22.76,-6.05,-30.68,18.58,-5.53,3.15,292.0,57.5625,679.4375,0.12554931640625,0.71484375,0.181640625,0.0297,18.25,-27.0625,-55.3125,4.18,-0.52,moving,7
4.88,1663681.433805256,26,3,3,3,0,-3954.0,9.75,-0.57,-30.61,5.75,0.04,-25.42,135.875,-123.6875,674.4375,0.1064453125,0.72137451171875,0.18585205078125,0.0286,18.25,-26.6875,-55.8125,4.0,-0.62,moving,7
4.89,1663681.433805256,26,3,3,3,0,-3715.0,9.66,-29.37,-28.2,5.68,-28.94,-69.31,69.0,-40.8125,674.25,0.07781982421875,0.7181396484375,0.21124267578125,0.0286,18.25,-26.6875,-55.9375,3.97,-0.42,moving,7
4.9,1663681.452696206,26,3,3,3,0,-2355.0,12.9,-12.53,-14.59,8.92,-12.3,-59.08,39.125,-14.125,674.25,0.054931640625,0.71331787109375,0.23370361328125,0.0286,18.25,-26.6875,-56.0,3.97,-0.23,moving,7
4.91,1663681.452696206,26,3,3,3,0,-2048.0,12.56,-5.22,-11.51,8.6,-4.95,-40.01,136.0625,-21.1875,667.0625,0.03643798828125,0.7159423828125,0.24859619140625,0.0286,18.25,-26.6875,-56.0,3.95,-0.27,moving,7
4.92,1663681.466824543,26,3,3,3,0,-1761.0,11.51,-1.98,-8.64,7.58,-1.45,-22.32,223.6875,-24.9375,653.5625,0.0220947265625,0.72552490234375,0.25653076171875,0.0286,18.25,-26.6875,-56.0625,3.92,-0.52,moving,7
4.93,1663681.466824543,26,3,3,3,0,-1420.0,9.29,1.05,-5.25,5.39,1.91,-14.04,247.9375,-22.75,638.0625,0.01019287109375,0.7371826171875,0.26116943359375,0.0278,19.375,-19.1875,-55.9375,3.9,-0.85,moving,7
4.94,1663681.481389118,26,3,3,3,0,-945.0,7.6,3.82,-0.52,3.72,4.97,-16.11,229.1875,-20.75,623.375,-0.0018310546875,0.7471923828125,0.26666259765625,0.0278,19.375,-19.1875,-55.8125,3.88,-1.14,moving,7
4.95,1663681.481389118,26,3,3,3,0,-900.0,6.27,2.79,-0.1,2.37,4.11,-21.3,174.4375,-7.0,611.75,-0.013427734375,0.75323486328125,0.27490234375,0.0278,19.375,-19.1875,-55.5625,3.9,-1.32,moving,7
4.96,1663681.512339069,26,3,3,3,0,-987.0,5.85,2.91,-1.01,1.9,4.33,-24.57,128.375,4.6875,602.6875,-0.024169921875,0.75616455078125,0.2850341796875,0.0278,19.375,-19.1875,-55.375,3.94,-1.41,moving,7
4.97,1663681.512339069,26,3,3,3,0,-728.0,5.42,2.82,1.54,1.42,4.31,-27.09,120.0625,8.625,593.9375,-0.0352783203125,0.75799560546875,0.29632568359375,0.0278,19.375,-19.1875,-55.125,4.0,-1.48,moving,7
4.98,1663681.526356648,26,3,3,3,0,-543.0,5.38,2.12,3.36,1.33,3.67,-28.94,121.875,3.6875,584.875,-0.04730224609375,0.75933837890625,0.30804443359375,0.0278,18.25,-6.0,-54.9375,4.05,-1.54,moving,7
4.99,1663681.526356648,26,3,3,3,0,-179.0,5.09,1.49,6.96,0.99,3.09,-30.36,116.8125,-9.5625,576.3125,-0.060546875,0.7598876953125,0.319580078125,0.0278,18.25,-6.0,-54.75,4.09,-1.59,moving,7
5.0,1663681.542720987,26,3,3,3,0,75.0,5.28,0.79,9.51,1.18,2.4,-30.05,103.3125,-27.25,569.0,-0.074462890625,0.75946044921875,0.330078125,0.0278,18.25,-6.0,-54.6875,4.1,-1.61,moving,7
5.01,1663681.542720987,26,3,3,3,0,75.0,5.28,0.79,9.51,1.18,2.4,-30.05,103.3125,-27.25,569.0,-0.074462890625,0.75946044921875,0.330078125,0.0278,18.25,-6.0,-54.6875,4.1,-1.61,moving,7
5.02,1663681.558104857,26,3,3,3,0,492.0,4.8,-0.91,13.69,0.73,0.7,-26.27,82.0625,-55.125,563.875,-0.08837890625,0.75823974609375,0.3377685546875,0.0278,18.25,-6.0,-54.8125,4.06,-1.62,moving,7
5.02,1663681.558104857,26,3,3,3,0,473.0,2.54,-1.55,13.54,-1.43,0.06,-20.82,61.0625,-81.625,561.125,-0.101806640625,0.756591796875,0.3419189453125,0.0278,18.25,-6.0,-55.0625,3.97,-1.62,moving,7
5.03,1663681.571468708,26,3,3,3,0,541.0,-0.77,-1.91,14.28,-4.63,-0.26,-14.9,57.5625,-95.6875,559.25,-0.1142578125,0.75567626953125,0.34295654296875,0.0278,17.875,8.0,-55.375,3.85,-1.64,moving,7
5.04,1663681.571468708,26,3,3,3,0,486.0,-2.59,-2.42,13.77,-6.31,-0.72,-8.27,55.0625,-101.0,558.0625,-0.125,0.75567626953125,0.34100341796875,0.0278,17.875,8.0,-55.6875,3.71,-1.7,moving,7
5.05,1663681.60135087,26,3,3,3,0,435.0,-3.29,-0.97,13.31,-6.85,0.78,-3.18,43.0625,-105.5,558.125,-0.13421630859375,0.7559814453125,0.33685302734375,0.0278,17.875,8.0,-56.0,3.55,-1.75,moving,7
5.06,1663681.60135087,26,3,3,3,0,451.0,-3.08,0.15,13.53,-6.47,1.96,0.48,31.375,-105.0,559.125,-0.14190673828125,0.75628662109375,0.331298828125,0.0278,17.875,8.0,-56.375,3.39,-1.8,moving,7
5.07,1663681.616282266,26,3,3,3,0,440.0,-2.37,1.1,13.47,-5.6,2.94,2.83,15.625,-100.6875,561.25,-0.14813232421875,0.75628662109375,0.32513427734375,0.0278,17.875,8.0,-56.6875,3.23,-1.84,moving,7
5.08,1663681.616282266,26,3,3,3,0,426.0,-1.79,1.86,13.39,-4.86,3.71,2.92,-0.75,-95.375,564.3125,-0.15350341796875,0.7554931640625,0.3193359375,0.0267,17.5625,12.5625,-57.0,3.07,-1.85,moving,7
5.09,1663681.631366942,26,3,3,3,0,276.0,-1.72,2.34,11.94,-4.66,4.16,1.44,-22.625,-80.25,568.1875,-0.15771484375,0.7535400390625,0.315185546875,0.0267,17.5625,12.5625,-57.3125,2.94,-1.81,moving,7
5.1,1663681.631366942,26,3,3,3,0,9.0,-0.76,2.62,9.31,-3.62,4.36,-2.08,-42.375,-54.9375,572.4375,-0.1607666015625,0.7503662109375,0.31402587890625,0.0267,17.5625,12.5625,-57.5625,2.85,-1.74,moving,7
5.11,1663681.66179663,26,3,3,3,0,-224.0,0.22,2.09,7.0,-2.59,3.73,-7.62,-50.125,-37.3125,576.125,-0.16412353515625,0.74609375,0.31597900390625,0.0267,17.5625,12.5625,-57.8125,2.81,-1.63,moving,7
5.12,1663681.66179663,26,3,3,3,0,-682.0,2.38,1.0,2.45,-0.41,2.51,-11.44,-62.3125,-19.25,579.75,-0.16717529296875,0.74078369140625,0.32061767578125,0.0267,17.5625,12.5625,-57.9375,2.8,-1.5,moving,7
5.13,1663681.67682141,26,3,3,3,0,-1035.0,3.95,1.07,-1.07,1.11,2.41,-13.48,-80.4375,13.9375,583.375,-0.16815185546875,0.73455810546875,0.327880859375,0.0254,18.6875,6.75,-58.0,2.84,-1.33,moving,7
5.14,1663681.67682141,26,3,3,3,0,-1571.0,6.26,2.59,-6.43,3.31,3.8,-5.86,-62.625,57.875,585.25,-0.16448974609375,0.73126220703125,0.33404541015625,0.0254,18.6875,6.75,-57.9375,2.94,-1.21,moving,7
5.15,1663681.690921955,26,3,3,3,0,-2768.0,11.5,6.47,-18.46,8.43,7.76,19.47,4.875,88.875,584.0,-0.15283203125,0.73626708984375,0.33062744140625,0.0254,18.6875,6.75,-57.625,3.06,-1.28,moving,7
5.16,1663681.690921955,26,3,3,3,0,-3954.0,24.58,3.37,-30.4,21.33,4.85,17.52,84.25,126.5625,576.125,-0.14166259765625,0.74517822265625,0.3287353515625,0.0254,18.6875,6.75,-57.0625,3.24,-1.47,moving,7
5.17,1663681.723508015,26,3,3,3,0,-3932.0,17.84,-9.69,-30.25,14.4,-8.31,-31.88,11.125,93.0,570.0625,-0.14569091796875,0.740966796875,0.34613037109375,0.0254,18.6875,6.75,-56.6875,3.43,-1.37,moving,7
5.18,1663681.723508015,26,3,3,3,0,-3799.0,10.6,-21.94,-28.92,6.98,-21.06,-62.54,-163.1875,64.9375,573.375,-0.1553955078125,0.7215576171875,0.3763427734375,0.0266,19.0625,7.5,-56.6875,3.61,-0.87,moving,7
5.19,1663681.736952473,26,3,3,3,0,-3120.0,9.41,-27.88,-22.12,5.76,-27.33,-19.49,-160.3125,8.8125,581.625,-0.155517578125,0.70977783203125,0.3865966796875,0.0266,19.0625,7.5,-56.75,3.64,-0.54,moving,7
5.2,1663681.736952473,26,3,3,3,0,-1855.0,4.24,-2.8,-9.46,0.63,-2.22,25.31,-42.0625,-9.625,586.75,-0.14678955078125,0.71282958984375,0.3768310546875,0.0266,19.0625,7.5,-56.8125,3.61,-0.58,moving,7
5.21,1663681.751329019,26,3,3,3,0,-1483.0,2.37,2.5,-5.73,-1.19,3.27,27.52,50.6875,-19.375,586.375,-0.14105224609375,0.72064208984375,0.364501953125,0.0266,19.0625,7.5,-56.875,3.56,-0.77,moving,7
5.22,1663681.751329019,26,3,3,3,0,-1126.0,3.31,0.83,-2.15,-0.2,1.81,25.16,65.8125,-13.8125,584.5,-0.13616943359375,0.72869873046875,0.35308837890625,0.0266,19.0625,7.5,-56.875,3.52,-0.97,moving,7
5.23,1663681.781002644,26,3,3,3,0,-945.0,4.53,-0.22,-0.35,1.04,0.85,24.26,13.4375,-1.875,585.4375,-0.12908935546875,0.73394775390625,0.3431396484375,0.0264,17.75,15.0625,-56.8125,3.49,-1.08,moving,7
5.24,1663681.781002644,26,3,3,3,0,-556.0,4.31,-0.56,3.53,0.83,0.53,19.73,-37.375,7.0,589.0625,-0.12139892578125,0.73583984375,0.33599853515625,0.0264,17.75,15.0625,-56.875,3.47,-1.1,moving,7
5.25,1663681.795827392,26,3,3,3,0,-358.0,3.95,-0.5,5.51,0.48,0.57,17.36,-56.75,6.5,593.6875,-0.11383056640625,0.7362060546875,0.3299560546875,0.0264,17.75,15.0625,-56.875,3.46,-1.07,moving,7
5.26,1663681.795827392,26,3,3,3,0,-262.0,3.55,-0.74,6.48,0.09,0.32,18.28,-52.0625,9.9375,597.9375,-0.10589599609375,0.7369384765625,0.3236083984375,0.0264,17.75,15.0625,-56.9375,3.46,-1.06,moving,7
5.27,1663681.811846068,26,3,3,3,0,-262.0,3.55,-0.74,6.48,0.09,0.32,18.28,-52.0625,9.9375,597.9375,-0.10589599609375,0.7369384765625,0.3236083984375,0.0264,17.75,15.0625,-56.9375,3.46,-1.06,moving,7
5.28,1663681.811846068,26,3,3,3,0,-204.0,3.61,-1.11,7.06,0.14,-0.08,18.77,-62.375,19.5,602.5625,-0.096923828125,0.7371826171875,0.317626953125,0.0264,17.75,15.0625,-56.9375,3.47,-1.03,moving,7
5.28,1663681.825909341,26,3,3,3,0,-91.0,4.09,-0.73,8.19,0.59,0.23,19.94,-88.3125,30.1875,608.5,-0.08612060546875,0.736328125,0.3118896484375,0.0264,17.75,6.875,-56.875,3.5,-0.97,moving,7
5.29,1663681.825909341,26,3,3,3,0,-20.0,4.26,0.17,8.89,0.71,1.07,22.61,-100.8125,42.1875,615.0,-0.07330322265625,0.73516845703125,0.3057861328125,0.0264,17.75,6.875,-56.8125,3.54,-0.89,moving,7
5.3,1663681.84099475,26,3,3,3,0,26.0,4.58,0.85,9.34,0.98,1.7,26.29,-98.625,52.125,621.0,-0.05865478515625,0.734619140625,0.29852294921875,0.0264,17.75,6.875,-56.75,3.6,-0.84,moving,7
5.31,1663681.84099475,26,3,3,3,0,109.0,3.57,1.85,10.15,-0.09,2.66,29.37,-97.5625,58.25,626.6875,-0.04266357421875,0.734375,0.29034423828125,0.0264,17.75,6.875,-56.5625,3.66,-0.8,moving,7
5.32,1663681.871439086,26,3,3,3,0,184.0,2.32,2.16,10.87,-1.41,2.95,32.87,-94.5625,60.0625,631.9375,-0.02545166015625,0.734619140625,0.28070068359375,0.0264,17.75,6.875,-56.4375,3.73,-0.79,moving,7
5.33,1663681.871439086,26,3,3,3,0,196.0,1.49,1.83,10.97,-2.3,2.62,35.94,-95.5,60.8125,637.0625,-0.007080078125,0.7349853515625,0.26971435546875,0.0278,19.1875,0.75,-56.25,3.8,-0.78,moving,7
5.34,1663681.901582885,26,3,3,3,0,197.0,1.17,1.84,10.96,-2.69,2.62,37.63,-108.25,59.125,642.6875,0.01202392578125,0.73443603515625,0.25787353515625,0.0278,19.1875,0.75,-56.125,3.86,-0.77,moving,7
5.35,1663681.901582885,26,3,3,3,0,226.0,0.78,1.77,11.22,-3.12,2.52,37.29,-120.3125,50.625,649.0,0.03076171875,0.73284912109375,0.24554443359375,0.0278,19.1875,0.75,-56.0,3.91,-0.74,moving,7
5.36,1663681.917052204,26,3,3,3,0,266.0,0.42,1.47,11.61,-3.52,2.16,35.59,-132.875,43.0,655.9375,0.04864501953125,0.72998046875,0.23333740234375,0.0278,19.1875,0.75,-55.875,3.95,-0.69,moving,7
5.37,1663681.917052204,26,3,3,3,0,217.0,0.71,1.25,11.1,-3.27,1.85,33.63,-149.6875,41.1875,663.75,0.06610107421875,0.72552490234375,0.2215576171875,0.0278,19.1875,0.75,-55.8125,3.99,-0.6,moving,7
5.38,1663681.922500202,26,3,3,3,0,231.0,0.68,1.21,11.24,-3.34,1.7,31.56,-161.25,35.3125,672.125,0.08258056640625,0.7198486328125,0.21014404296875,0.0292,18.0625,-8.5625,-55.75,4.02,-0.49,moving,7
5.39,1663681.922500202,26,3,3,3,0,259.0,-0.15,0.81,11.51,-4.2,1.17,29.19,-166.25,25.9375,680.8125,0.09771728515625,0.71331787109375,0.19891357421875,0.0292,18.0625,-8.5625,-55.75,4.05,-0.36,moving,7
5.4,1663681.947610635,26,3,3,3,0,203.0,0.25,0.63,10.94,-3.83,0.84,27.55,-176.9375,24.5,690.0,0.1123046875,0.7056884765625,0.1881103515625,0.0292,18.0625,-8.5625,-55.6875,4.08,-0.2,moving,7
5.41,1663681.947610635,26,3,3,3,0,-12.0,-0.33,1.09,8.77,-4.46,1.12,25.54,-187.625,30.0,699.5,0.12664794921875,0.69683837890625,0.17816162109375,0.0292,18.0625,-8.5625,-55.5625,4.13,-0.03,moving,7
5.42,1663681.961105224,26,3,3,3,0,-363.0,0.01,2.16,5.24,-4.16,2.01,21.96,-180.5625,25.9375,708.625,0.13916015625,0.687744140625,0.16937255859375,0.0292,18.0625,-8.5625,-55.4375,4.17,0.14,moving,7
5.43,1663681.961105224,26,3,3,3,0,-1432.0,-0.52,7.33,-5.46,-4.72,7.01,16.22,-159.125,8.5625,716.9375,0.148193359375,0.679443359375,0.161865234375,0.03,18.75,-21.0625,-55.3125,4.19,0.32,moving,7
5.44,1663682.023656412,26,3,3,3,0,-1885.0,1.12,10.4,-9.99,-3.07,10.09,2.33,4.875,5.5625,716.375,0.14935302734375,0.67987060546875,0.16143798828125,0.03,18.75,-21.0625,-55.3125,4.2,0.3,moving,7
5.45,1663682.023656412,26,3,3,3,0,-2951.0,6.54,11.89,-20.62,2.4,11.96,-15.01,286.25,-33.875,700.4375,0.13751220703125,0.69622802734375,0.16864013671875,0.03,18.75,-21.0625,-55.5,4.14,-0.07,moving,7
5.46,1663682.02865511,26,3,3,3,0,-3954.0,6.18,2.48,-30.55,2.32,3.17,-13.7,433.375,-185.0625,676.75,0.11468505859375,0.722412109375,0.1678466796875,0.03,18.75,-21.0625,-56.125,3.86,-0.68,moving,7
5.47,1663682.02865511,26,3,3,3,0,-3947.0,-5.46,5.17,-30.27,-8.63,6.35,15.92,275.4375,-426.625,663.6875,0.08941650390625,0.74322509765625,0.13958740234375,0.03,18.75,-21.0625,-57.5,3.17,-1.18,moving,7
5.48,1663682.033151448,26,3,3,3,0,-3871.0,-11.89,4.93,-29.33,-14.49,6.16,13.78,1.125,-339.125,666.875,0.072265625,0.74664306640625,0.11480712890625,0.0295,17.375,-29.5625,-58.5625,2.6,-1.22,moving,7
5.49,1663682.033151448,26,3,3,3,0,-2745.0,-4.04,-8.21,-18.02,-6.56,-7.29,-9.43,-170.9375,-61.375,679.25,0.06658935546875,0.736572265625,0.114013671875,0.0295,17.375,-29.5625,-58.9375,2.51,-0.92,moving,7
5.5,1663682.051409301,26,3,3,3,0,-1737.0,11.29,-20.8,-7.91,8.75,-20.35,-44.98,-209.5625,-2.3125,694.4375,0.05218505859375,0.7213134765625,0.13067626953125,0.0295,17.375,-29.5625,-59.125,2.54,-0.45,moving,7
5.51,1663682.051409301,26,3,3,3,0,-1523.0,7.56,-20.48,-5.76,5.03,-20.45,-79.97,-120.125,-18.6875,704.0,0.02276611328125,0.7078857421875,0.1602783203125,0.0295,17.375,-29.5625,-59.1875,2.53,-0.03,moving,7
5.52,1663682.066740925,26,3,3,3,0,-1174.0,8.14,-9.36,-2.26,5.64,-9.44,-47.75,10.4375,-15.625,703.9375,0.00372314453125,0.70416259765625,0.17767333984375,0.0295,17.375,-29.5625,-59.25,2.5,0.08,moving,7
5.53,1663682.066740925,26,3,3,3,0,-1174.0,8.14,-9.36,-2.26,5.64,-9.44,-47.75,10.4375,-15.625,703.9375,0.00372314453125,0.70416259765625,0.17767333984375,0.0295,17.375,-29.5625,-59.25,2.5,0.08,moving,7
5.54,1663682.072229695,26,3,3,3,0,-1159.0,5.96,-2.5,-2.1,3.49,-2.43,-35.74,146.5625,-19.625,694.9375,-0.01312255859375,0.70928955078125,0.190185546875,0.027,21.875,-35.5625,-59.3125,2.47,-0.06,moving,7
5.54,1663682.072229695,26,3,3,3,0,-916.0,3.18,0.92,0.32,0.74,1.24,-28.33,197.6875,-23.875,682.4375,-0.02838134765625,0.71783447265625,0.19940185546875,0.027,21.875,-35.5625,-59.3125,2.43,-0.31,moving,7
5.55,1663682.096634683,26,3,3,3,0,-667.0,3.02,1.36,2.81,0.63,1.97,-21.72,214.75,-30.375,668.6875,-0.04193115234375,0.72772216796875,0.20556640625,0.027,21.875,-35.5625,-59.25,2.39,-0.61,moving,7
5.56,1663682.096634683,26,3,3,3,0,-508.0,2.82,1.28,4.39,0.46,2.13,-22.37,171.6875,-33.6875,657.4375,-0.05511474609375,0.7347412109375,0.2117919921875,0.027,21.875,-35.5625,-59.25,2.35,-0.84,moving,7
5.57,1663682.111409382,26,3,3,3,0,-374.0,2.18,1.8,5.73,-0.15,2.71,-26.91,84.125,-30.4375,651.5625,-0.06805419921875,0.73614501953125,0.22039794921875,0.027,21.875,-35.5625,-59.25,2.33,-0.91,moving,7
5.58,1663682.111409382,26,3,3,3,0,-16.0,0.84,2.01,9.32,-1.47,2.9,-30.31,35.0,-28.0,648.5625,-0.0810546875,0.73419189453125,0.23077392578125,0.0267,21.5,-18.0625,-59.25,2.31,-0.89,moving,7
5.59,1663682.142819172,26,3,3,3,0,77.0,-0.24,1.72,10.26,-2.54,2.56,-33.37,23.3125,-28.0,646.0,-0.0948486328125,0.73095703125,0.24237060546875,0.0267,21.5,-18.0625,-59.3125,2.3,-0.84,moving,7
5.6,1663682.142819172,26,3,3,3,0,149.0,-1.11,1.88,10.99,-3.4,2.69,-36.82,28.25,-28.4375,642.6875,-0.10992431640625,0.72723388671875,0.25518798828125,0.0267,21.5,-18.0625,-59.375,2.28,-0.8,moving,7
5.61,1663682.156885253,26,3,3,3,0,217.0,-1.88,1.87,11.68,-4.14,2.66,-39.87,51.75,-33.75,637.5,-0.1268310546875,0.72406005859375,0.2685546875,0.0267,21.5,-18.0625,-59.375,2.26,-0.79,moving,7
5.62,1663682.156885253,26,3,3,3,0,352.0,-2.65,0.44,13.03,-4.88,1.25,-41.59,74.25,-41.3125,630.5625,-0.145263671875,0.7213134765625,0.28179931640625,0.0267,21.5,-18.0625,-59.4375,2.23,-0.81,moving,7
5.63,1663682.186338175,26,3,3,3,0,424.0,-3.26,-0.37,13.76,-5.45,0.46,-42.02,76.3125,-50.1875,623.3125,-0.16436767578125,0.7181396484375,0.2945556640625,0.0264,21.875,-10.0,-59.5,2.18,-0.83,moving,7
5.64,1663682.186338175,26,3,3,3,0,457.0,-3.79,-0.09,14.1,-5.93,0.76,-40.01,71.25,-53.375,616.25,-0.18280029296875,0.71453857421875,0.3062744140625,0.0264,21.875,-10.0,-59.5625,2.13,-0.86,moving,7
5.65,1663682.191974486,26,3,3,3,0,382.0,-3.52,1.18,13.36,-5.61,2.1,-34.64,81.375,-47.5,608.6875,-0.19927978515625,0.712158203125,0.31585693359375,0.0264,21.875,-10.0,-59.5625,2.08,-0.91,moving,7
5.66,1663682.191974486,26,3,3,3,0,335.0,-2.53,1.48,12.89,-4.58,2.47,-30.95,87.8125,-43.1875,600.8125,-0.21435546875,0.71051025390625,0.32403564453125,0.0264,21.875,-10.0,-59.5625,2.04,-0.99,moving,7
5.67,1663682.217450194,26,3,3,3,0,297.0,-1.5,0.93,12.51,-3.5,1.99,-30.34,82.8125,-47.5,593.1875,-0.2293701171875,0.7083740234375,0.33172607421875,0.0264,21.875,-10.0,-59.625,2.0,-1.06,moving,7
5.68,1663682.217450194,26,3,3,3,0,167.0,-0.19,0.6,11.21,-2.15,1.71,-30.02,63.8125,-44.0,586.5,-0.24334716796875,0.7052001953125,0.33978271484375,0.0246,20.0625,4.75,-59.625,1.96,-1.1,moving,7
5.69,1663682.230887898,26,3,3,3,0,-727.0,3.9,1.17,2.27,1.95,2.29,-31.45,46.375,-30.875,580.125,-0.2564697265625,0.700927734375,0.3492431640625,0.0246,20.0625,4.75,-59.625,1.95,-1.11,moving,7
5.7,1663682.230887898,26,3,3,3,0,-1354.0,5.52,2.29,-4.01,3.52,3.4,-28.79,27.5625,5.0,574.0625,-0.265869140625,0.69683837890625,0.35980224609375,0.0246,20.0625,4.75,-59.5625,1.99,-1.1,moving,7
5.71,1663682.262706868,26,3,3,3,0,-2210.0,7.5,3.89,-12.58,5.44,5.06,1.62,38.5,36.375,570.75,-0.26434326171875,0.69989013671875,0.360107421875,0.0246,20.0625,4.75,-59.4375,2.05,-1.17,moving,7
5.72,1663682.262706868,26,3,3,3,0,-3414.0,10.01,15.43,-24.68,7.88,16.92,44.29,128.25,84.3125,566.3125,-0.24969482421875,0.7164306640625,0.34417724609375,0.0246,20.0625,4.75,-59.0625,2.12,-1.48,moving,7
5.73,1663682.277216674,26,3,3,3,0,-3387.0,29.05,7.3,-24.51,26.8,9.2,16.2,231.4375,93.5,550.75,-0.245849609375,0.73248291015625,0.33721923828125,0.0241,19.0,15.6875,-58.4375,2.25,-1.9,moving,7
5.74,1663682.277216674,26,3,3,3,0,-2960.0,24.02,-0.78,-20.31,21.68,1.33,-13.18,151.8125,34.9375,537.9375,-0.25189208984375,0.73785400390625,0.34088134765625,0.0241,19.0,15.6875,-58.0,2.33,-2.11,moving,7
5.75,1663682.291017903,26,3,3,3,0,-2727.0,21.62,-9.08,-17.95,19.21,-7.22,-15.84,-130.3125,22.9375,543.5625,-0.25103759765625,0.72930908203125,0.35113525390625,0.0241,19.0,15.6875,-58.25,2.4,-1.86,moving,7
5.76,1663682.291017903,26,3,3,3,0,-2310.0,15.48,-7.94,-13.69,12.99,-6.79,-10.16,-419.3125,38.4375,567.8125,-0.23846435546875,0.70831298828125,0.365966796875,0.0241,19.0,15.6875,-58.8125,2.48,-1.14,moving,7
5.77,1663682.32358081,26,3,3,3,0,-3011.0,-7.78,-27.77,-20.64,-10.34,-27.53,-3.55,-544.25,40.125,599.8125,-0.21942138671875,0.68133544921875,0.38018798828125,0.0241,19.0,15.6875,-59.125,2.55,-0.24,moving,7
5.78,1663682.32358081,26,3,3,3,0,-2157.0,-7.82,-31.42,-12.12,-10.41,-31.86,12.83,-432.5,15.1875,626.6875,-0.199951171875,0.6617431640625,0.38421630859375,0.0234,19.0,14.0625,-59.0,2.58,0.43,moving,7
5.8,1663682.337714436,26,3,3,3,0,-1784.0,-0.26,-8.39,-8.4,-2.85,-8.87,36.18,-92.6875,-4.625,636.1875,-0.18499755859375,0.66412353515625,0.3724365234375,0.0234,19.0,14.0625,-59.0,2.59,0.48,moving,7
5.8,1663682.337714436,26,3,3,3,0,-1784.0,-0.26,-8.39,-8.4,-2.85,-8.87,36.18,-92.6875,-4.625,636.1875,-0.18499755859375,0.66412353515625,0.3724365234375,0.0234,19.0,14.0625,-59.0,2.59,0.48,moving,7
5.81,1663682.350858316,26,3,3,3,0,-894.0,1.78,-1.39,0.51,-0.78,-1.57,37.53,119.8125,-22.3125,633.5,-0.1773681640625,0.677734375,0.3555908203125,0.0234,19.0,14.0625,-59.125,2.57,0.18,moving,7
5.81,1663682.350858316,26,3,3,3,0,-672.0,3.21,-0.12,2.75,0.68,0.07,34.02,174.0,-31.0,627.125,-0.173095703125,0.69305419921875,0.33856201171875,0.0234,19.0,14.0625,-59.1875,2.52,-0.2,moving,7
5.82,1663682.36602067,26,3,3,3,0,-575.0,2.95,1.21,3.71,0.48,1.75,26.49,156.25,-28.5625,620.75,-0.17059326171875,0.70574951171875,0.3245849609375,0.0234,19.0,14.0625,-59.1875,2.46,-0.53,moving,7
5.83,1663682.36602067,26,3,3,3,0,-487.0,1.8,0.95,4.6,-0.62,1.63,19.38,56.8125,-11.75,619.25,-0.16650390625,0.71197509765625,0.31561279296875,0.0259,18.375,13.0,-59.1875,2.43,-0.67,moving,7
5.84,1663682.381285847,26,3,3,3,0,-155.0,3.18,1.43,7.91,0.76,2.1,17.32,-33.6875,1.9375,622.875,-0.15972900390625,0.71319580078125,0.30950927734375,0.0259,18.375,13.0,-59.1875,2.42,-0.67,moving,7
5.85,1663682.381285847,26,3,3,3,0,-81.0,3.75,1.2,8.66,1.32,1.84,16.76,-48.125,8.8125,627.125,-0.15228271484375,0.713623046875,0.3040771484375,0.0259,18.375,13.0,-59.25,2.42,-0.63,moving,7
5.86,1663682.457908976,26,3,3,3,0,-14.0,4.23,0.43,9.33,1.79,1.06,17.0,-34.0,18.6875,630.1875,-0.14453125,0.71484375,0.29888916015625,0.0259,18.375,13.0,-59.1875,2.44,-0.62,moving,7
5.87,1663682.457908976,26,3,3,3,0,79.0,4.45,0.23,10.26,1.97,0.85,17.92,-36.0625,25.5,633.1875,-0.135986328125,0.71612548828125,0.293701171875,0.0259,18.375,13.0,-59.125,2.47,-0.61,moving,7
5.89,1663682.487706624,26,3,3,3,0,369.0,3.24,0.42,13.16,0.75,1.03,20.68,-34.5625,21.4375,636.375,-0.12677001953125,0.71783447265625,0.2872314453125,0.0251,19.875,4.5,-59.125,2.49,-0.61,moving,7
5.9,1663682.487706624,26,3,3,3,0,422.0,2.81,0.9,13.68,0.3,1.55,26.19,-21.375,16.0,639.0625,-0.1163330078125,0.72088623046875,0.27801513671875,0.0251,19.875,4.5,-59.0625,2.5,-0.65,moving,7
5.9,1663682.492606689,26,3,3,3,0,417.0,2.48,2.01,13.63,-0.02,2.72,30.7,-11.1875,10.75,641.375,-0.10491943359375,0.7249755859375,0.26666259765625,0.0251,19.875,4.5,-59.0625,2.5,-0.71,moving,7
5.91,1663682.492606689,26,3,3,3,0,429.0,2.3,2.78,13.75,-0.18,3.58,30.66,-2.1875,2.5625,643.125,-0.09417724609375,0.729248046875,0.254638671875,0.0251,19.875,4.5,-59.0625,2.48,-0.79,moving,7
5.92,1663682.497663655,26,3,3,3,0,480.0,1.86,2.21,14.25,-0.59,3.09,29.51,1.8125,2.625,644.4375,-0.08392333984375,0.7333984375,0.2430419921875,0.0251,19.875,4.5,-59.0625,2.46,-0.88,moving,7
5.93,1663682.497663655,26,3,3,3,0,473.0,1.33,1.88,14.18,-1.1,2.82,28.92,-10.3125,6.0625,646.1875,-0.0733642578125,0.73663330078125,0.23187255859375,0.0261,20.375,-3.25,-59.0625,2.44,-0.94,moving,7
5.94,1663682.502242187,26,3,3,3,0,435.0,1.12,1.89,13.8,-1.31,2.87,29.09,-26.25,12.6875,648.75,-0.06195068359375,0.7388916015625,0.22100830078125,0.0261,20.375,-3.25,-59.0,2.43,-0.97,moving,7
5.95,1663682.502242187,26,3,3,3,0,352.0,0.88,1.87,12.97,-1.55,2.85,29.21,-44.0625,21.9375,652.125,-0.04962158203125,0.739990234375,0.210693359375,0.0261,20.375,-3.25,-59.0,2.43,-0.98,moving,7
5.96,1663682.507155883,26,3,3,3,0,120.0,-0.75,4.07,10.65,-3.22,5.01,27.6,-66.625,32.375,656.5625,-0.03668212890625,0.739501953125,0.20166015625,0.0261,20.375,-3.25,-59.0,2.46,-0.94,moving,7
5.98,1663682.507155883,26,3,3,3,0,-116.0,-1.11,4.95,8.27,-3.62,5.83,22.5,-78.625,40.125,661.375,-0.0247802734375,0.7376708984375,0.195068359375,0.0261,20.375,-3.25,-58.9375,2.5,-0.87,moving,7
5.98,1663682.546772745,26,3,3,3,0,-511.0,0.05,5.0,4.32,-2.48,5.78,17.85,-87.5625,32.3125,666.75,-0.01495361328125,0.73468017578125,0.18994140625,0.0271,20.375,-12.875,-58.9375,2.54,-0.78,moving,7
5.99,1663682.546772745,26,3,3,3,0,-2035.0,-3.66,3.01,-10.91,-6.22,3.65,17.5,-117.4375,15.625,674.3125,-0.0057373046875,0.729736328125,0.1839599609375,0.0271,20.375,-12.875,-59.0,2.55,-0.63,moving,7
6.0,1663682.551856485,26,3,3,3,0,-2580.0,0.52,10.95,-16.35,-2.04,11.46,23.9,-117.5,18.875,681.625,0.00592041015625,0.72528076171875,0.175537109375,0.0271,20.375,-12.875,-59.0,2.57,-0.51,moving,7
6.01,1663682.551856485,26,3,3,3,0,-3954.0,9.36,11.87,-30.08,6.84,12.41,9.12,3.625,-27.0625,681.75,0.0074462890625,0.72637939453125,0.17041015625,0.0271,20.375,-12.875,-59.125,2.52,-0.54,moving,7
6.02,1663682.562125935,26,3,3,3,0,-3824.0,3.06,8.8,-28.71,0.85,9.51,14.27,78.3125,-187.375,679.375,-0.0003662109375,0.73223876953125,0.15386962890625,0.0271,20.375,-12.875,-59.5,2.2,-0.7,moving,7
6.03,1663682.562125935,26,3,3,3,0,-3542.0,-8.34,5.09,-25.83,-10.14,6.06,34.03,116.4375,-224.1875,674.5625,-0.00396728515625,0.74151611328125,0.12725830078125,0.0271,21.0,-21.5,-59.9375,1.8,-0.97,moving,7
6.04,1663682.591866617,26,3,3,3,0,-3061.0,-3.57,-2.97,-21.0,-5.19,-1.87,26.05,46.625,-91.5625,672.5,-0.00103759765625,0.745849609375,0.1114501953125,0.0271,21.0,-21.5,-60.0,1.61,-1.1,moving,7
6.06,1663682.591866617,26,3,3,3,0,-2514.0,-0.71,-10.95,-15.49,-2.25,-10.07,16.1,-149.875,-34.375,682.75,0.00390625,0.73809814453125,0.1029052734375,0.0271,21.0,-21.5,-60.25,1.54,-0.87,moving,7
6.06,1663682.606327311,26,3,3,3,0,-2514.0,-0.71,-10.95,-15.49,-2.25,-10.07,16.1,-149.875,-34.375,682.75,0.00390625,0.73809814453125,0.1029052734375,0.0271,21.0,-21.5,-60.25,1.54,-0.87,moving,7
6.06,1663682.606327311,26,3,3,3,0,-2233.0,3.12,-14.71,-12.64,1.61,-14.32,4.54,-294.875,-16.3125,702.125,0.00714111328125,0.720947265625,0.0999755859375,0.0271,21.0,-21.5,-60.5,1.51,-0.38,moving,7
6.07,1663682.652908772,26,3,3,3,0,-1477.0,7.47,-18.54,-5.09,5.94,-18.58,-33.63,-217.0,5.9375,715.9375,-0.003173828125,0.70587158203125,0.1134033203125,0.0271,21.0,-21.5,-60.5,1.52,0.03,moving,7
6.08,1663682.652908772,26,3,3,3,0,-1370.0,3.76,-7.77,-4.01,2.22,-7.91,-39.04,-23.75,6.5625,717.1875,-0.01739501953125,0.70184326171875,0.1287841796875,0.0244,22.5,-33.5625,-60.5,1.53,0.13,moving,7
6.09,1663682.659208211,26,3,3,3,0,-1239.0,3.19,-3.43,-2.7,1.66,-3.45,-27.01,98.375,-2.8125,710.6875,-0.02899169921875,0.70587158203125,0.1387939453125,0.0244,22.5,-33.5625,-60.5,1.52,0.01,moving,7
6.1,1663682.659208211,26,3,3,3,0,-1092.0,2.47,-1.76,-1.23,0.97,-1.54,-22.11,161.0625,-21.0625,700.25,-0.04058837890625,0.71380615234375,0.14556884765625,0.0244,22.5,-33.5625,-60.5,1.49,-0.21,moving,7
6.11,1663682.66447937,26,3,3,3,0,-553.0,0.89,-2.13,4.15,-0.56,-1.64,-16.81,181.4375,-22.75,688.5,-0.05059814453125,0.72308349609375,0.15008544921875,0.0244,22.5,-33.5625,-60.5,1.46,-0.49,moving,7
6.12,1663682.66447937,26,3,3,3,0,-405.0,0.6,-1.09,5.61,-0.84,-0.36,-12.9,150.8125,-13.125,678.5,-0.05810546875,0.73077392578125,0.1536865234375,0.0244,22.5,-33.5625,-60.4375,1.44,-0.73,moving,7
6.14,1663682.681244466,26,3,3,3,0,-322.0,-0.1,0.16,6.43,-1.55,1.03,-13.8,89.4375,-8.875,672.25,-0.06488037109375,0.73468017578125,0.158203125,0.0246,22.5625,-30.25,-60.375,1.44,-0.86,moving,7
6.15,1663682.681244466,26,3,3,3,0,-248.0,-0.73,3.51,7.17,-2.17,4.39,-15.69,26.125,-11.0,670.0625,-0.07159423828125,0.7347412109375,0.1636962890625,0.0246,22.5625,-30.25,-60.375,1.44,-0.88,moving,7
6.15,1663682.696550577,26,3,3,3,0,-179.0,-0.94,4.06,7.87,-2.37,4.87,-19.55,-21.6875,-16.75,670.9375,-0.079345703125,0.73162841796875,0.170654296875,0.0246,22.5625,-30.25,-60.375,1.42,-0.81,moving,7
6.16,1663682.696550577,26,3,3,3,0,-95.0,-1.53,3.59,8.72,-2.94,4.29,-26.62,-43.875,-23.5625,672.875,-0.08966064453125,0.72637939453125,0.18023681640625,0.0246,22.5625,-30.25,-60.4375,1.41,-0.7,moving,7
6.17,1663682.711562133,26,3,3,3,0,32.0,-2.64,2.99,10.01,-4.02,3.58,-31.18,-36.8125,-31.5625,674.125,-0.102294921875,0.72088623046875,0.19097900390625,0.0246,22.5625,-30.25,-60.5625,1.38,-0.59,moving,7
6.18,1663682.711562133,26,3,3,3,0,168.0,-3.54,1.81,11.38,-4.87,2.32,-33.13,-18.0625,-38.75,673.9375,-0.11627197265625,0.7159423828125,0.201904296875,0.0243,22.5625,-21.75,-60.625,1.33,-0.51,moving,7
6.19,1663682.741103474,26,3,3,3,0,265.0,-3.74,1.42,12.37,-5.02,1.88,-36.41,-4.125,-46.3125,672.5625,-0.13214111328125,0.7110595703125,0.21343994140625,0.0243,22.5625,-21.75,-60.6875,1.27,-0.45,moving,7
6.21,1663682.741103474,26,3,3,3,0,311.0,-4.14,1.04,12.84,-5.34,1.45,-39.45,5.3125,-53.0,670.125,-0.149658203125,0.70599365234375,0.2255859375,0.0243,22.5625,-21.75,-60.75,1.2,-0.4,moving,7
6.22,1663682.7560684,26,3,3,3,0,346.0,-4.31,0.77,13.2,-5.44,1.16,-39.01,15.0,-50.75,666.8125,-0.1669921875,0.70123291015625,0.2374267578125,0.0243,22.5625,-21.75,-60.8125,1.13,-0.38,moving,7
6.23,1663682.7560684,26,3,3,3,0,259.0,-4.06,1.25,12.33,-5.14,1.64,-35.09,25.4375,-38.25,662.625,-0.18231201171875,0.69744873046875,0.24822998046875,0.0243,22.5625,-21.75,-60.8125,1.08,-0.38,moving,7
6.23,1663682.770693562,26,3,3,3,0,215.0,-4.01,1.69,11.89,-5.06,2.1,-31.46,36.25,-25.8125,657.625,-0.19573974609375,0.6947021484375,0.25811767578125,0.0234,22.25,-12.0625,-60.875,1.05,-0.41,moving,7
6.24,1663682.770693562,26,3,3,3,0,236.0,-4.15,1.98,12.1,-5.19,2.43,-30.2,44.1875,-16.1875,651.875,-0.208251953125,0.69256591796875,0.267822265625,0.0234,22.25,-12.0625,-60.875,1.03,-0.45,moving,7
6.25,1663682.802731567,26,3,3,3,0,259.0,-3.75,1.98,12.33,-4.8,2.48,-30.56,49.75,-1.625,645.1875,-0.22015380859375,0.69073486328125,0.27825927734375,0.0234,22.25,-12.0625,-60.8125,1.04,-0.5,moving,7
6.26,1663682.802731567,26,3,3,3,0,59.0,-0.56,-0.42,10.32,-1.66,0.13,-29.83,54.5625,19.3125,637.625,-0.23052978515625,0.689453125,0.28948974609375,0.0234,22.25,-12.0625,-60.75,1.09,-0.55,moving,7
6.27,1663682.817248942,26,3,3,3,0,-770.0,1.64,-0.53,2.0,0.45,0.07,-25.31,50.4375,46.1875,630.0,-0.23760986328125,0.68902587890625,0.3004150390625,0.0234,22.25,-12.0625,-60.6875,1.19,-0.61,moving,7
6.28,1663682.817248942,26,3,3,3,0,-1815.0,6.26,0.65,-8.46,4.91,1.33,-20.71,53.5,85.9375,621.5625,-0.24078369140625,0.69024658203125,0.3116455078125,0.0238,21.5,-0.75,-60.5,1.35,-0.67,moving,7
6.3,1663682.83168164,26,3,3,3,0,-2964.0,14.83,4.44,-20.0,13.32,5.38,3.37,152.1875,98.8125,609.8125,-0.23785400390625,0.70086669921875,0.3123779296875,0.0238,21.5,-0.75,-60.25,1.51,-0.93,moving,7
6.31,1663682.83168164,26,3,3,3,0,-3954.0,38.34,15.69,-29.99,36.69,17.19,34.8,299.125,107.625,592.375,-0.22802734375,0.72412109375,0.29827880859375,0.0238,21.5,-0.75,-59.6875,1.64,-1.49,moving,7
6.31,1663682.846590616,26,3,3,3,0,-3954.0,38.34,15.69,-29.99,36.69,17.19,34.8,299.125,107.625,592.375,-0.22802734375,0.72412109375,0.29827880859375,0.0238,21.5,-0.75,-59.6875,1.64,-1.49,moving,7
6.32,1663682.846590616,26,3,3,3,0,-3336.0,29.61,1.17,-23.88,27.88,2.98,-13.45,206.25,37.125,576.25,-0.2352294921875,0.73291015625,0.30133056640625,0.0238,21.5,-0.75,-59.1875,1.73,-1.81,moving,7
6.32,1663682.861478108,26,3,3,3,0,-2160.0,20.01,-5.58,-12.1,18.16,-3.99,-45.99,-81.25,16.8125,574.875,-0.2459716796875,0.72149658203125,0.32208251953125,0.0238,21.5,-0.75,-59.3125,1.84,-1.58,moving,7
6.33,1663682.861478108,26,3,3,3,0,-2412.0,8.2,-14.4,-14.56,6.27,-13.44,-23.18,-351.125,30.8125,593.125,-0.24114990234375,0.70050048828125,0.340087890625,0.0229,20.1875,7.25,-59.75,1.93,-0.95,moving,7
6.34,1663682.892621663,26,3,3,3,0,-2292.0,-2.57,-22.88,-13.32,-4.56,-22.71,5.31,-481.875,34.1875,622.375,-0.22283935546875,0.67724609375,0.34967041015625,0.0229,20.1875,7.25,-60.0,1.98,-0.16,moving,7
6.35,1663682.892621663,26,3,3,3,0,-1879.0,-4.12,-13.99,-9.2,-6.15,-14.35,34.05,-361.0625,24.5625,647.25,-0.19891357421875,0.66461181640625,0.34521484375,0.0229,20.1875,7.25,-59.875,2.03,0.36,moving,7
6.36,1663682.906748372,26,3,3,3,0,-1475.0,-0.73,-5.51,-5.18,-2.81,-5.98,46.91,-122.0,11.9375,659.0625,-0.17828369140625,0.66668701171875,0.33087158203125,0.0229,20.1875,7.25,-59.8125,2.07,0.46,moving,7
6.38,1663682.906748372,26,3,3,3,0,-863.0,2.87,1.11,0.93,0.78,0.74,43.82,-2.5,-4.25,663.5,-0.16302490234375,0.6741943359375,0.314697265625,0.0229,20.1875,7.25,-59.8125,2.08,0.36,moving,7
6.39,1663682.921648803,26,3,3,3,0,-696.0,3.27,0.63,2.61,1.19,0.38,37.08,24.5,-9.3125,665.5,-0.151123046875,0.68170166015625,0.30010986328125,0.0236,19.0625,12.375,-59.8125,2.08,0.24,moving,7
6.4,1663682.921648803,26,3,3,3,0,-551.0,2.8,0.65,4.06,0.7,0.46,33.55,-12.4375,2.0,668.875,-0.13873291015625,0.6864013671875,0.28790283203125,0.0236,19.0625,12.375,-59.8125,2.09,0.18,moving,7
6.4,1663682.951135904,26,3,3,3,0,-407.0,2.62,0.58,5.49,0.49,0.34,32.57,-71.1875,16.5,675.1875,-0.12432861328125,0.68756103515625,0.2774658203125,0.0236,19.0625,12.375,-59.75,2.13,0.23,moving,7
6.41,1663682.951135904,26,3,3,3,0,-278.0,2.51,1.26,6.76,0.32,0.93,33.22,-108.625,26.4375,683.375,-0.108154296875,0.6865234375,0.26763916015625,0.0236,19.0625,12.375,-59.6875,2.18,0.33,moving,7
6.42,1663682.966147379,26,3,3,3,0,-213.0,2.81,0.9,7.39,0.55,0.45,34.36,-115.625,33.375,691.5625,-0.09088134765625,0.68499755859375,0.2578125,0.0236,19.0625,12.375,-59.5625,2.25,0.44,moving,7
6.43,1663682.966147379,26,3,3,3,0,-177.0,3.41,0.67,7.72,1.06,0.11,34.66,-123.25,42.3125,699.6875,-0.07281494140625,0.68280029296875,0.248291015625,0.0256,21.25,-0.375,-59.375,2.34,0.55,moving,7
6.45,1663683.012680175,26,3,3,3,0,-85.0,3.58,0.55,8.61,1.13,-0.13,34.55,-134.125,45.875,708.0625,-0.05426025390625,0.67962646484375,0.23895263671875,0.0256,21.25,-0.375,-59.1875,2.44,0.69,moving,7
6.46,1663683.012680175,26,3,3,3,0,152.0,2.65,0.35,10.96,0.1,-0.45,35.13,-131.625,41.875,716.0,-0.0357666015625,0.67626953125,0.22900390625,0.0256,21.25,-0.375,-58.9375,2.54,0.81,moving,7
6.47,1663683.018174723,26,3,3,3,0,262.0,2.06,0.66,12.02,-0.57,-0.25,35.73,-127.5,32.25,723.5,-0.01763916015625,0.67291259765625,0.21820068359375,0.0256,21.25,-0.375,-58.75,2.63,0.91,moving,7
6.48,1663683.018174723,26,3,3,3,0,371.0,1.93,0.93,13.08,-0.77,-0.07,36.21,-117.0625,21.9375,730.3125,-0.00018310546875,0.669921875,0.2064208984375,0.0256,21.25,-0.375,-58.5625,2.7,1.0,moving,7
6.48,1663683.025441162,26,3,3,3,0,390.0,1.68,1.59,13.24,-1.09,0.53,36.53,-96.8125,18.3125,735.5625,0.016845703125,0.6678466796875,0.19415283203125,0.0262,20.875,-13.25,-58.375,2.78,1.05,moving,7
6.5,1663683.025441162,26,3,3,3,0,383.0,1.17,2.01,13.15,-1.67,0.95,37.08,-75.5625,17.25,739.25,0.03369140625,0.6668701171875,0.181640625,0.0262,20.875,-13.25,-58.25,2.85,1.06,moving,7
6.51,1663683.056721923,26,3,3,3,0,408.0,0.88,2.43,13.38,-2.04,1.39,36.84,-58.8125,17.125,741.5625,0.0501708984375,0.66668701171875,0.16912841796875,0.0262,20.875,-13.25,-58.125,2.92,1.04,moving,7
6.51,1663683.056721923,26,3,3,3,0,412.0,0.16,2.42,13.41,-2.82,1.43,34.9,-43.0625,16.625,742.75,0.0655517578125,0.6669921875,0.15728759765625,0.0262,20.875,-13.25,-58.0,2.98,0.99,moving,7
6.53,1663683.086778808,26,3,3,3,0,228.0,-1.23,2.8,11.55,-4.29,1.87,33.24,-26.6875,18.3125,742.75,0.08013916015625,0.66790771484375,0.14617919921875,0.0262,20.875,-13.25,-57.9375,3.05,0.93,moving,7
6.54,1663683.086778808,26,3,3,3,0,90.0,-1.83,3.61,10.16,-4.94,2.76,30.75,-14.9375,14.9375,741.9375,0.0933837890625,0.66925048828125,0.1358642578125,0.0259,21.25,-25.5625,-57.875,3.1,0.85,stop,7
6.55,1663683.092096517,26,3,3,3,0,-210.0,-1.75,4.38,7.15,-4.89,3.61,24.82,-1.8125,7.125,740.5625,0.1036376953125,0.67083740234375,0.127197265625,0.0259,21.25,-25.5625,-57.8125,3.14,0.76,stop,7
6.56,1663683.092096517,26,3,3,3,0,-850.0,-1.43,5.45,0.75,-4.57,4.74,13.41,10.25,-12.8125,739.3125,0.10809326171875,0.67254638671875,0.12164306640625,0.0259,21.25,-25.5625,-57.875,3.13,0.7,stop,7
6.56,1663683.147099446,26,3,3,3,0,-2095.0,-1.1,10.12,-11.66,-4.19,9.5,-2.97,59.25,-27.5,736.1875,0.10467529296875,0.67633056640625,0.12152099609375,0.0259,21.25,-25.5625,-58.0,3.08,0.62,stop,7
6.57,1663683.147099446,26,3,3,3,0,-2095.0,-1.1,10.12,-11.66,-4.19,9.5,-2.97,59.25,-27.5,736.1875,0.10467529296875,0.67633056640625,0.12152099609375,0.0259,21.25,-25.5625,-58.0,3.08,0.62,stop,7
6.58,1663683.152911539,26,3,3,3,0,-3318.0,2.86,16.97,-23.86,-0.17,16.69,-8.77,225.75,-27.625,723.1875,0.09716796875,0.69000244140625,0.12506103515625,0.0259,21.25,-25.5625,-58.1875,3.03,0.28,stop,7
6.59,1663683.152911539,26,3,3,3,0,-3954.0,-0.09,9.46,-30.16,-2.93,9.87,-7.45,442.875,-119.0,697.125,0.082275390625,0.7171630859375,0.12420654296875,0.0262,20.875,-35.6875,-58.5625,2.84,-0.41,stop,7
6.6,1663683.158148681,26,3,3,3,0,-3936.0,-7.47,5.0,-29.93,-10.01,5.86,7.11,254.875,-179.6875,682.1875,0.07086181640625,0.73382568359375,0.112548828125,0.0262,20.875,-35.6875,-58.9375,2.54,-0.85,stop,7
6.61,1663683.158148681,26,3,3,3,0,-2829.0,-3.34,-10.07,-18.81,-5.73,-9.22,3.16,-9.6875,-93.4375,683.625,0.06610107421875,0.73394775390625,0.10577392578125,0.0262,20.875,-35.6875,-59.1875,2.38,-0.84,stop,7
6.62,1663683.176620483,26,3,3,3,0,-2684.0,1.75,-6.2,-17.32,-0.56,-5.93,-7.03,-331.25,-40.375,705.75,0.06396484375,0.71417236328125,0.104248046875,0.0262,20.875,-35.6875,-59.5,2.32,-0.27,stop,7
6.63,1663683.176620483,26,3,3,3,0,-2427.0,11.27,-16.44,-14.74,8.98,-16.84,-60.27,-312.9375,-16.125,727.375,0.0430908203125,0.69140625,0.1248779296875,0.0262,20.875,-35.6875,-59.5,2.29,0.39,stop,7
6.64,1663683.182290242,26,3,3,3,0,-1737.0,7.8,-15.37,-7.85,5.59,-16.23,-67.27,-179.5625,-23.4375,739.75,0.017578125,0.67523193359375,0.14794921875,0.0258,22.0,-31.5625,-59.4375,2.2,0.85,stop,7
6.65,1663683.182290242,26,3,3,3,0,-1207.0,6.41,-4.15,-2.55,4.28,-5.18,-36.75,-48.4375,-24.0625,743.1875,0.00225830078125,0.66912841796875,0.15985107421875,0.0258,22.0,-31.5625,-59.4375,2.13,1.02,stop,7
6.65,1663683.190775228,26,3,3,3,0,-1330.0,6.32,-1.44,-3.76,4.29,-2.38,-23.01,83.75,-43.875,738.75,-0.01055908203125,0.67236328125,0.16546630859375,0.0258,22.0,-31.5625,-59.625,2.03,0.93,stop,7
6.66,1663683.190775228,26,3,3,3,0,-1284.0,6.13,-0.86,-3.25,4.21,-1.59,-15.54,145.625,-61.3125,730.6875,-0.02239990234375,0.67999267578125,0.1671142578125,0.0258,22.0,-31.5625,-59.9375,1.91,0.72,stop,7
6.68,1663683.222918457,26,3,3,3,0,-917.0,6.27,1.51,0.44,4.45,0.97,-9.87,122.375,-50.8125,723.8125,-0.03106689453125,0.68658447265625,0.1673583984375,0.0258,22.0,-31.5625,-60.125,1.82,0.54,stop,7
6.69,1663683.222918457,26,3,3,3,0,-852.0,5.53,2.17,1.1,3.75,1.72,-9.46,61.9375,-25.5625,720.1875,-0.037109375,0.689453125,0.16912841796875,0.0236,22.75,-30.0,-60.1875,1.77,0.45,stop,7
6.7,1663683.236461832,26,3,3,3,0,-730.0,4.59,1.95,2.33,2.83,1.52,-11.7,28.625,-4.8125,718.25,-0.0423583984375,0.69012451171875,0.173095703125,0.0236,22.75,-30.0,-60.1875,1.76,0.43,stop,7
6.71,1663683.236461832,26,3,3,3,0,-661.0,3.91,2.2,3.02,2.14,1.78,-12.82,20.4375,8.0625,716.5,-0.04705810546875,0.690185546875,0.1783447265625,0.0236,22.75,-30.0,-60.1875,1.76,0.41,stop,7
6.72,1663683.251662638,26,3,3,3,0,-475.0,2.09,2.44,4.87,0.3,2.02,-12.07,16.6875,16.0,714.875,-0.05096435546875,0.69012451171875,0.18377685546875,0.0236,22.75,-30.0,-60.1875,1.78,0.41,stop,7
6.73,1663683.251662638,26,3,3,3,0,-422.0,1.48,2.51,5.4,-0.33,2.1,-10.42,17.3125,19.5,713.1875,-0.05401611328125,0.690185546875,0.1888427734375,0.0236,22.75,-30.0,-60.125,1.81,0.4,stop,7
6.73,1663683.28290922,26,3,3,3,0,-400.0,0.79,2.92,5.62,-1.05,2.53,-9.73,24.3125,19.6875,711.0,-0.05694580078125,0.6907958984375,0.193603515625,0.0238,22.75,-22.875,-60.125,1.84,0.38,stop,7
6.74,1663683.28290922,26,3,3,3,0,-371.0,0.09,3.02,5.9,-1.77,2.69,-10.26,41.4375,17.0625,707.8125,-0.06048583984375,0.6922607421875,0.1982421875,0.0238,22.75,-22.875,-60.125,1.87,0.33,stop,7
6.75,1663683.296040161,26,3,3,3,0,-363.0,-0.8,2.99,5.98,-2.69,2.73,-10.62,60.875,11.375,703.4375,-0.0648193359375,0.69482421875,0.20263671875,0.0238,22.75,-22.875,-60.0625,1.88,0.25,stop,7
6.77,1663683.296040161,26,3,3,3,0,-431.0,-1.06,3.07,5.3,-2.95,2.92,-11.92,77.0,1.5,698.1875,-0.070556640625,0.6981201171875,0.206787109375,0.0238,22.75,-22.875,-60.125,1.88,0.14,stop,7
6.78,1663683.31321053,26,3,3,3,0,-539.0,-0.72,3.09,4.22,-2.58,3.07,-15.39,94.25,-14.0625,691.875,-0.078857421875,0.70184326171875,0.21124267578125,0.0238,22.75,-22.875,-60.125,1.86,0.02,stop,7
6.79,1663683.31321053,26,3,3,3,0,-606.0,0.05,3.11,3.57,-1.76,3.26,-20.6,122.9375,-30.3125,683.75,-0.090576171875,0.7064208984375,0.2164306640625,0.0249,22.375,-18.25,-60.1875,1.81,-0.14,stop,7
6.8,1663683.342253336,26,3,3,3,0,-407.0,1.44,2.18,5.56,-0.3,2.55,-24.7,165.0,-40.375,672.75,-0.1051025390625,0.71270751953125,0.22222900390625,0.0249,22.375,-18.25,-60.25,1.75,-0.37,stop,7
6.81,1663683.342253336,26,3,3,3,0,-367.0,2.09,2.02,5.96,0.41,2.68,-24.5,199.5,-47.9375,659.4375,-0.1207275390625,0.72052001953125,0.2271728515625,0.0249,22.375,-18.25,-60.1875,1.68,-0.66,stop,7
6.81,1663683.356890584,26,3,3,3,0,-380.0,2.36,1.88,5.81,0.75,2.85,-24.42,211.25,-54.5625,645.125,-0.13690185546875,0.72857666015625,0.23138427734375,0.0249,22.375,-18.25,-60.125,1.61,-0.97,stop,7
6.82,1663683.356890584,26,3,3,3,0,-600.0,2.56,1.24,3.59,1.01,2.5,-25.5,199.3125,-57.875,631.25,-0.1533203125,0.73541259765625,0.23590087890625,0.0249,22.375,-18.25,-60.0,1.54,-1.26,stop,7
6.83,1663683.370744222,26,3,3,3,0,-600.0,2.56,1.24,3.59,1.01,2.5,-25.5,199.3125,-57.875,631.25,-0.1533203125,0.73541259765625,0.23590087890625,0.0249,22.375,-18.25,-60.0,1.54,-1.26,stop,7
6.84,1663683.370744222,26,3,3,3,0,-730.0,2.2,0.92,2.26,0.7,2.42,-25.8,169.6875,-58.0,618.9375,-0.16912841796875,0.74029541015625,0.24078369140625,0.0245,22.75,-10.0625,-59.8125,1.49,-1.5,stop,7
6.85,1663683.387023763,26,3,3,3,0,-868.0,1.71,0.69,0.86,0.26,2.38,-24.76,137.1875,-54.25,608.625,-0.18365478515625,0.74334716796875,0.245849609375,0.0245,22.75,-10.0625,-59.6875,1.44,-1.69,stop,7
6.86,1663683.387023763,26,3,3,3,0,-988.0,0.97,0.56,-0.35,-0.43,2.39,-22.51,106.5625,-46.25,600.1875,-0.19622802734375,0.7449951171875,0.2508544921875,0.0245,22.75,-10.0625,-59.5,1.41,-1.83,stop,7
6.87,1663683.402128499,26,3,3,3,0,-1092.0,2.01,-0.01,-1.4,0.62,1.89,-20.41,68.5,-35.4375,594.1875,-0.20648193359375,0.74505615234375,0.25616455078125,0.0245,22.75,-10.0625,-59.4375,1.39,-1.91,stop,7
6.88,1663683.402128499,26,3,3,3,0,-1105.0,2.95,-0.37,-1.54,1.56,1.55,-18.72,27.5625,-23.0,590.6875,-0.21453857421875,0.74334716796875,0.2620849609375,0.0245,22.75,-10.0625,-59.4375,1.39,-1.93,stop,7
6.89,1663683.431465861,26,3,3,3,0,-1137.0,3.99,-1.05,-1.85,2.58,0.85,-16.65,-3.0,-10.9375,589.125,-0.22039794921875,0.74053955078125,0.268310546875,0.0242,22.375,0.6875,-59.4375,1.41,-1.9,stop,7
6.9,1663683.431465861,26,3,3,3,0,-1141.0,4.76,-1.72,-1.88,3.33,0.11,-13.34,-23.5,-5.375,589.1875,-0.224365234375,0.7373046875,0.27392578125,0.0242,22.375,0.6875,-59.5,1.42,-1.84,stop,7
6.91,1663683.446006063,26,3,3,3,0,-1212.0,5.13,-2.08,-2.58,3.68,-0.31,-10.29,-35.4375,-1.75,590.25,-0.22686767578125,0.73388671875,0.2786865234375,0.0242,22.375,0.6875,-59.5625,1.44,-1.76,stop,7
6.92,1663683.446006063,26,3,3,3,0,-1239.0,4.8,-2.75,-2.84,3.34,-1.07,-7.69,-44.8125,2.8125,592.125,-0.22796630859375,0.73052978515625,0.28277587890625,0.0242,22.375,0.6875,-59.625,1.46,-1.67,stop,7
6.93,1663683.46173763,26,3,3,3,0,-1274.0,4.67,-3.32,-3.18,3.18,-1.75,-4.18,-60.625,8.75,595.375,-0.22723388671875,0.72698974609375,0.2861328125,0.0242,22.375,0.6875,-59.75,1.48,-1.57,stop,7
6.94,1663683.46173763,26,3,3,3,0,-1251.0,4.28,-3.7,-2.93,2.77,-2.26,-1.1,-77.5625,13.8125,599.875,-0.2247314453125,0.72308349609375,0.288818359375,0.0238,21.75,5.0,-59.875,1.51,-1.43,stop,7
6.95,1663683.491884277,26,3,3,3,0,-1154.0,2.15,-6.3,-1.94,0.6,-5.01,0.44,-87.4375,17.875,605.125,-0.22125244140625,0.71905517578125,0.291259765625,0.0238,21.75,5.0,-59.9375,1.54,-1.29,stop,7
6.96,1663683.491884277,26,3,3,3,0,-1103.0,1.31,-7.67,-1.41,-0.26,-6.54,1.46,-94.5625,20.5625,610.8125,-0.217041015625,0.71478271484375,0.2935791015625,0.0238,21.75,5.0,-60.0625,1.57,-1.13,stop,7
6.97,1663683.506520508,26,3,3,3,0,-1059.0,0.4,-8.23,-0.97,-1.2,-7.22,3.97,-80.0625,20.625,615.875,-0.21240234375,0.71160888671875,0.29461669921875,0.0238,21.75,5.0,-60.125,1.6,-1.0,stop,7
6.98,1663683.506520508,26,3,3,3,0,-1008.0,0.11,-6.71,-0.45,-1.51,-5.76,9.62,-41.5625,18.4375,619.125,-0.20703125,0.7113037109375,0.2926025390625,0.0238,21.75,5.0,-60.125,1.62,-0.95,stop,7
6.99,1663683.523386312,26,3,3,3,0,-891.0,1.01,-2.57,0.69,-0.61,-1.57,13.74,11.3125,13.8125,619.625,-0.201904296875,0.71429443359375,0.287841796875,0.0227,21.75,6.875,-60.0625,1.63,-1.0,stop,7
7.0,1663683.523386312,26,3,3,3,0,-847.0,1.49,-1.77,1.12,-0.14,-0.65,14.76,52.875,11.875,617.5625,-0.1976318359375,0.7196044921875,0.28173828125,0.0227,21.75,6.875,-60.0,1.63,-1.11,stop,7
7.01,1663683.552545573,26,3,3,3,0,-833.0,1.87,-1.07,1.25,0.23,0.18,14.74,70.1875,12.5,614.3125,-0.19366455078125,0.72576904296875,0.275390625,0.0227,21.75,6.875,-59.875,1.64,-1.25,stop,7
7.02,1663683.552545573,26,3,3,3,0,-903.0,2.36,-0.06,0.52,0.71,1.33,13.81,66.75,14.4375,611.125,-0.1898193359375,0.73150634765625,0.26959228515625,0.0227,21.75,6.875,-59.75,1.64,-1.39,stop,7
7.03,1663683.566620931,26,3,3,3,0,-953.0,2.76,0.22,0.01,1.1,1.73,13.19,55.3125,16.9375,608.4375,-0.18572998046875,0.73663330078125,0.2642822265625,0.0227,21.75,6.875,-59.625,1.65,-1.51,stop,7
7.04,1663683.566620931,26,3,3,3,0,-987.0,2.96,0.28,-0.34,1.29,1.88,12.97,41.6875,19.5625,606.5625,-0.18121337890625,0.740966796875,0.2593994140625,0.0231,22.5625,4.25,-59.5625,1.66,-1.6,stop,7
7.05,1663683.580932007,26,3,3,3,0,-976.0,2.89,0.22,-0.24,1.21,1.88,12.74,22.6875,20.8125,605.8125,-0.17626953125,0.74420166015625,0.2550048828125,0.0231,22.5625,4.25,-59.4375,1.67,-1.66,stop,7
7.06,1663683.580932007,26,3,3,3,0,-960.0,2.41,-0.44,-0.09,0.72,1.24,12.15,0.625,20.5625,606.5,-0.1710205078125,0.74627685546875,0.2510986328125,0.0231,22.5625,4.25,-59.4375,1.68,-1.68,stop,7
7.06,1663683.611609171,26,3,3,3,0,-979.0,2.18,-1.0,-0.27,0.48,0.66,11.13,-19.1875,19.8125,608.375,-0.16571044921875,0.7470703125,0.24786376953125,0.0231,22.5625,4.25,-59.4375,1.7,-1.67,stop,7
7.08,1663683.611609171,26,3,3,3,0,-1011.0,1.96,-1.56,-0.59,0.24,0.07,9.55,-32.9375,19.5,611.0,-0.16058349609375,0.7469482421875,0.2454833984375,0.0231,22.5625,4.25,-59.4375,1.71,-1.64,stop,7
7.09,1663683.625782226,26,3,3,3,0,-1046.0,1.68,-2.03,-0.94,-0.04,-0.44,8.0,-38.0,19.0,613.8125,-0.15594482421875,0.74627685546875,0.2437744140625,0.0234,23.0,0.0625,-59.4375,1.73,-1.59,stop,7
7.1,1663683.625782226,26,3,3,3,0,-1071.0,1.42,-2.52,-1.19,-0.32,-0.97,7.37,-35.75,18.0,616.4375,-0.15155029296875,0.74560546875,0.2421875,0.0234,23.0,0.0625,-59.5,1.75,-1.54,stop,7
7.11,1663683.641289266,26,3,3,3,0,-1050.0,1.52,-2.59,-0.98,-0.24,-1.08,7.54,-29.1875,16.875,618.6875,-0.14739990234375,0.74530029296875,0.24041748046875,0.0234,23.0,0.0625,-59.5,1.76,-1.51,stop,7
7.12,1663683.641289266,26,3,3,3,0,-1014.0,1.73,-2.6,-0.61,-0.04,-1.11,7.81,-22.5,15.9375,620.4375,-0.143310546875,0.745361328125,0.23834228515625,0.0234,23.0,0.0625,-59.5,1.78,-1.49,stop,7
7.12,1663683.686914469,26,3,3,3,0,-1014.0,1.73,-2.6,-0.61,-0.04,-1.11,7.81,-22.5,15.9375,620.4375,-0.143310546875,0.745361328125,0.23834228515625,0.0234,23.0,0.0625,-59.5,1.78,-1.49,stop,7
7.13,1663683.686914469,26,3,3,3,0,-973.0,1.92,-2.59,-0.21,0.13,-1.11,7.71,-17.4375,15.375,621.875,-0.13934326171875,0.74560546875,0.23626708984375,0.0234,23.0,0.0625,-59.5,1.79,-1.47,stop,7
7.14,1663683.692796956,26,3,3,3,0,-901.0,2.14,-2.45,0.51,0.33,-0.98,7.36,-14.25,15.5,623.0625,-0.1356201171875,0.7459716796875,0.2342529296875,0.0242,23.375,-3.375,-59.5,1.8,-1.46,stop,7
7.15,1663683.692796956,26,3,3,3,0,-875.0,2.06,-2.43,0.77,0.24,-0.97,6.84,-12.6875,16.3125,624.0625,-0.13201904296875,0.74639892578125,0.2325439453125,0.0242,23.375,-3.375,-59.5,1.82,-1.46,stop,7
7.16,1663683.732443888,26,3,3,3,0,-867.0,1.79,-2.39,0.84,-0.04,-0.93,6.59,-11.8125,17.5625,625.0,-0.12841796875,0.74676513671875,0.23089599609375,0.0242,23.375,-3.375,-59.5,1.84,-1.45,stop,7
7.17,1663683.732443888,26,3,3,3,0,-905.0,1.12,-2.12,0.46,-0.73,-0.67,6.63,-11.125,17.8125,625.8125,-0.12481689453125,0.74725341796875,0.22930908203125,0.0242,23.375,-3.375,-59.4375,1.86,-1.44,stop,7
7.18,1663683.737992065,26,3,3,3,0,-922.0,0.96,-1.95,0.29,-0.91,-0.5,6.73,-10.1875,16.4375,626.625,-0.12127685546875,0.7476806640625,0.2275390625,0.0242,23.375,-3.375,-59.4375,1.88,-1.44,stop,7
7.19,1663683.737992065,26,3,3,3,0,-930.0,0.81,-1.8,0.2,-1.08,-0.35,6.72,-7.125,13.8125,627.25,-0.11798095703125,0.748291015625,0.22564697265625,0.0249,22.5625,-5.75,-59.4375,1.89,-1.44,stop,7
7.2,1663683.743538208,26,3,3,3,0,-929.0,0.72,-1.68,0.21,-1.17,-0.22,6.33,-2.5625,10.4375,627.625,-0.1151123046875,0.74908447265625,0.2236328125,0.0249,22.5625,-5.75,-59.375,1.9,-1.45,stop,7
7.21,1663683.743538208,26,3,3,3,0,-930.0,0.78,-1.44,0.2,-1.12,0.03,5.8,0.25,7.3125,627.8125,-0.11273193359375,0.74981689453125,0.22161865234375,0.0249,22.5625,-5.75,-59.375,1.9,-1.47,stop,7
7.22,1663683.823941935,26,3,3,3,0,-928.0,0.8,-1.32,0.22,-1.09,0.16,5.11,1.25,5.1875,627.9375,-0.1107177734375,0.7506103515625,0.2198486328125,0.0249,22.5625,-5.75,-59.375,1.9,-1.48,stop,7
7.23,1663683.823941935,26,3,3,3,0,-938.0,0.92,-1.14,0.12,-0.98,0.34,4.29,0.875,3.4375,628.0625,-0.10906982421875,0.75115966796875,0.21826171875,0.0249,22.5625,-5.75,-59.375,1.9,-1.49,stop,7
7.24,1663683.829276123,26,3,3,3,0,-954.0,1.11,-1.04,-0.03,-0.78,0.45,3.31,0.875,2.625,628.125,-0.1077880859375,0.75164794921875,0.217041015625,0.0249,22.5625,-6.1875,-59.375,1.9,-1.5,stop,7
7.25,1663683.829276123,26,3,3,3,0,-971.0,1.29,-1.28,-0.21,-0.6,0.22,2.34,1.1875,1.75,628.1875,-0.10687255859375,0.75201416015625,0.21612548828125,0.0249,22.5625,-6.1875,-59.375,1.9,-1.5,stop,7
7.26,1663683.833837606,26,3,3,3,0,-975.0,1.38,-1.46,-0.25,-0.51,0.04,1.51,1.5,0.6875,628.125,-0.10638427734375,0.7523193359375,0.215576171875,0.0249,22.5625,-6.1875,-59.375,1.9,-1.51,stop,7
7.27,1663683.833837606,26,3,3,3,0,-979.0,1.43,-1.57,-0.29,-0.46,-0.05,0.77,2.5625,-0.1875,628.0,-0.10614013671875,0.75250244140625,0.2152099609375,0.0249,22.5625,-6.1875,-59.3125,1.89,-1.52,stop,7
7.28,1663683.838572795,26,3,3,3,0,-983.0,1.48,-1.66,-0.33,-0.41,-0.13,0.1,3.75,-1.0625,627.75,-0.10626220703125,0.75274658203125,0.215087890625,0.0249,22.5625,-6.1875,-59.3125,1.89,-1.52,stop,7
7.29,1663683.838572795,26,3,3,3,0,-964.0,1.69,-1.65,-0.14,-0.2,-0.11,-0.41,3.875,-1.8125,627.5,-0.1065673828125,0.75286865234375,0.215087890625,0.0249,23.0,-7.6875,-59.3125,1.89,-1.53,stop,7
7.3,1663683.851647298,26,3,3,3,0,-952.0,1.79,-1.73,-0.02,-0.09,-0.19,-1.1,3.75,-2.375,627.25,-0.107177734375,0.7529296875,0.21539306640625,0.0249,23.0,-7.6875,-59.3125,1.89,-1.53,stop,7
7.31,1663683.851647298,26,3,3,3,0,-945.0,1.89,-1.77,0.04,0.0,-0.23,-1.79,2.625,-2.9375,627.0,-0.1080322265625,0.75286865234375,0.2159423828125,0.0249,23.0,-7.6875,-59.3125,1.89,-1.53,stop,7
7.32,1663683.856474325,26,3,3,3,0,-940.0,1.97,-1.79,0.09,0.08,-0.26,-2.29,1.625,-3.4375,626.8125,-0.10906982421875,0.75262451171875,0.2166748046875,0.0249,23.0,-7.6875,-59.3125,1.88,-1.53,stop,7
7.33,1663683.856474325,26,3,3,3,0,-931.0,2.13,-1.83,0.18,0.25,-0.29,-2.38,1.5,-3.8125,626.625,-0.11016845703125,0.75238037109375,0.21746826171875,0.0249,23.0,-7.6875,-59.375,1.88,-1.53,stop,7
7.34,1663683.882394043,26,3,3,3,0,-928.0,2.18,-1.77,0.21,0.3,-0.24,-2.24,2.125,-4.5625,626.4375,-0.1112060546875,0.752197265625,0.21807861328125,0.0249,22.5625,-8.5,-59.375,1.88,-1.53,stop,7
7.35,1663683.882394043,26,3,3,3,0,-931.0,2.16,-1.74,0.18,0.28,-0.2,-1.99,3.25,-5.4375,626.1875,-0.1123046875,0.75213623046875,0.21856689453125,0.0249,22.5625,-8.5,-59.375,1.87,-1.53,stop,7
7.36,1663683.896789958,26,3,3,3,0,-941.0,2.24,-1.68,0.09,0.37,-0.14,-1.74,4.0,-6.3125,625.9375,-0.1134033203125,0.7520751953125,0.21893310546875,0.0249,22.5625,-8.5,-59.375,1.86,-1.53,stop,7
7.37,1663683.896789958,26,3,3,3,0,-944.0,2.3,-1.65,0.05,0.44,-0.1,-1.5,3.4375,-7.0625,625.75,-0.11444091796875,0.75201416015625,0.2191162109375,0.0249,22.5625,-8.5,-59.375,1.86,-1.54,stop,7
7.38,1663683.911558309,26,3,3,3,0,-946.0,2.31,-1.65,0.03,0.46,-0.11,-1.3,2.875,-7.5,625.5625,-0.11541748046875,0.751953125,0.21923828125,0.0249,22.5625,-8.5,-59.375,1.85,-1.54,stop,7
7.39,1663683.911558309,26,3,3,3,0,-945.0,2.35,-1.65,-0.06,0.05,0.0,-1.05,1.9375,-7.5,614.6875,-0.10150146484375,0.75775146484375,0.23480224609375,0.0249,22.5625,-8.0625,-58.625,2.29,-1.65,stop,7
7.4,1663683.941945719,26,3,3,3,0,-936.0,2.28,-1.67,0.02,0.0,-0.01,-0.77,1.0,-7.5,614.75,-0.10223388671875,0.75762939453125,0.2347412109375,0.0249,22.5625,-8.0625,-58.6875,2.28,-1.65,stop,7
7.41,1663683.941945719,26,3,3,3,0,-934.0,2.26,-1.64,0.04,0.0,0.01,-0.52,0.5,-7.1875,614.875,-0.1029052734375,0.75750732421875,0.23455810546875,0.0249,22.5625,-8.0625,-58.6875,2.27,-1.65,stop,7
7.42,1663683.971520833,26,3,3,3,0,-941.0,2.23,-1.6,-0.01,-0.02,0.05,-0.33,-0.125,-7.0,615.0,-0.10345458984375,0.7574462890625,0.23431396484375,0.0249,22.5625,-8.0625,-58.6875,2.26,-1.65,stop,7
7.43,1663683.971520833,26,3,3,3,0,-951.0,2.13,-1.54,-0.11,-0.11,0.1,-0.26,-0.25,-7.0,615.125,-0.10400390625,0.75732421875,0.23406982421875,0.0249,22.5625,-8.0625,-58.75,2.25,-1.65,stop,7
7.44,1663683.976345378,26,3,3,3,0,-971.0,1.91,-1.59,-0.31,-0.32,0.06,-0.41,-0.0625,-7.1875,615.25,-0.10467529296875,0.7572021484375,0.23382568359375,0.0238,22.5625,-6.875,-58.75,2.23,-1.65,stop,7
7.45,1663683.976345378,26,3,3,3,0,-977.0,1.84,-1.69,-0.36,-0.38,-0.04,-0.59,-0.125,-7.3125,615.375,-0.1053466796875,0.757080078125,0.233642578125,0.0238,22.5625,-6.875,-58.75,2.22,-1.65,stop,7
7.46,1663684.003949178,26,3,3,3,0,-984.0,1.78,-1.74,-0.43,-0.42,-0.09,-0.84,-0.25,-7.4375,615.5,-0.10614013671875,0.75689697265625,0.233642578125,0.0238,22.5625,-6.875,-58.75,2.21,-1.65,stop,7
7.47,1663684.003949178,26,3,3,3,0,-990.0,1.76,-1.79,-0.48,-0.43,-0.14,-1.07,-0.125,-7.3125,615.5625,-0.10699462890625,0.7567138671875,0.23370361328125,0.0238,22.5625,-6.875,-58.8125,2.2,-1.64,stop,7
7.48,1663684.016583252,26,3,3,3,0,-983.0,1.84,-1.85,-0.42,-0.35,-0.21,-1.25,0.6875,-7.125,615.625,-0.10784912109375,0.7564697265625,0.23382568359375,0.0238,22.5625,-6.875,-58.8125,2.19,-1.64,stop,7
7.49,1663684.016583252,26,3,3,3,0,-968.0,1.88,-1.91,-0.26,-0.29,-0.26,-1.3,1.75,-7.25,615.5625,-0.10882568359375,0.75634765625,0.23394775390625,0.0242,22.5625,-8.0625,-58.8125,2.18,-1.64,stop,7
7.5,1663684.031939901,26,3,3,3,0,-957.0,1.97,-1.92,-0.15,-0.2,-0.28,-1.35,2.1875,-6.75,615.4375,-0.1097412109375,0.7562255859375,0.234130859375,0.0242,22.5625,-8.0625,-58.8125,2.17,-1.64,stop,7
7.51,1663684.031939901,26,3,3,3,0,-943.0,2.01,-1.82,-0.01,-0.15,-0.17,-1.44,2.1875,-6.5,615.3125,-0.11077880859375,0.75616455078125,0.2342529296875,0.0242,22.5625,-8.0625,-58.875,2.16,-1.64,stop,7
7.52,1663684.061966675,26,3,3,3,0,-940.0,2.03,-1.77,0.01,-0.12,-0.12,-1.52,1.8125,-6.125,615.1875,-0.1116943359375,0.7559814453125,0.23455810546875,0.0242,22.5625,-8.0625,-58.875,2.16,-1.64,stop,7
7.53,1663684.061966675,26,3,3,3,0,-937.0,2.02,-1.79,0.05,-0.13,-0.14,-1.54,0.9375,-5.875,615.1875,-0.11260986328125,0.75579833984375,0.23486328125,0.0242,22.5625,-8.0625,-58.875,2.15,-1.64,stop,7
7.54,1663684.076208578,26,3,3,3,0,-932.0,2.05,-1.81,0.1,-0.09,-0.16,-1.61,0.875,-5.625,615.125,-0.11358642578125,0.755615234375,0.2352294921875,0.0238,22.6875,-8.0625,-58.875,2.14,-1.64,stop,7
7.55,1663684.076208578,26,3,3,3,0,-925.0,2.01,-1.79,0.17,-0.12,-0.15,-1.62,1.6875,-5.5,615.0,-0.114501953125,0.75543212890625,0.235595703125,0.0238,22.6875,-8.0625,-58.875,2.14,-1.64,stop,7
7.56,1663684.091532674,26,3,3,3,0,-925.0,2.04,-1.75,0.17,-0.09,-0.11,-1.54,2.75,-5.3125,614.8125,-0.11541748046875,0.75531005859375,0.23590087890625,0.0238,22.6875,-8.0625,-58.875,2.13,-1.64,stop,7
7.57,1663684.091532674,26,3,3,3,0,-925.0,2.08,-1.69,0.17,-0.04,-0.05,-1.28,3.875,-5.125,614.5625,-0.11627197265625,0.75531005859375,0.236083984375,0.0238,22.6875,-8.0625,-58.875,2.12,-1.64,stop,7
7.58,1663684.122281698,26,3,3,3,0,-918.0,2.17,-1.65,0.24,0.04,0.0,-0.88,3.9375,-4.375,614.3125,-0.116943359375,0.75537109375,0.2362060546875,0.0238,22.6875,-8.0625,-58.9375,2.12,-1.65,stop,7
7.59,1663684.122281698,26,3,3,3,0,-920.0,2.28,-1.58,0.22,0.16,0.07,-0.47,2.625,-3.5625,614.1875,-0.11737060546875,0.75543212890625,0.2362060546875,0.0242,22.6875,-7.25,-58.9375,2.11,-1.65,stop,7
7.6,1663684.136280314,26,3,3,3,0,-925.0,2.27,-1.56,0.17,0.15,0.08,-0.09,0.9375,-2.625,614.125,-0.1175537109375,0.75543212890625,0.23614501953125,0.0242,22.6875,-7.25,-58.9375,2.11,-1.65,stop,7
7.61,1663684.136280314,26,3,3,3,0,-932.0,2.24,-1.52,0.1,0.12,0.13,0.16,0.125,-1.625,614.1875,-0.11761474609375,0.7554931640625,0.23602294921875,0.0242,22.6875,-7.25,-58.9375,2.11,-1.65,stop,7
7.62,1663684.182570109,26,3,3,3,0,-938.0,2.2,-1.48,0.04,0.08,0.17,0.29,-0.375,-0.9375,614.25,-0.1175537109375,0.7554931640625,0.23583984375,0.0242,22.6875,-7.25,-58.9375,2.11,-1.65,stop,7
7.63,1663684.182570109,26,3,3,3,0,-947.0,2.09,-1.52,-0.04,-0.01,0.13,0.37,-0.75,-0.4375,614.3125,-0.11737060546875,0.7554931640625,0.2357177734375,0.0242,22.6875,-7.25,-58.9375,2.11,-1.65,stop,7
7.64,1663684.187364014,26,3,3,3,0,-953.0,2.03,-1.55,-0.1,-0.07,0.1,0.46,-1.9375,0.0,614.5,-0.1171875,0.75543212890625,0.23553466796875,0.0238,22.25,-7.6875,-58.9375,2.11,-1.65,stop,7
7.65,1663684.187364014,26,3,3,3,0,-953.0,2.0,-1.56,-0.1,-0.1,0.08,0.61,-3.0,0.5,614.75,-0.116943359375,0.75531005859375,0.2353515625,0.0238,22.25,-7.6875,-58.9375,2.1,-1.65,stop,7
7.66,1663684.196225952,26,3,3,3,0,-954.0,1.96,-1.6,-0.11,-0.14,0.04,0.7,-3.5,0.625,615.0625,-0.1165771484375,0.7552490234375,0.235107421875,0.0238,22.25,-7.6875,-58.9375,2.1,-1.64,stop,7
7.67,1663684.196225952,26,3,3,3,0,-948.0,1.85,-1.59,-0.05,-0.25,0.04,0.69,-3.375,0.75,615.3125,-0.11627197265625,0.755126953125,0.23486328125,0.0238,22.25,-7.6875,-58.9375,2.1,-1.64,stop,7
7.68,1663684.241351359,26,3,3,3,0,-945.0,1.85,-1.59,-0.01,-0.25,0.04,0.7,-3.625,1.0,615.625,-0.115966796875,0.7550048828125,0.234619140625,0.0238,22.25,-7.6875,-58.9375,2.1,-1.63,stop,7
7.69,1663684.241351359,26,3,3,3,0,-947.0,1.94,-1.56,-0.04,-0.16,0.06,0.67,-3.3125,1.0625,615.9375,-0.11566162109375,0.75494384765625,0.234375,0.0249,23.5,-6.5,-58.9375,2.1,-1.63,stop,7
7.7,1663684.246767822,26,3,3,3,0,-953.0,2.02,-1.6,-0.09,-0.07,0.02,0.71,-3.25,1.3125,616.1875,-0.11529541015625,0.75482177734375,0.234130859375,0.0249,23.5,-6.5,-58.9375,2.1,-1.62,stop,7
7.71,1663684.246767822,26,3,3,3,0,-956.0,2.0,-1.73,-0.12,-0.09,-0.11,0.79,-3.1875,1.5625,616.4375,-0.1148681640625,0.75482177734375,0.23388671875,0.0249,23.5,-6.5,-58.9375,2.1,-1.62,stop,7
7.72,1663684.256316651,26,3,3,3,0,-956.0,1.97,-1.75,-0.13,-0.12,-0.13,0.96,-3.0,1.75,616.625,-0.1143798828125,0.7547607421875,0.23358154296875,0.0249,23.5,-6.5,-58.9375,2.1,-1.62,stop,7
7.73,1663684.256316651,26,3,3,3,0,-956.0,1.96,-1.7,-0.12,-0.14,-0.08,1.11,-2.0625,1.9375,616.8125,-0.1138916015625,0.75482177734375,0.23321533203125,0.0249,23.5,-6.5,-58.9375,2.1,-1.62,stop,7
7.74,1663684.287481079,26,3,3,3,0,-956.0,1.9,-1.52,-0.13,-0.19,0.1,1.16,-0.75,1.8125,616.9375,-0.1134033203125,0.75494384765625,0.2327880859375,0.0238,22.6875,-8.0625,-58.9375,2.1,-1.62,stop,7
7.75,1663684.287481079,26,3,3,3,0,-953.0,1.85,-1.6,-0.09,-0.25,0.02,1.17,-1.0,1.9375,617.0625,-0.1129150390625,0.75506591796875,0.23236083984375,0.0238,22.6875,-8.0625,-58.9375,2.1,-1.62,stop,7
7.76,1663684.316246948,26,3,3,3,0,-945.0,1.82,-1.78,-0.02,-0.28,-0.16,1.25,-4.0625,2.3125,617.375,-0.11236572265625,0.75506591796875,0.23193359375,0.0238,22.6875,-8.0625,-58.9375,2.1,-1.62,stop,7
7.77,1663684.316246948,26,3,3,3,0,-942.0,1.78,-1.88,0.01,-0.31,-0.26,1.47,-6.5625,2.8125,617.8125,-0.11163330078125,0.75494384765625,0.2314453125,0.0238,22.6875,-8.0625,-59.0,2.1,-1.61,stop,7
7.78,1663684.321810832,26,3,3,3,0,-945.0,1.77,-1.6,-0.01,-0.32,0.0,1.63,-6.125,2.8125,618.3125,-0.11090087890625,0.7548828125,0.23089599609375,0.0238,22.6875,-8.0625,-59.0,2.1,-1.61,stop,7
7.79,1663684.321810832,26,3,3,3,0,-951.0,1.75,-1.46,-0.06,-0.34,0.14,1.68,-3.3125,2.5,618.625,-0.1102294921875,0.7548828125,0.230224609375,0.0242,22.25,-8.5,-59.0,2.1,-1.6,stop,7
7.8,1663684.34629891,26,3,3,3,0,-957.0,1.72,-1.47,-0.13,-0.37,0.13,1.78,-1.5625,2.125,618.875,-0.109619140625,0.7550048828125,0.22943115234375,0.0242,22.25,-8.5,-59.0,2.09,-1.6,stop,7
7.81,1663684.34629891,26,3,3,3,0,-962.0,1.69,-1.57,-0.18,-0.4,0.03,1.74,-2.375,2.375,619.1875,-0.1090087890625,0.75506591796875,0.22869873046875,0.0242,22.25,-8.5,-59.0,2.09,-1.6,stop,7
7.82,1663684.361825684,26,3,3,3,0,-969.0,1.65,-1.68,-0.25,-0.43,-0.08,1.5,-3.4375,2.125,619.5625,-0.1085205078125,0.75506591796875,0.22796630859375,0.0242,22.25,-8.5,-59.0,2.08,-1.6,stop,7
7.83,1663684.361825684,26,3,3,3,0,-971.0,1.62,-1.71,-0.27,-0.45,-0.1,1.24,-3.5,2.4375,619.9375,-0.10809326171875,0.75506591796875,0.22735595703125,0.0242,22.25,-8.5,-59.0,2.08,-1.6,stop,7
7.84,1663684.375820394,26,3,3,3,0,-972.0,1.66,-1.74,-0.27,-0.41,-0.14,1.16,-2.8125,2.625,620.1875,-0.10772705078125,0.75506591796875,0.226806640625,0.0242,23.0625,-8.5,-59.0,2.07,-1.6,stop,7
7.85,1663684.375820394,26,3,3,3,0,-972.0,1.6,-1.78,-0.27,-0.46,-0.18,1.11,-2.1875,2.9375,620.375,-0.10736083984375,0.755126953125,0.2261962890625,0.0242,23.0625,-8.5,-59.0,2.07,-1.6,stop,7
7.86,1663684.407476726,26,3,3,3,0,-968.0,1.61,-1.8,-0.23,-0.45,-0.2,1.01,-1.9375,2.875,620.5625,-0.1070556640625,0.7552490234375,0.22564697265625,0.0242,23.0625,-8.5,-59.0625,2.07,-1.6,stop,7
7.87,1663684.407476726,26,3,3,3,0,-964.0,1.62,-1.8,-0.19,-0.44,-0.2,0.81,-1.6875,2.9375,620.625,-0.1068115234375,0.75531005859375,0.2252197265625,0.0242,23.0625,-8.5,-59.0625,2.06,-1.6,stop,7
7.88,1663684.485309693,26,3,3,3,0,-959.0,1.65,-1.77,-0.14,-0.4,-0.16,0.59,-1.5,2.6875,620.75,-0.10662841796875,0.75537109375,0.224853515625,0.0242,23.0625,-8.5,-59.0625,2.06,-1.6,stop,7
7.89,1663684.485309693,26,3,3,3,0,-954.0,1.69,-1.7,-0.08,-0.36,-0.09,0.38,-0.625,2.75,620.75,-0.1064453125,0.75543212890625,0.224609375,0.0234,23.5,-8.0625,-59.0625,2.06,-1.6,stop,7
7.9,1663684.491581014,26,3,3,3,0,-948.0,1.7,-1.67,-0.03,-0.35,-0.05,0.2,0.0,2.75,620.75,-0.10638427734375,0.75555419921875,0.2244873046875,0.0234,23.5,-8.0625,-59.0625,2.06,-1.61,stop,7
7.91,1663684.491581014,26,3,3,3,0,-943.0,1.7,-1.59,0.01,-0.35,0.02,0.08,1.25,2.625,620.625,-0.10638427734375,0.755615234375,0.22442626953125,0.0234,23.5,-8.0625,-59.0625,2.06,-1.61,stop,7
7.92,1663684.496871135,26,3,3,3,0,-943.0,1.65,-1.52,0.01,-0.4,0.09,0.02,2.375,2.375,620.5,-0.1064453125,0.7557373046875,0.224365234375,0.0234,23.5,-8.0625,-59.0625,2.06,-1.61,stop,7
7.93,1663684.496871135,26,3,3,3,0,-951.0,1.65,-1.44,-0.06,-0.39,0.17,-0.01,3.0,2.0,620.375,-0.1065673828125,0.755859375,0.2242431640625,0.0234,23.5,-8.0625,-59.0625,2.05,-1.62,stop,7
7.94,1663684.502169759,26,3,3,3,0,-958.0,1.68,-1.5,-0.13,-0.37,0.12,-0.06,2.875,1.6875,620.3125,-0.106689453125,0.7559814453125,0.22406005859375,0.0241,23.0625,-8.5,-59.0625,2.05,-1.62,stop,7
7.95,1663684.502169759,26,3,3,3,0,-961.0,1.75,-1.54,-0.16,-0.29,0.08,-0.03,2.4375,1.5625,620.1875,-0.1068115234375,0.75604248046875,0.2239990234375,0.0241,23.0625,-8.5,-59.0625,2.05,-1.62,stop,7
7.96,1663684.50753361,26,3,3,3,0,-962.0,1.78,-1.61,-0.17,-0.26,0.01,0.0,2.25,1.375,620.125,-0.10687255859375,0.756103515625,0.223876953125,0.0241,23.0625,-8.5,-59.0625,2.05,-1.63,stop,7
7.97,1663684.50753361,26,3,3,3,0,-962.0,1.83,-1.64,-0.17,-0.21,0.0,0.07,2.0,1.1875,620.0,-0.10693359375,0.7562255859375,0.22381591796875,0.0241,23.0625,-8.5,-59.0,2.04,-1.63,stop,7
7.98,1663684.526218954,26,3,3,3,0,-955.0,1.83,-1.66,-0.1,-0.21,-0.02,0.09,2.0625,1.0,619.9375,-0.10699462890625,0.75628662109375,0.2237548828125,0.0241,23.0625,-8.5,-59.0,2.04,-1.63,stop,7
7.99,1663684.526218954,26,3,3,3,0,-947.0,1.81,-1.62,-0.02,-0.23,0.01,0.05,1.5,0.6875,619.8125,-0.1070556640625,0.75640869140625,0.22369384765625,0.0237,22.0,-9.25,-59.0,2.04,-1.63,stop,7
8.0,1663684.541595785,26,3,3,3,0,-945.0,1.85,-1.59,0.0,-0.19,0.04,0.02,1.0,0.5625,619.75,-0.1070556640625,0.75640869140625,0.2236328125,0.0237,22.0,-9.25,-59.0,2.04,-1.64,stop,7
8.01,1663684.541595785,26,3,3,3,0,-948.0,1.8,-1.54,-0.03,-0.24,0.09,-0.03,0.3125,0.625,619.8125,-0.10711669921875,0.75640869140625,0.22357177734375,0.0237,22.0,-9.25,-59.0,2.04,-1.64,stop,7
8.02,1663684.55642452,26,3,3,3,0,-948.0,1.77,-1.53,-0.03,-0.26,0.1,-0.1,0.0,0.75,619.875,-0.107177734375,0.75640869140625,0.22357177734375,0.0237,22.0,-9.25,-59.0,2.04,-1.63,stop,7
8.03,1663684.55642452,26,3,3,3,0,-947.0,1.76,-1.51,-0.02,-0.27,0.12,-0.14,-0.125,0.75,619.875,-0.10723876953125,0.75634765625,0.22357177734375,0.0237,22.0,-9.25,-59.0625,2.04,-1.63,stop,7
8.04,1663684.588348511,26,3,3,3,0,-947.0,1.75,-1.47,-0.02,-0.29,0.16,-0.09,-0.8125,1.0,620.0,-0.1072998046875,0.7562255859375,0.22357177734375,0.0237,23.75,-8.75,-59.0625,2.04,-1.63,stop,7
8.05,1663684.588348511,26,3,3,3,0,-950.0,1.76,-1.48,-0.05,-0.27,0.14,-0.05,-1.1875,0.9375,620.1875,-0.1072998046875,0.756103515625,0.22357177734375,0.0237,23.75,-8.75,-59.0625,2.04,-1.63,stop,7
8.06,1663684.601412395,26,3,3,3,0,-953.0,1.74,-1.52,-0.08,-0.29,0.1,-0.1,-1.4375,0.75,620.375,-0.10736083984375,0.7559814453125,0.22357177734375,0.0237,23.75,-8.75,-59.0625,2.03,-1.62,stop,7
8.07,1663684.601412395,26,3,3,3,0,-957.0,1.75,-1.5,-0.12,-0.28,0.12,-0.08,-1.8125,0.75,620.5625,-0.107421875,0.75579833984375,0.2235107421875,0.0237,23.75,-8.75,-59.0625,2.03,-1.62,stop,7
8.08,1663684.662169637,26,3,3,3,0,-966.0,1.77,-1.53,-0.2,-0.26,0.08,-0.03,-1.9375,0.625,620.75,-0.107421875,0.75567626953125,0.22344970703125,0.0237,23.75,-8.75,-59.0625,2.03,-1.61,stop,7
8.09,1663684.662169637,26,3,3,3,0,-965.0,1.72,-1.55,-0.19,-0.3,0.05,-0.01,-2.125,0.375,621.0,-0.10748291015625,0.7554931640625,0.22332763671875,0.0233,23.0625,-9.25,-59.0625,2.03,-1.61,stop,7
8.1,1663684.667871582,26,3,3,3,0,-965.0,1.73,-1.56,-0.19,-0.29,0.04,0.0,-2.25,0.0,621.25,-0.10760498046875,0.75531005859375,0.22320556640625,0.0233,23.0625,-9.25,-59.0625,2.02,-1.61,stop,7
8.11,1663684.667871582,26,3,3,3,0,-963.0,1.73,-1.62,-0.17,-0.29,-0.01,-0.03,-2.3125,-0.125,621.5,-0.107666015625,0.75518798828125,0.22308349609375,0.0233,23.0625,-9.25,-59.125,2.02,-1.6,stop,7
8.12,1663684.692856242,26,3,3,3,0,-956.0,1.86,-1.59,-0.09,-0.15,0.0,-0.11,-2.1875,-0.375,621.6875,-0.10772705078125,0.7550048828125,0.22308349609375,0.0233,23.0625,-9.25,-59.125,2.02,-1.6,stop,7
8.13,1663684.692856242,26,3,3,3,0,-950.0,1.92,-1.56,-0.04,-0.09,0.03,-0.24,-1.6875,-0.25,621.8125,-0.10784912109375,0.7548828125,0.22314453125,0.0233,23.0625,-9.25,-59.125,2.01,-1.59,stop,7
8.14,1663684.697638103,26,3,3,3,0,-946.0,1.98,-1.54,0.0,-0.03,0.04,-0.3,-1.625,-0.375,621.875,-0.10791015625,0.7547607421875,0.2232666015625,0.0251,23.0625,-9.25,-59.125,2.01,-1.59,stop,7
8.15,1663684.697638103,26,3,3,3,0,-942.0,1.95,-1.53,0.03,-0.06,0.05,-0.23,-2.4375,-0.1875,622.0625,-0.10797119140625,0.75457763671875,0.223388671875,0.0251,23.0625,-9.25,-59.125,2.01,-1.59,stop,7
8.16,1663684.702506592,26,3,3,3,0,-941.0,1.91,-1.54,0.05,-0.1,0.04,-0.05,-2.6875,-0.25,622.25,-0.10791015625,0.75445556640625,0.223388671875,0.0251,23.0625,-9.25,-59.125,2.01,-1.58,stop,7
8.17,1663684.702506592,26,3,3,3,0,-941.0,1.86,-1.46,0.04,-0.15,0.11,0.08,-2.625,-0.375,622.4375,-0.10791015625,0.7542724609375,0.223388671875,0.0251,23.0625,-9.25,-59.125,2.01,-1.58,stop,7
8.18,1663684.721323487,26,3,3,3,0,-942.0,1.82,-1.43,0.04,-0.18,0.14,0.13,-2.25,-0.625,622.6875,-0.10791015625,0.754150390625,0.2232666015625,0.0251,23.0625,-9.25,-59.125,2.01,-1.57,stop,7
8.19,1663684.721323487,26,3,3,3,0,-946.0,1.79,-1.35,0.0,-0.22,0.21,0.17,-2.1875,-0.625,622.875,-0.10784912109375,0.7540283203125,0.22314453125,0.0244,23.0625,-9.25,-59.125,2.01,-1.57,stop,7
8.2,1663684.735725912,26,3,3,3,0,-953.0,1.77,-1.31,-0.06,-0.23,0.25,0.11,-2.125,-0.625,623.125,-0.10791015625,0.75384521484375,0.2230224609375,0.0244,23.0625,-9.25,-59.125,2.01,-1.56,stop,7
8.21,1663684.735725912,26,3,3,3,0,-956.0,1.8,-1.3,-0.09,-0.2,0.26,0.04,-2.125,-0.625,623.4375,-0.10797119140625,0.753662109375,0.22296142578125,0.0244,23.0625,-9.25,-59.1875,2.0,-1.56,stop,7
8.22,1663684.753102946,26,3,3,3,0,-958.0,1.74,-1.33,-0.11,-0.25,0.22,-0.04,-2.625,-0.8125,623.75,-0.1080322265625,0.75341796875,0.222900390625,0.0244,23.0625,-9.25,-59.1875,2.0,-1.55,stop,7
8.23,1663684.753102946,26,3,3,3,0,-961.0,1.72,-1.39,-0.13,-0.27,0.15,-0.05,-3.6875,-1.0,624.125,-0.108154296875,0.75311279296875,0.2227783203125,0.0244,23.0625,-9.25,-59.1875,1.99,-1.54,stop,7
8.24,1663684.79697343,26,3,3,3,0,-964.0,1.78,-1.32,-0.16,-0.2,0.21,-0.08,-3.8125,-1.1875,624.5625,-0.10821533203125,0.7528076171875,0.22265625,0.0237,23.0625,-8.0625,-59.1875,1.99,-1.53,stop,7
8.25,1663684.79697343,26,3,3,3,0,-966.0,1.82,-1.18,-0.18,-0.16,0.34,-0.23,-2.8125,-1.1875,624.875,-0.1083984375,0.75250244140625,0.22271728515625,0.0237,23.0625,-8.0625,-59.25,1.98,-1.53,stop,7
8.26,1663684.803021973,26,3,3,3,0,-964.0,1.86,-1.22,-0.15,-0.12,0.29,-0.44,-1.5,-1.125,625.125,-0.108642578125,0.75225830078125,0.2227783203125,0.0237,23.0625,-8.0625,-59.25,1.98,-1.52,stop,7
8.27,1663684.803021973,26,3,3,3,0,-962.0,1.9,-1.61,-0.13,-0.08,-0.09,-0.44,-3.625,-0.875,625.375,-0.10882568359375,0.751953125,0.222900390625,0.0237,23.0625,-8.0625,-59.25,1.98,-1.51,stop,7
8.28,1663684.826873129,26,3,3,3,0,-961.0,1.85,-1.69,-0.12,-0.13,-0.19,-0.26,-6.25,-0.8125,625.8125,-0.10888671875,0.7515869140625,0.2230224609375,0.0237,23.0625,-8.0625,-59.25,1.98,-1.5,stop,7
8.29,1663684.826873129,26,3,3,3,0,-961.0,1.84,-1.58,-0.13,-0.13,-0.09,-0.07,-5.9375,-0.75,626.25,-0.10882568359375,0.75128173828125,0.2230224609375,0.0244,23.0625,-8.5,-59.25,1.98,-1.49,stop,7
8.3,1663684.841157064,26,3,3,3,0,-966.0,1.84,-1.36,-0.17,-0.13,0.12,0.02,-2.625,-1.0625,626.4375,-0.10882568359375,0.7510986328125,0.22296142578125,0.0244,23.0625,-8.5,-59.25,1.97,-1.49,stop,7
8.31,1663684.841157064,26,3,3,3,0,-965.0,1.81,-1.22,-0.16,-0.15,0.26,0.05,0.0,-1.4375,626.5,-0.10894775390625,0.7510986328125,0.222900390625,0.0244,23.0625,-8.5,-59.25,1.97,-1.49,stop,7
8.32,1663684.856765137,26,3,3,3,0,-962.0,1.8,-1.24,-0.13,-0.16,0.23,0.03,-1.0625,-1.5,626.6875,-0.10906982421875,0.7509765625,0.2227783203125,0.0244,23.0625,-8.5,-59.3125,1.97,-1.48,stop,7
8.33,1663684.856765137,26,3,3,3,0,-962.0,1.84,-1.34,-0.13,-0.12,0.13,-0.15,-3.4375,-1.375,627.0,-0.10919189453125,0.75067138671875,0.2227783203125,0.0244,23.0625,-8.5,-59.3125,1.96,-1.48,stop,7
8.34,1663684.870301067,26,3,3,3,0,-961.0,1.81,-1.39,-0.11,-0.15,0.07,-0.37,-4.1875,-0.9375,627.3125,-0.10931396484375,0.7503662109375,0.222900390625,0.0237,23.75,-9.25,-59.3125,1.96,-1.47,stop,7
8.35,1663684.870301067,26,3,3,3,0,-960.0,1.81,-1.46,-0.11,-0.14,0.0,-0.42,-3.1875,-0.625,627.5625,-0.1094970703125,0.7501220703125,0.2230224609375,0.0237,23.75,-9.25,-59.3125,1.96,-1.46,stop,7
8.36,1663684.916829306,26,3,3,3,0,-963.0,1.79,-1.43,-0.14,-0.16,0.02,-0.41,-1.375,-0.5,627.6875,-0.109619140625,0.75,0.22314453125,0.0237,23.75,-9.25,-59.3125,1.96,-1.46,stop,7
8.37,1663684.916829306,26,3,3,3,0,-962.0,1.82,-1.38,-0.13,-0.13,0.07,-0.41,-0.6875,-0.1875,627.75,-0.10980224609375,0.7498779296875,0.2232666015625,0.0237,23.75,-9.25,-59.3125,1.96,-1.45,stop,7
8.38,1663684.922326213,26,3,3,3,0,-956.0,1.89,-1.34,-0.06,-0.07,0.1,-0.41,-1.0625,0.0,627.8125,-0.10992431640625,0.749755859375,0.22344970703125,0.0237,23.75,-9.25,-59.3125,1.96,-1.45,stop,7
8.39,1663684.922326213,26,3,3,3,0,-954.0,1.87,-1.38,-0.04,-0.08,0.06,-0.35,-1.3125,0.125,627.875,-0.11004638671875,0.7496337890625,0.22357177734375,0.0241,23.75,-8.5,-59.3125,1.96,-1.45,stop,7
8.4,1663684.947581706,26,3,3,3,0,-952.0,1.89,-1.38,-0.02,-0.06,0.06,-0.31,-1.1875,0.125,628.0,-0.11016845703125,0.74951171875,0.22369384765625,0.0241,23.75,-8.5,-59.3125,1.96,-1.44,stop,7
8.41,1663684.947581706,26,3,3,3,0,-953.0,1.89,-1.37,-0.03,-0.06,0.07,-0.31,-0.875,0.375,628.0625,-0.1102294921875,0.7493896484375,0.22381591796875,0.0241,23.75,-8.5,-59.3125,1.96,-1.44,stop,7
8.42,1663684.977771078,26,3,3,3,0,-952.0,1.86,-1.31,-0.02,-0.09,0.12,-0.28,-0.6875,0.5625,628.0625,-0.11029052734375,0.74932861328125,0.22393798828125,0.0241,23.75,-8.5,-59.3125,1.96,-1.44,stop,7
8.43,1663684.977771078,26,3,3,3,0,-957.0,1.85,-1.29,-0.08,-0.11,0.14,-0.23,-0.5,0.625,628.0625,-0.1103515625,0.749267578125,0.22406005859375,0.0241,23.75,-8.5,-59.3125,1.96,-1.44,stop,7
8.44,1663684.983196493,26,3,3,3,0,-959.0,1.86,-1.29,-0.09,-0.1,0.14,-0.17,-0.375,0.625,628.125,-0.11041259765625,0.74920654296875,0.22418212890625,0.0248,22.6875,-8.75,-59.3125,1.96,-1.44,stop,7
8.45,1663684.983196493,26,3,3,3,0,-960.0,1.85,-1.29,-0.1,-0.11,0.14,-0.13,-0.5,0.5625,628.125,-0.11041259765625,0.74920654296875,0.2242431640625,0.0248,22.6875,-8.75,-59.3125,1.96,-1.44,stop,7
8.46,1663684.991468832,26,3,3,3,0,-964.0,1.88,-1.33,-0.14,-0.07,0.1,-0.12,-0.375,0.5,628.125,-0.1104736328125,0.7491455078125,0.2242431640625,0.0248,22.6875,-8.75,-59.3125,1.96,-1.43,stop,7
8.47,1663684.991468832,26,3,3,3,0,-961.0,1.92,-1.39,-0.11,-0.03,0.04,-0.13,-0.375,0.5,628.1875,-0.11053466796875,0.74908447265625,0.22430419921875,0.0248,22.6875,-8.75,-59.3125,1.96,-1.43,stop,7
8.48,1663685.023153687,26,3,3,3,0,-956.0,1.95,-1.4,-0.06,-0.01,0.03,-0.11,-0.5,0.5625,628.1875,-0.11053466796875,0.74908447265625,0.224365234375,0.0248,22.6875,-8.75,-59.3125,1.96,-1.43,stop,7
8.49,1663685.023153687,26,3,3,3,0,-955.0,1.95,-1.42,-0.05,-0.01,0.01,-0.06,-0.5625,0.8125,628.1875,-0.1104736328125,0.7490234375,0.22442626953125,0.0248,24.1875,-8.75,-59.3125,1.96,-1.43,stop,7
8.5,1663685.036403768,26,3,3,3,0,-956.0,1.92,-1.43,-0.06,-0.04,0.0,-0.05,-0.1875,0.8125,628.1875,-0.1104736328125,0.7490234375,0.2244873046875,0.0248,24.1875,-8.75,-59.3125,1.96,-1.43,stop,7
8.51,1663685.036403768,26,3,3,3,0,-955.0,1.91,-1.44,-0.05,-0.05,0.0,-0.03,0.125,0.8125,628.1875,-0.11041259765625,0.74908447265625,0.2244873046875,0.0248,24.1875,-8.75,-59.3125,1.96,-1.43,stop,7
8.52,1663685.067063681,26,3,3,3,0,-954.0,1.83,-1.4,-0.04,-0.13,0.03,-0.01,0.3125,0.75,628.1875,-0.1103515625,0.74908447265625,0.22454833984375,0.0248,24.1875,-8.75,-59.3125,1.97,-1.43,stop,7
8.53,1663685.067063681,26,3,3,3,0,-956.0,1.83,-1.4,-0.06,-0.13,0.03,-0.03,0.125,0.75,628.1875,-0.1103515625,0.74908447265625,0.22454833984375,0.0248,24.1875,-8.75,-59.3125,1.97,-1.43,stop,7
8.54,1663685.081838664,26,3,3,3,0,-960.0,1.66,-1.48,-0.1,-0.3,-0.04,-0.08,0.0,0.5,628.1875,-0.11041259765625,0.7490234375,0.2244873046875,0.0244,22.6875,-8.0625,-59.3125,1.96,-1.43,moving,7
8.55,1663685.081838664,26,3,3,3,0,-967.0,1.61,-1.5,-0.17,-0.35,-0.07,-0.22,-0.125,0.375,628.1875,-0.11053466796875,0.7490234375,0.2244873046875,0.0244,22.6875,-8.0625,-59.3125,1.96,-1.43,moving,7
8.56,1663685.095913046,26,3,3,3,0,-972.0,1.54,-1.59,-0.22,-0.41,-0.15,-0.42,0.1875,0.0,628.1875,-0.11083984375,0.74896240234375,0.2244873046875,0.0244,22.6875,-8.0625,-59.375,1.96,-1.43,moving,7
8.57,1663685.095913046,26,3,3,3,0,-974.0,1.38,-1.71,-0.24,-0.58,-0.28,-0.61,0.9375,-0.5,628.125,-0.111083984375,0.74896240234375,0.2247314453125,0.0244,22.6875,-8.0625,-59.3125,1.96,-1.43,moving,7
8.58,1663685.142003378,26,3,3,3,0,-969.0,1.31,-1.79,-0.19,-0.64,-0.36,-0.74,1.5,-0.9375,628.0,-0.1114501953125,0.7489013671875,0.22491455078125,0.0244,22.6875,-8.0625,-59.3125,1.96,-1.43,moving,7
8.59,1663685.142003378,26,3,3,3,0,-967.0,1.18,-1.85,-0.17,-0.77,-0.41,-0.83,1.0,-1.25,627.875,-0.11181640625,0.74884033203125,0.2252197265625,0.0241,23.0625,-8.0625,-59.375,1.96,-1.43,moving,7
8.6,1663685.147733887,26,3,3,3,0,-968.0,1.08,-1.91,-0.18,-0.87,-0.48,-0.86,-0.5,-1.8125,627.875,-0.11224365234375,0.74871826171875,0.2254638671875,0.0241,23.0625,-8.0625,-59.375,1.96,-1.43,moving,7
8.61,1663685.147733887,26,3,3,3,0,-959.0,0.87,-1.81,-0.09,-1.07,-0.38,-0.89,-1.375,-2.375,628.0,-0.1126708984375,0.74853515625,0.2257080078125,0.0241,23.0625,-8.0625,-59.375,1.95,-1.43,moving,7
8.62,1663685.232619507,26,3,3,3,0,-942.0,0.76,-1.73,0.07,-1.18,-0.31,-0.96,-1.5625,-3.25,628.0625,-0.1131591796875,0.748291015625,0.22589111328125,0.0241,23.0625,-8.0625,-59.375,1.95,-1.42,moving,7
8.63,1663685.232619507,26,3,3,3,0,-918.0,0.72,-1.73,0.32,-1.22,-0.31,-1.13,-1.8125,-3.6875,628.25,-0.11376953125,0.74798583984375,0.2261962890625,0.0241,23.0625,-8.0625,-59.375,1.94,-1.42,moving,7
8.64,1663685.261483033,26,3,3,3,0,-918.0,0.72,-1.73,0.32,-1.22,-0.31,-1.13,-1.8125,-3.6875,628.25,-0.11376953125,0.74798583984375,0.2261962890625,0.0241,23.0625,-8.0625,-59.375,1.94,-1.42,moving,7
8.64,1663685.261483033,26,3,3,3,0,-889.0,0.68,-1.7,0.61,-1.25,-0.29,-1.41,-3.75,-3.6875,628.4375,-0.11444091796875,0.74761962890625,0.2265625,0.0244,22.6875,-8.75,-59.375,1.94,-1.41,moving,7
8.65,1663685.266890626,26,3,3,3,0,-837.0,0.65,-1.71,1.13,-1.28,-0.32,-1.75,-7.9375,-3.5,628.9375,-0.1151123046875,0.74688720703125,0.2271728515625,0.0244,22.6875,-8.75,-59.4375,1.94,-1.39,moving,7
8.66,1663685.266890626,26,3,3,3,0,-809.0,0.66,-1.73,1.42,-1.27,-0.36,-2.03,-13.8125,-2.9375,629.8125,-0.11572265625,0.74591064453125,0.22796630859375,0.0244,22.6875,-8.75,-59.4375,1.93,-1.36,moving,7
8.67,1663685.271654542,26,3,3,3,0,-775.0,0.66,-1.69,1.76,-1.27,-0.36,-2.05,-20.5625,-1.5625,631.0625,-0.1160888671875,0.7445068359375,0.22894287109375,0.0244,22.6875,-8.75,-59.5,1.93,-1.32,moving,7
8.68,1663685.271654542,26,3,3,3,0,-731.0,0.68,-1.53,2.2,-1.25,-0.25,-1.6,-27.25,0.1875,632.8125,-0.1160888671875,0.74285888671875,0.2298583984375,0.0244,22.6875,-8.75,-59.5,1.94,-1.28,moving,7
8.69,1663685.275987143,26,3,3,3,0,-666.0,0.66,-1.07,2.87,-1.28,0.14,-0.66,-34.375,2.125,635.0,-0.11553955078125,0.74090576171875,0.23052978515625,0.0244,23.5,-7.6875,-59.5625,1.94,-1.22,moving,7
8.7,1663685.275987143,26,3,3,3,0,-639.0,0.78,-0.8,3.15,-1.16,0.34,0.72,-42.25,3.9375,637.75,-0.11419677734375,0.73876953125,0.23089599609375,0.0244,23.5,-7.6875,-59.625,1.95,-1.15,moving,7
8.71,1663685.280634644,26,3,3,3,0,-619.0,1.0,-0.53,3.35,-0.95,0.53,2.31,-52.0625,5.6875,641.1875,-0.11199951171875,0.73626708984375,0.23077392578125,0.0244,23.5,-7.6875,-59.625,1.95,-1.07,moving,7
8.72,1663685.280634644,26,3,3,3,0,-567.0,1.39,-0.34,3.88,-0.56,0.62,3.99,-64.5,7.8125,645.5,-0.10882568359375,0.73333740234375,0.230224609375,0.0244,23.5,-7.6875,-59.6875,1.96,-0.97,moving,7
8.73,1663685.284698161,26,3,3,3,0,-513.0,1.57,-0.42,4.43,-0.39,0.43,6.22,-79.5625,10.5,650.875,-0.10443115234375,0.72979736328125,0.22906494140625,0.0244,23.5,-7.6875,-59.75,1.97,-0.85,moving,7
8.74,1663685.284698161,26,3,3,3,0,-434.0,1.93,-0.64,5.23,-0.06,0.06,8.73,-98.875,14.0625,657.5,-0.0985107421875,0.72552490234375,0.22723388671875,0.0248,22.6875,-8.0625,-59.8125,1.99,-0.7,moving,7
8.75,1663685.292466838,26,3,3,3,0,-328.0,2.42,-0.9,6.29,0.4,-0.38,11.14,-121.5,19.0625,665.5625,-0.09100341796875,0.72021484375,0.22491455078125,0.0248,22.6875,-8.0625,-59.875,2.01,-0.52,moving,7
8.76,1663685.292466838,26,3,3,3,0,-146.0,3.26,-1.37,8.12,1.21,-1.05,13.54,-144.6875,24.5,675.0,-0.08184814453125,0.7137451171875,0.22210693359375,0.0248,22.6875,-8.0625,-59.875,2.05,-0.31,moving,7
8.77,1663685.306691081,26,3,3,3,0,-84.0,3.72,-1.42,8.73,1.62,-1.34,16.36,-165.8125,29.875,685.625,-0.07086181640625,0.706298828125,0.21856689453125,0.0248,22.6875,-8.0625,-59.8125,2.09,-0.07,moving,7
8.78,1663685.306691081,26,3,3,3,0,-35.0,4.14,-1.14,9.21,1.98,-1.32,19.89,-183.625,34.875,697.1875,-0.0579833984375,0.69805908203125,0.21405029296875,0.0248,22.6875,-8.0625,-59.75,2.15,0.18,moving,7
8.79,1663685.337232301,26,3,3,3,0,-18.0,4.5,-0.52,9.35,2.27,-0.97,23.31,-193.25,37.875,709.125,-0.04339599609375,0.6893310546875,0.2083740234375,0.0248,22.6875,-12.75,-59.5625,2.22,0.45,moving,7
8.8,1663685.337232301,26,3,3,3,0,-181.0,5.37,0.73,7.68,3.05,0.02,26.47,-194.0625,39.5625,720.75,-0.0274658203125,0.68060302734375,0.20147705078125,0.0248,22.6875,-12.75,-59.375,2.31,0.7,moving,7
8.81,1663685.397780071,26,3,3,3,0,-533.0,6.06,1.38,4.12,3.66,0.44,29.75,-189.9375,40.0625,731.875,-0.01031494140625,0.672119140625,0.19329833984375,0.0248,22.6875,-12.75,-59.125,2.4,0.94,moving,7
8.82,1663685.397780071,26,3,3,3,0,-918.0,7.06,2.0,0.22,4.54,0.86,36.85,-182.3125,42.4375,742.0,0.00958251953125,0.6644287109375,0.18255615234375,0.0248,22.6875,-12.75,-58.75,2.51,1.14,moving,7
8.83,1663685.402855632,26,3,3,3,0,-1400.0,9.05,2.77,-4.65,6.39,1.49,51.13,-170.125,44.125,750.75,0.0350341796875,0.658447265625,0.1666259765625,0.0248,22.6875,-12.75,-58.4375,2.65,1.27,moving,7
8.84,1663685.402855632,26,3,3,3,0,-2443.0,17.48,8.74,-15.13,14.67,7.44,69.81,-140.4375,37.5,756.4375,0.067138671875,0.6551513671875,0.1434326171875,0.0259,22.6875,-22.5,-58.125,2.81,1.3,moving,7
8.85,1663685.407928345,26,3,3,3,0,-3092.0,19.2,11.53,-21.63,16.28,10.37,65.43,-43.5625,11.9375,755.9375,0.09466552734375,0.656982421875,0.12054443359375,0.0259,22.6875,-22.5,-58.0,2.92,1.16,moving,7
8.86,1663685.407928345,26,3,3,3,0,-3143.0,13.39,8.37,-22.11,10.47,7.47,36.07,95.75,-29.5625,748.5,0.1064453125,0.66558837890625,0.10650634765625,0.0259,22.6875,-22.5,-58.1875,2.91,0.89,moving,7
8.87,1663685.503138835,26,3,3,3,0,-2808.0,6.57,5.01,-18.73,3.7,4.36,17.8,119.625,-39.3125,740.625,0.11016845703125,0.67449951171875,0.0986328125,0.0259,22.6875,-22.5,-58.4375,2.86,0.64,moving,7
8.88,1663685.503138835,26,3,3,3,0,-2800.0,-2.79,0.72,-18.62,-5.62,0.22,12.23,63.0625,-29.6875,736.3125,0.11273193359375,0.67938232421875,0.0928955078125,0.0259,22.6875,-22.5,-58.5625,2.82,0.5,moving,7
8.89,1663685.509385458,26,3,3,3,0,-2854.0,-5.98,-0.49,-19.15,-8.77,-0.97,9.54,0.9375,-28.1875,735.875,0.11480712890625,0.68023681640625,0.08758544921875,0.0248,22.25,-40.0,-58.6875,2.78,0.47,moving,7
8.9,1663685.509385458,26,3,3,3,0,-2583.0,-4.25,-0.33,-16.43,-7.02,-0.86,5.67,-44.25,-13.0,738.3125,0.1165771484375,0.67779541015625,0.084228515625,0.0248,22.25,-40.0,-58.6875,2.76,0.52,moving,7
8.91,1663685.514647421,26,3,3,3,0,-2583.0,-4.25,-0.33,-16.43,-7.02,-0.86,5.67,-44.25,-13.0,738.3125,0.1165771484375,0.67779541015625,0.084228515625,0.0248,22.25,-40.0,-58.6875,2.76,0.52,moving,7
8.91,1663685.514647421,26,3,3,3,0,-2130.0,2.67,-1.33,-11.9,-0.07,-1.89,-1.0,-19.75,-11.375,739.6875,0.11566162109375,0.6766357421875,0.08367919921875,0.0248,22.25,-40.0,-58.6875,2.74,0.56,moving,7
8.92,1663685.520351523,26,3,3,3,0,-1925.0,3.89,-1.21,-9.84,1.18,-1.76,-8.53,26.0625,-23.25,738.8125,0.11077880859375,0.6781005859375,0.08563232421875,0.0248,22.25,-40.0,-58.75,2.7,0.54,moving,7
8.93,1663685.520351523,26,0,3,3,0,-1774.0,3.9,-1.5,-8.31,1.26,-1.98,-13.7,62.3125,-37.6875,736.125,0.1026611328125,0.6817626953125,0.08892822265625,0.0248,22.25,-40.0,-58.9375,2.63,0.48,moving,7
8.94,1663685.525542725,26,0,3,3,0,-1563.0,2.61,-1.79,-6.17,0.06,-2.19,-16.19,81.5,-48.1875,732.4375,0.09283447265625,0.68646240234375,0.0926513671875,0.0266,22.0625,-41.1875,-59.125,2.54,0.39,moving,7
8.95,1663685.525542725,26,0,3,3,0,-1186.0,0.7,-1.4,-2.37,-1.75,-1.71,-16.15,77.0,-52.4375,728.9375,0.082763671875,0.6907958984375,0.09600830078125,0.0266,22.0625,-41.1875,-59.25,2.45,0.31,moving,7
8.96,1663685.531064576,26,0,3,3,0,-987.0,0.67,-0.73,-0.35,-1.69,-0.98,-14.86,63.75,-52.75,726.0625,0.0732421875,0.6943359375,0.09881591796875,0.0266,22.0625,-41.1875,-59.4375,2.36,0.24,moving,7
8.97,1663685.531064576,26,0,3,3,0,-780.0,0.87,-0.24,1.73,-1.39,-0.42,-13.39,58.75,-50.0625,723.375,0.06451416015625,0.697509765625,0.10113525390625,0.0266,22.0625,-41.1875,-59.5625,2.27,0.18,moving,7
8.98,1663685.53442859,26,0,3,3,0,-593.0,1.13,-0.08,3.62,-1.06,-0.19,-13.6,61.4375,-47.75,720.4375,0.05584716796875,0.7008056640625,0.10369873046875,0.0266,22.0625,-41.1875,-59.6875,2.19,0.11,moving,7
8.99,1663685.53442859,26,0,3,3,0,-298.0,0.93,0.01,6.59,-1.18,-0.02,-15.79,66.5,-44.9375,717.125,0.04638671875,0.70416259765625,0.1072998046875,0.0261,22.75,-37.6875,-59.8125,2.11,0.03,moving,7
9.0,1663685.546317506,26,0,3,3,0,-201.0,0.39,-0.03,7.57,-1.65,0.0,-19.59,72.75,-43.5,713.4375,0.03558349609375,0.70758056640625,0.1124267578125,0.0261,22.75,-37.6875,-59.9375,2.04,-0.03,moving,7
9.01,1663685.546317506,26,0,3,3,0,-139.0,-0.3,0.28,8.21,-2.27,0.4,-23.43,75.25,-45.125,709.5,0.02313232421875,0.7108154296875,0.118896484375,0.0261,22.75,-37.6875,-60.0,1.97,-0.11,moving,7
9.02,1663685.5616521,26,0,3,3,0,-103.0,-0.97,0.67,8.58,-2.87,0.86,-25.66,80.0,-47.5625,705.1875,0.0096435546875,0.7139892578125,0.12615966796875,0.0261,22.75,-37.6875,-60.0625,1.89,-0.19,moving,7
9.03,1663685.5616521,26,0,3,3,0,29.0,-2.05,0.96,9.93,-3.86,1.25,-25.99,90.1875,-51.6875,700.0,-0.00433349609375,0.71759033203125,0.1331787109375,0.0261,22.75,-37.6875,-60.1875,1.81,-0.29,moving,7
9.04,1663685.576472616,26,0,3,3,0,109.0,-2.31,1.15,10.73,-4.03,1.57,-26.08,101.5625,-58.3125,694.0625,-0.01885986328125,0.72161865234375,0.13983154296875,0.0269,23.375,-32.6875,-60.25,1.72,-0.41,moving,7
9.05,1663685.576472616,26,0,3,3,0,151.0,-2.87,1.15,11.16,-4.51,1.7,-26.77,112.0625,-63.8125,687.1875,-0.0341796875,0.7259521484375,0.1463623046875,0.0269,23.375,-32.6875,-60.3125,1.63,-0.55,moving,7
9.06,1663685.60722164,26,0,3,3,0,127.0,-3.78,1.66,10.93,-5.32,2.36,-27.15,116.875,-65.6875,679.875,-0.04974365234375,0.7303466796875,0.15289306640625,0.0269,23.375,-32.6875,-60.3125,1.54,-0.7,moving,7
9.07,1663685.60722164,26,0,3,3,0,90.0,-4.0,2.21,10.56,-5.46,3.07,-27.26,116.1875,-60.8125,672.25,-0.0650634765625,0.734375,0.15966796875,0.0269,23.375,-32.6875,-60.3125,1.46,-0.85,moving,7
9.08,1663685.621278118,26,0,3,3,0,72.0,-4.14,2.15,10.37,-5.54,3.15,-25.79,111.0,-50.875,664.625,-0.0791015625,0.73809814453125,0.1663818359375,0.0269,23.375,-32.6875,-60.3125,1.4,-1.0,moving,7
9.09,1663685.621278118,26,0,3,3,0,110.0,-4.06,1.97,10.75,-5.42,3.1,-25.0,93.6875,-45.0625,657.9375,-0.09222412109375,0.74072265625,0.1732177734375,0.0251,23.375,-23.0625,-60.25,1.35,-1.12,moving,7
9.1,1663685.636826946,26,0,3,3,0,267.0,-1.96,1.46,12.31,-3.28,2.67,-25.58,73.4375,-42.375,652.3125,-0.10504150390625,0.74200439453125,0.1805419921875,0.0251,23.375,-23.0625,-60.25,1.31,-1.2,moving,7
9.11,1663685.636826946,26,0,3,3,0,198.0,-0.31,1.81,11.62,-1.61,3.08,-27.84,62.25,-31.25,647.0,-0.11767578125,0.7423095703125,0.189453125,0.0251,23.375,-23.0625,-60.1875,1.29,-1.27,moving,7
9.12,1663685.666030274,26,0,3,3,0,147.0,0.54,2.02,11.09,-0.75,3.37,-34.43,79.125,-29.5625,639.875,-0.13275146484375,0.74267578125,0.20086669921875,0.0251,23.375,-23.0625,-60.125,1.29,-1.35,moving,7
9.13,1663685.666030274,26,3,3,3,0,131.0,0.84,2.72,10.92,-0.45,4.19,-38.97,104.0625,-34.875,630.5625,-0.15008544921875,0.74346923828125,0.2135009765625,0.0251,23.375,-23.0625,-60.0,1.29,-1.47,moving,7
9.14,1663685.684667725,26,3,3,3,0,-48.0,2.28,3.37,9.09,0.97,4.99,-40.81,124.8125,-34.375,619.3125,-0.1683349609375,0.7447509765625,0.2264404296875,0.0234,24.75,-15.1875,-59.875,1.31,-1.62,moving,7
9.15,1663685.684667725,26,3,3,3,0,-143.0,2.08,3.28,8.11,0.74,5.06,-41.02,126.8125,-33.125,607.5,-0.18646240234375,0.74560546875,0.2393798828125,0.0234,24.75,-15.1875,-59.6875,1.33,-1.77,moving,7
9.16,1663685.696026368,26,3,3,3,0,-386.0,1.98,3.09,5.66,0.63,5.0,-41.03,113.625,-36.0,596.25,-0.20440673828125,0.74530029296875,0.25225830078125,0.0234,24.75,-15.1875,-59.5,1.35,-1.9,moving,7
9.17,1663685.696026368,26,3,3,3,0,-386.0,1.98,3.09,5.66,0.63,5.0,-41.03,113.625,-36.0,596.25,-0.20440673828125,0.74530029296875,0.25225830078125,0.0234,24.75,-15.1875,-59.5,1.35,-1.9,moving,7
9.17,1663685.710861248,26,3,3,3,0,-901.0,3.2,3.12,0.47,1.82,5.14,-42.37,103.75,-40.625,585.25,-0.22271728515625,0.7437744140625,0.2655029296875,0.0234,24.75,-15.1875,-59.3125,1.37,-2.01,moving,7
9.18,1663685.710861248,26,3,3,3,0,-2338.0,5.53,6.13,-13.91,4.13,8.28,-36.86,113.75,-37.125,573.875,-0.23919677734375,0.74322509765625,0.27630615234375,0.0234,24.75,-15.1875,-59.125,1.39,-2.14,moving,7
9.19,1663685.727613201,26,3,3,3,0,-3382.0,11.75,5.61,-24.39,10.38,7.93,-7.35,111.5,-24.875,566.125,-0.2457275390625,0.7469482421875,0.27569580078125,0.0237,23.375,-2.0625,-58.875,1.37,-2.32,moving,7
9.2,1663685.727613201,26,3,3,3,0,-3954.0,18.39,8.18,-30.11,17.14,10.58,36.83,18.625,-16.625,570.25,-0.23614501953125,0.75286865234375,0.25946044921875,0.0237,23.375,-2.0625,-58.875,1.25,-2.4,moving,7
9.21,1663685.757054851,26,3,3,3,0,-3785.0,24.86,0.9,-28.38,23.64,3.16,40.59,-120.5625,39.625,582.625,-0.2183837890625,0.7532958984375,0.24713134765625,0.0237,23.375,-2.0625,-59.125,1.21,-2.25,moving,7
9.22,1663685.757054851,26,3,3,3,0,-3319.0,7.7,-7.62,-23.62,6.43,-5.9,21.6,-338.125,61.6875,606.375,-0.2001953125,0.740234375,0.2476806640625,0.0237,23.375,-2.0625,-59.75,1.27,-1.72,moving,7
9.23,1663685.771086305,26,3,3,3,0,-3683.0,-2.98,-19.11,-27.17,-4.34,-18.12,16.57,-450.9375,69.6875,636.0,-0.18048095703125,0.7197265625,0.2523193359375,0.0237,23.375,-2.0625,-60.375,1.36,-0.99,moving,7
9.24,1663685.771086305,26,3,3,3,0,-3667.0,-17.2,-25.2,-26.97,-18.67,-25.05,29.27,-521.3125,70.875,670.0625,-0.1544189453125,0.69580078125,0.2525634765625,0.0212,23.0625,-0.5,-60.5625,1.46,-0.15,moving,7
9.25,1663685.80286373,26,3,3,3,0,-2373.0,-5.77,-8.76,-14.05,-7.33,-9.04,26.94,-288.0625,54.125,688.8125,-0.1351318359375,0.6834716796875,0.24920654296875,0.0212,23.0625,-0.5,-60.4375,1.55,0.28,moving,7
9.26,1663685.80286373,26,3,3,3,0,-2100.0,-2.67,-2.7,-11.33,-4.29,-2.86,16.36,62.25,30.25,685.5625,-0.128662109375,0.689697265625,0.244140625,0.0212,23.0625,-0.5,-60.4375,1.61,0.15,moving,7
9.27,1663685.815922486,26,3,3,3,0,-1729.0,-0.68,2.67,-7.62,-2.3,2.86,14.5,191.0625,7.5,674.5625,-0.126953125,0.70269775390625,0.2369384765625,0.0212,23.0625,-0.5,-60.375,1.62,-0.19,moving,7
9.28,1663685.815922486,26,3,3,3,0,-1271.0,2.26,3.0,-3.05,0.65,3.59,13.53,218.1875,-6.125,661.8125,-0.126953125,0.716796875,0.22894287109375,0.0212,23.0625,-0.5,-60.3125,1.6,-0.58,moving,7
9.29,1663685.831129477,26,3,3,3,0,-643.0,3.94,2.33,3.2,2.35,3.24,9.04,179.875,-3.9375,650.9375,-0.12762451171875,0.7279052734375,0.22314453125,0.0248,22.0625,-10.1875,-60.1875,1.59,-0.9,moving,7
9.3,1663685.831129477,26,3,3,3,0,-454.0,3.76,1.0,5.06,2.14,2.08,4.23,96.9375,16.125,644.5625,-0.12701416015625,0.73394775390625,0.2213134765625,0.0248,22.0625,-10.1875,-60.0625,1.61,-1.07,moving,7
9.31,1663685.846670004,26,3,3,3,0,-314.0,3.1,-0.3,6.44,1.42,0.83,3.83,35.8125,37.375,641.75,-0.12396240234375,0.73675537109375,0.221435546875,0.0248,22.0625,-10.1875,-59.9375,1.67,-1.14,moving,7
9.32,1663685.846670004,26,3,3,3,0,-170.0,2.58,-1.17,7.87,0.83,-0.02,6.45,2.0,50.0,641.125,-0.11859130859375,0.7381591796875,0.22149658203125,0.0248,22.0625,-10.1875,-59.8125,1.75,-1.15,moving,7
9.33,1663685.907323325,26,3,3,3,0,0.0,2.38,-1.17,9.57,0.55,-0.04,10.85,-28.9375,56.1875,642.625,-0.1107177734375,0.73846435546875,0.22052001953125,0.0248,22.0625,-10.1875,-59.75,1.83,-1.12,moving,7
9.34,1663685.907323325,26,3,3,3,0,87.0,2.78,-1.05,10.43,0.87,0.03,16.25,-42.75,60.875,645.1875,-0.10040283203125,0.73858642578125,0.21771240234375,0.024,22.6875,-9.6875,-59.6875,1.91,-1.09,moving,7
9.35,1663685.912980551,26,3,3,3,0,191.0,2.89,-0.58,11.45,0.9,0.48,21.55,-38.25,66.125,647.625,-0.0880126953125,0.73956298828125,0.2130126953125,0.024,22.6875,-9.6875,-59.625,1.99,-1.07,moving,7
9.36,1663685.912980551,26,3,3,3,0,261.0,2.89,-0.13,12.13,0.81,0.93,25.5,-32.1875,67.3125,649.625,-0.07427978515625,0.74114990234375,0.2066650390625,0.024,22.6875,-9.6875,-59.5,2.08,-1.07,moving,7
9.37,1663685.918435995,26,3,3,3,0,407.0,3.08,0.92,13.58,0.92,2.01,28.53,-29.0625,63.1875,651.5,-0.05975341796875,0.7430419921875,0.19879150390625,0.024,22.6875,-9.6875,-59.375,2.15,-1.09,moving,7
9.38,1663685.918435995,26,3,3,3,0,478.0,3.1,0.85,14.26,0.89,1.98,29.38,-23.0625,56.875,652.875,-0.04547119140625,0.74517822265625,0.19012451171875,0.024,22.6875,-9.6875,-59.25,2.21,-1.12,moving,7
9.39,1663685.937931682,26,3,3,3,0,528.0,2.54,0.91,14.75,0.28,2.06,28.69,-23.1875,48.625,654.25,-0.03192138671875,0.7469482421875,0.1812744140625,0.0247,22.375,-12.0625,-59.1875,2.25,-1.15,moving,7
9.4,1663685.937931682,26,3,3,3,0,545.0,1.13,0.25,14.91,-1.16,1.41,28.26,-34.5625,45.0625,656.25,-0.01861572265625,0.747802734375,0.17236328125,0.0247,22.375,-12.0625,-59.125,2.29,-1.16,moving,7
9.41,1663685.950745078,26,3,3,3,0,522.0,0.89,0.48,14.67,-1.44,1.63,29.8,-55.9375,47.8125,659.4375,-0.00421142578125,0.7474365234375,0.1629638671875,0.0247,22.375,-12.0625,-59.0625,2.33,-1.15,moving,7
9.42,1663685.950745078,26,3,3,3,0,547.0,0.63,0.81,14.92,-1.74,1.9,30.65,-84.9375,46.375,664.4375,0.01080322265625,0.74530029296875,0.15313720703125,0.0247,22.375,-12.0625,-59.0625,2.37,-1.08,moving,7
9.43,1663685.967951824,26,3,3,3,0,543.0,0.06,1.41,14.88,-2.34,2.4,30.25,-113.25,45.3125,671.0,0.0260009765625,0.7412109375,0.14324951171875,0.0247,22.375,-12.0625,-59.0625,2.41,-0.98,moving,7
9.43,1663685.967951824,26,3,3,3,0,543.0,0.06,1.41,14.88,-2.34,2.4,30.25,-113.25,45.3125,671.0,0.0260009765625,0.7412109375,0.14324951171875,0.0247,22.375,-12.0625,-59.0625,2.41,-0.98,moving,7
9.44,1663685.983008994,26,3,3,3,0,422.0,-0.73,1.71,13.67,-3.2,2.55,28.23,-129.9375,48.3125,678.4375,0.04083251953125,0.7357177734375,0.13433837890625,0.0254,22.0625,-17.0625,-59.0625,2.46,-0.84,moving,7
9.45,1663685.983008994,26,3,3,3,0,145.0,-0.04,1.6,10.89,-2.58,2.31,27.06,-123.75,58.8125,685.125,0.05584716796875,0.730224609375,0.12646484375,0.0254,22.0625,-17.0625,-59.0,2.54,-0.71,moving,7
9.46,1663685.996025432,26,3,3,3,0,-142.0,0.37,1.62,7.99,-2.25,2.23,26.91,-106.9375,60.75,690.5,0.07073974609375,0.72540283203125,0.1187744140625,0.0254,22.0625,-17.0625,-58.875,2.62,-0.61,moving,7
9.47,1663685.996025432,26,3,3,3,0,-420.0,0.69,1.59,5.21,-1.99,2.12,25.98,-95.625,49.25,695.0625,0.0843505859375,0.7210693359375,0.11077880859375,0.0254,22.0625,-17.0625,-58.8125,2.69,-0.53,moving,7
9.48,1663686.027127809,26,3,3,3,0,-1297.0,-2.8,3.53,-3.57,-5.53,3.98,26.41,-90.875,33.5,699.1875,0.09710693359375,0.7169189453125,0.10174560546875,0.0254,22.0625,-17.0625,-58.75,2.73,-0.45,moving,7
9.49,1663686.027127809,26,3,3,3,0,-2959.0,-0.51,8.77,-20.19,-3.3,9.18,26.55,-80.0625,37.6875,702.5,0.110107421875,0.71319580078125,0.0928955078125,0.0261,21.25,-29.5,-58.6875,2.78,-0.4,moving,7
9.5,1663686.056424684,26,3,3,3,0,-3954.0,0.95,15.41,-30.13,-1.77,15.96,17.12,50.4375,-29.375,698.4375,0.1142578125,0.71728515625,0.0849609375,0.0261,21.25,-29.5,-58.75,2.72,-0.54,moving,7
9.51,1663686.056424684,26,3,3,3,0,-3935.0,-3.98,14.25,-29.93,-6.46,15.35,4.13,336.1875,-144.875,677.4375,0.10418701171875,0.738525390625,0.07806396484375,0.0261,21.25,-29.5,-58.875,2.48,-1.1,moving,7
9.52,1663686.061893149,26,3,3,3,0,-3786.0,-4.48,5.63,-28.46,-6.62,7.39,8.65,390.875,-199.9375,652.0625,0.0916748046875,0.7626953125,0.0665283203125,0.0261,21.25,-29.5,-58.75,2.14,-1.76,moving,7
9.53,1663686.061893149,26,3,3,3,0,-3954.0,6.21,-0.38,-30.15,4.31,1.75,13.38,205.8125,-128.625,638.0,0.0865478515625,0.775390625,0.055419921875,0.0261,21.25,-29.5,-58.625,1.9,-2.13,moving,7
9.54,1663686.102003012,26,3,3,3,0,-3684.0,7.91,-21.08,-27.41,6.08,-19.12,-13.88,-86.375,-61.4375,645.0,0.07806396484375,0.7706298828125,0.05731201171875,0.0269,21.75,-35.0,-58.9375,1.83,-1.96,moving,7
9.55,1663686.102003012,26,3,3,3,0,-3087.0,14.77,-10.89,-21.31,12.87,-9.75,-46.67,-440.0,-5.375,676.6875,0.06378173828125,0.74420166015625,0.07354736328125,0.0269,21.75,-35.0,-59.6875,1.89,-1.13,moving,7
9.56,1663686.107593588,26,3,3,3,0,-1760.0,7.14,-15.2,-8.01,5.17,-14.62,-76.9,-236.3125,-1.6875,694.375,0.03741455078125,0.7266845703125,0.10321044921875,0.0269,21.75,-35.0,-59.875,1.96,-0.57,moving,7
9.57,1663686.107593588,26,3,3,3,0,-1442.0,3.84,-7.05,-4.83,1.88,-6.45,-44.67,69.875,-20.0625,690.8125,0.01898193359375,0.7281494140625,0.119873046875,0.0269,21.75,-35.0,-59.875,1.96,-0.59,moving,7
9.58,1663686.115900066,26,3,3,3,0,-1118.0,4.57,-2.32,-1.6,2.66,-1.44,-25.64,199.3125,-45.0625,678.4375,0.00457763671875,0.738037109375,0.127685546875,0.0269,21.75,-35.0,-59.8125,1.9,-0.87,moving,7
9.59,1663686.115900066,26,3,3,3,0,-606.0,1.76,1.25,3.47,-0.08,2.54,-18.28,267.625,-45.8125,661.125,-0.0079345703125,0.75201416015625,0.1324462890625,0.0258,22.75,-35.0,-59.625,1.85,-1.28,moving,7
9.6,1663686.146910117,26,3,3,3,0,-436.0,1.06,2.37,5.12,-0.72,4.09,-11.87,272.8125,-48.0625,643.1875,-0.0184326171875,0.7662353515625,0.13433837890625,0.0258,22.75,-35.0,-59.25,1.79,-1.71,moving,7
9.61,1663686.146910117,26,3,3,3,0,-222.0,0.56,2.79,7.22,-1.18,4.77,-9.4,169.375,-36.5,631.875,-0.026123046875,0.774658203125,0.135986328125,0.0258,22.75,-35.0,-59.0,1.75,-1.97,moving,7
9.62,1663686.17722046,26,3,3,3,0,-72.0,0.18,2.99,8.69,-1.55,5.06,-13.9,74.625,-22.4375,626.75,-0.033203125,0.77752685546875,0.14044189453125,0.0258,22.75,-35.0,-58.875,1.74,-2.07,moving,7
9.63,1663686.17722046,26,3,3,3,0,68.0,-0.25,1.38,10.09,-2.0,3.5,-23.25,54.3125,-24.5,622.8125,-0.04327392578125,0.77850341796875,0.1488037109375,0.0258,22.75,-35.0,-58.8125,1.75,-2.11,moving,7
9.64,1663686.184610638,26,3,3,3,0,84.0,-1.27,0.78,10.24,-3.04,2.92,-33.07,55.5,-40.375,618.625,-0.0577392578125,0.7784423828125,0.16046142578125,0.025,23.75,-22.0,-58.75,1.76,-2.14,moving,7
9.65,1663686.184610638,26,3,3,3,0,104.0,-2.54,0.45,10.44,-4.3,2.62,-40.2,62.875,-60.375,613.6875,-0.075927734375,0.7777099609375,0.1739501953125,0.025,23.75,-22.0,-58.75,1.76,-2.16,moving,7
9.66,1663686.221017335,26,3,3,3,0,101.0,-3.63,0.13,10.4,-5.36,2.34,-42.08,78.3125,-80.9375,607.5625,-0.09637451171875,0.7769775390625,0.18701171875,0.025,23.75,-22.0,-58.6875,1.72,-2.21,moving,7
9.67,1663686.221017335,26,3,3,3,0,63.0,-2.96,0.47,10.03,-4.63,2.75,-40.84,84.875,-98.0625,600.9375,-0.1175537109375,0.776123046875,0.19842529296875,0.025,23.75,-22.0,-58.6875,1.66,-2.27,moving,7
9.68,1663686.226648846,26,3,3,3,0,82.0,-2.3,1.1,10.21,-3.89,3.44,-40.83,80.5625,-108.5625,594.4375,-0.13934326171875,0.77447509765625,0.209228515625,0.025,23.75,-22.0,-58.625,1.59,-2.33,moving,7
9.69,1663686.226648846,26,3,3,3,0,82.0,-2.3,1.1,10.21,-3.89,3.44,-40.83,80.5625,-108.5625,594.4375,-0.13934326171875,0.77447509765625,0.209228515625,0.025,23.75,-22.0,-58.625,1.59,-2.33,moving,7
9.69,1663686.235815349,26,3,3,3,0,164.0,-2.28,1.73,11.03,-3.81,4.12,-42.44,70.25,-107.4375,588.125,-0.16131591796875,0.7716064453125,0.22076416015625,0.0243,24.1875,-13.5,-58.6875,1.52,-2.38,moving,7
9.7,1663686.235815349,26,3,3,3,0,310.0,-2.83,1.64,12.5,-4.28,4.04,-43.03,52.0625,-113.875,582.75,-0.18341064453125,0.76715087890625,0.23236083984375,0.0243,24.1875,-13.5,-58.6875,1.44,-2.39,moving,7
9.71,1663686.251796835,26,3,3,3,0,450.0,-0.72,0.84,13.91,-2.07,3.26,-38.84,45.8125,-118.5625,577.9375,-0.20428466796875,0.76239013671875,0.24188232421875,0.0243,24.1875,-13.5,-58.75,1.35,-2.41,moving,7
9.72,1663686.251796835,26,3,3,3,0,459.0,0.37,0.85,14.01,-0.88,3.28,-34.51,40.5,-111.25,573.5,-0.22308349609375,0.7576904296875,0.24993896484375,0.0243,24.1875,-13.5,-58.8125,1.26,-2.42,moving,7
9.73,1663686.266056194,26,3,3,3,0,404.0,0.99,1.22,13.47,-0.17,3.67,-30.68,37.875,-105.3125,569.4375,-0.240234375,0.75311279296875,0.25665283203125,0.0243,24.1875,-13.5,-58.875,1.17,-2.45,moving,7
9.74,1663686.266056194,26,3,3,3,0,330.0,1.81,1.64,12.73,0.73,4.1,-29.88,25.125,-101.3125,565.9375,-0.2564697265625,0.7479248046875,0.263427734375,0.0215,23.75,0.5625,-58.9375,1.08,-2.45,moving,7
9.75,1663686.297516928,26,3,3,3,0,-6.0,3.27,2.27,9.38,2.26,4.68,-30.98,-4.5625,-94.5,564.0,-0.2718505859375,0.740966796875,0.27154541015625,0.0215,23.75,0.5625,-59.0625,1.0,-2.41,moving,7
9.76,1663686.297516928,26,3,3,3,0,-318.0,4.08,2.18,6.29,3.13,4.5,-29.93,-41.25,-81.0,564.0625,-0.2850341796875,0.73248291015625,0.2806396484375,0.0215,23.75,0.5625,-59.25,0.95,-2.31,moving,7
9.77,1663686.31176823,26,3,3,3,0,-898.0,5.16,2.01,0.54,4.23,4.16,-25.51,-82.1875,-48.9375,566.5625,-0.2938232421875,0.72332763671875,0.29046630859375,0.0215,23.75,0.5625,-59.5,0.93,-2.14,moving,7
9.78,1663686.31176823,26,3,3,3,0,-3026.0,9.21,7.25,-20.7,8.25,9.19,-10.7,-117.5625,3.3125,572.3125,-0.2938232421875,0.7159423828125,0.2978515625,0.0215,23.75,0.5625,-59.75,0.96,-1.94,moving,7
9.79,1663686.325681113,26,3,3,3,0,-3954.0,16.12,16.81,-29.96,15.11,18.64,29.76,-83.125,68.6875,580.5625,-0.27825927734375,0.7183837890625,0.2916259765625,0.0204,22.375,7.5,-59.875,1.01,-1.83,moving,7
9.8,1663686.325681113,26,3,3,3,0,-3947.0,24.77,12.0,-29.93,23.59,13.95,35.35,42.875,139.875,579.5625,-0.25958251953125,0.729248046875,0.28363037109375,0.0204,22.375,7.5,-59.5625,1.17,-1.94,moving,7
9.81,1663686.356738527,26,3,3,3,0,-3738.0,13.87,0.82,-27.91,12.54,2.99,-3.5,138.75,93.5625,567.625,-0.25811767578125,0.737548828125,0.2864990234375,0.0204,22.375,7.5,-59.125,1.33,-2.16,moving,7
9.82,1663686.356738527,26,3,3,3,0,-3678.0,3.08,-29.08,-27.31,1.54,-27.04,-27.56,-48.9375,81.5,564.75,-0.2598876953125,0.73260498046875,0.3026123046875,0.0204,22.375,7.5,-59.125,1.53,-2.04,moving,7
9.83,1663686.386775962,26,3,3,3,0,-3513.0,-7.93,-38.94,-25.56,-9.66,-37.71,-43.58,-444.8125,72.875,585.0,-0.25628662109375,0.70489501953125,0.33331298828125,0.0204,22.375,7.5,-59.8125,1.73,-1.22,moving,7
9.84,1663686.386775962,26,3,3,3,0,-2573.0,5.08,-23.61,-16.11,3.26,-23.04,3.68,-400.3125,49.5625,608.875,-0.24029541015625,0.686279296875,0.3431396484375,0.0217,22.1875,8.0,-60.125,1.81,-0.56,moving,7
9.85,1663686.392315716,26,3,3,3,0,-2173.0,-0.39,-2.6,-12.12,-2.25,-2.04,32.84,-40.625,35.8125,614.5625,-0.22625732421875,0.69091796875,0.33349609375,0.0217,22.1875,8.0,-60.0625,1.85,-0.56,moving,7
9.86,1663686.392315716,26,3,3,3,0,-1390.0,-0.89,2.35,-4.3,-2.75,3.15,30.7,104.875,17.5625,611.375,-0.2181396484375,0.70220947265625,0.32073974609375,0.0217,22.1875,8.0,-59.9375,1.86,-0.79,moving,7
9.87,1663686.418502443,26,3,3,3,0,-1195.0,-0.21,2.11,-2.38,-2.06,3.16,25.54,117.8125,11.4375,606.625,-0.21240234375,0.71295166015625,0.30926513671875,0.0217,22.1875,8.0,-59.8125,1.85,-1.04,moving,7
9.88,1663686.418502443,26,3,3,3,0,-918.0,0.03,0.74,0.36,-1.8,2.02,22.9,113.5625,7.4375,601.875,-0.20758056640625,0.72271728515625,0.298583984375,0.0217,22.1875,8.0,-59.625,1.83,-1.28,moving,7
9.89,1663686.431743043,26,3,3,3,0,-662.0,0.69,-0.22,2.91,-1.14,1.18,19.96,49.25,13.75,600.5625,-0.20159912109375,0.7286376953125,0.29052734375,0.0238,21.375,11.0625,-59.5625,1.83,-1.4,moving,7
9.9,1663686.431743043,26,3,3,3,0,-338.0,1.52,-0.31,6.14,-0.31,1.09,17.61,-15.8125,16.0625,603.1875,-0.19451904296875,0.73089599609375,0.28460693359375,0.0238,21.375,11.0625,-59.5,1.83,-1.41,moving,7
9.91,1663686.447399537,26,3,3,3,0,-360.0,1.8,-1.23,5.92,-0.02,0.16,17.24,-27.25,11.875,606.5,-0.1875,0.7322998046875,0.27880859375,0.0238,21.375,11.0625,-59.5625,1.82,-1.4,moving,7
9.92,1663686.447399537,26,3,3,3,0,-253.0,2.91,-2.17,6.99,1.08,-0.79,19.11,-34.125,17.6875,610.25,-0.17938232421875,0.73370361328125,0.27264404296875,0.0238,21.375,11.0625,-59.5625,1.82,-1.38,moving,7
9.93,1663686.491763185,26,3,3,3,0,65.0,4.38,-1.5,10.19,2.53,-0.17,21.47,-58.25,32.0,615.375,-0.1689453125,0.73431396484375,0.2666015625,0.0238,21.375,11.0625,-59.5625,1.84,-1.32,moving,7
9.94,1663686.491763185,26,3,3,3,0,215.0,4.67,-0.82,11.69,2.78,0.45,24.26,-59.375,40.75,620.5625,-0.156982421875,0.7352294921875,0.2598876953125,0.024,22.5625,6.0625,-59.5625,1.88,-1.27,moving,7
9.95,1663686.49744153,26,3,3,3,0,215.0,4.67,-0.82,11.69,2.78,0.45,24.26,-59.375,40.75,620.5625,-0.156982421875,0.7352294921875,0.2598876953125,0.024,22.5625,6.0625,-59.5625,1.88,-1.27,moving,7
9.95,1663686.49744153,26,3,3,3,0,337.0,4.61,-0.22,12.9,2.69,1.04,27.33,-37.3125,45.375,624.25,-0.1441650390625,0.7376708984375,0.2518310546875,0.024,22.5625,6.0625,-59.5625,1.91,-1.27,moving,7
9.96,1663686.523192221,26,3,3,3,0,406.0,4.39,0.58,13.58,2.44,1.88,30.34,-18.1875,48.375,626.75,-0.13055419921875,0.7413330078125,0.242431640625,0.024,22.5625,6.0625,-59.4375,1.95,-1.3,moving,7
9.97,1663686.523192221,26,3,3,3,0,517.0,3.42,1.58,14.68,1.43,2.94,32.42,-6.3125,48.0625,628.375,-0.116455078125,0.7457275390625,0.23193359375,0.024,22.5625,6.0625,-59.375,1.99,-1.36,moving,7
9.98,1663686.528000449,26,3,3,3,0,538.0,2.78,2.04,14.88,0.77,3.46,33.33,-6.5,43.5,629.9375,-0.102294921875,0.7498779296875,0.22076416015625,0.024,22.5625,6.0625,-59.3125,2.01,-1.42,moving,7
9.99,1663686.528000449,26,3,3,3,0,495.0,2.08,2.6,14.44,0.06,4.07,34.47,-19.625,39.0625,632.375,-0.0877685546875,0.753173828125,0.20892333984375,0.0247,22.5625,-0.5,-59.25,2.02,-1.47,moving,7
10.0,1663686.536565105,26,3,3,3,0,468.0,1.52,2.82,14.15,-0.49,4.32,36.03,-29.25,38.25,635.25,-0.07257080078125,0.755859375,0.1964111328125,0.0247,22.5625,-0.5,-59.1875,2.02,-1.5,moving,7
10.01,1663686.536565105,26,3,3,3,0,296.0,0.38,1.85,12.43,-1.65,3.38,38.23,-34.0625,44.375,638.125,-0.05609130859375,0.75823974609375,0.1832275390625,0.0247,22.5625,-0.5,-59.125,2.03,-1.53,moving,7
10.02,1663686.598348064,26,3,3,3,0,191.0,-0.35,1.49,11.37,-2.41,3.02,39.66,-51.625,51.1875,641.875,-0.03839111328125,0.75946044921875,0.16986083984375,0.0247,22.5625,-0.5,-59.125,2.05,-1.53,moving,7
10.03,1663686.598348064,26,3,3,3,0,79.0,-0.32,1.37,10.25,-2.4,2.86,40.73,-78.9375,55.375,647.0625,-0.01959228515625,0.75885009765625,0.15625,0.0247,22.5625,-0.5,-59.125,2.08,-1.49,moving,7
10.04,1663686.604144695,26,3,3,3,0,93.0,-0.52,1.42,10.4,-2.63,2.83,40.74,-108.25,52.5625,653.9375,-0.0006103515625,0.7562255859375,0.1424560546875,0.0243,23.5625,-12.1875,-59.1875,2.1,-1.4,moving,7
10.05,1663686.604144695,26,3,3,3,0,-132.0,-1.23,1.73,8.16,-3.36,3.03,39.77,-125.4375,50.0,661.5625,0.01812744140625,0.7520751953125,0.12884521484375,0.0243,23.5625,-12.1875,-59.25,2.13,-1.29,moving,7
10.06,1663686.610708213,26,3,3,3,0,-495.0,-1.77,2.18,4.53,-3.93,3.34,38.47,-134.1875,45.625,669.5,0.03619384765625,0.7469482421875,0.11541748046875,0.0243,23.5625,-12.1875,-59.3125,2.15,-1.16,moving,7
10.07,1663686.610708213,26,3,3,3,0,-1084.0,-2.91,3.08,-1.33,-5.07,4.11,38.16,-134.5625,33.0625,677.1875,0.05328369140625,0.7413330078125,0.101318359375,0.0243,23.5625,-12.1875,-59.375,2.16,-1.02,moving,7
10.08,1663686.656859865,26,3,3,3,0,-1586.0,-2.53,6.48,-6.34,-4.68,7.42,36.39,-102.9375,16.8125,682.5625,0.06842041015625,0.73712158203125,0.08709716796875,0.0243,23.5625,-12.1875,-59.5,2.15,-0.94,moving,7
10.09,1663686.656859865,26,3,3,3,0,-3566.0,0.85,11.89,-26.15,-1.26,12.94,24.42,30.5625,-0.4375,679.5625,0.07708740234375,0.739990234375,0.0775146484375,0.0261,24.0,-25.0,-59.4375,2.12,-1.05,moving,7
10.1,1663686.662485963,26,3,3,3,0,-3954.0,-2.85,10.42,-30.03,-4.86,11.77,9.85,169.0,-66.875,668.375,0.0751953125,0.75054931640625,0.07080078125,0.0261,24.0,-25.0,-59.375,2.0,-1.35,moving,7
10.11,1663686.662485963,26,3,3,3,0,-3864.0,-10.46,7.58,-29.16,-12.22,9.35,17.2,228.0625,-127.8125,653.0,0.07147216796875,0.7647705078125,0.05792236328125,0.0261,24.0,-25.0,-59.25,1.76,-1.76,moving,7
10.12,1663686.668530071,26,3,3,3,0,-3173.0,-3.35,-7.39,-22.29,-4.89,-5.24,27.79,204.0625,-100.375,638.3125,0.0733642578125,0.77734375,0.0419921875,0.0261,24.0,-25.0,-59.0,1.53,-2.15,moving,7
10.13,1663686.668530071,26,3,3,3,0,-2978.0,2.33,-17.26,-20.34,0.94,-15.0,20.61,49.625,-54.0,634.25,0.0765380859375,0.78076171875,0.0306396484375,0.0261,24.0,-25.0,-58.9375,1.39,-2.26,moving,7
10.14,1663686.731931032,26,3,3,3,0,-2659.0,10.31,-16.85,-17.05,8.93,-15.03,-4.29,-263.0625,-19.0625,652.6875,0.074462890625,0.766357421875,0.0296630859375,0.0261,25.0,-34.5625,-59.5625,1.37,-1.82,moving,7
10.15,1663686.731931032,26,3,3,3,0,-1999.0,8.89,-22.53,-10.38,7.42,-21.27,-59.49,-278.6875,0.0,673.6875,0.054443359375,0.749267578125,0.05267333984375,0.0261,25.0,-34.5625,-60.0625,1.47,-1.26,moving,7
10.16,1663686.737913128,26,3,3,3,0,-1388.0,7.44,-5.83,-4.26,5.9,-4.77,-58.32,-62.875,-3.9375,679.375,0.03350830078125,0.74359130859375,0.075927734375,0.0261,25.0,-34.5625,-60.125,1.54,-1.06,moving,7
10.17,1663686.737913128,26,3,3,3,0,-1142.0,5.79,-3.83,-1.81,4.22,-2.63,-39.41,120.375,-13.75,672.0,0.017578125,0.748779296875,0.0914306640625,0.0261,25.0,-34.5625,-60.0,1.56,-1.19,moving,7
10.18,1663686.743040895,26,3,3,3,0,-906.0,4.26,-1.85,0.49,2.7,-0.36,-29.4,208.75,-30.625,658.375,0.00335693359375,0.75909423828125,0.1019287109375,0.0261,25.0,-34.5625,-59.75,1.55,-1.49,moving,7
10.19,1663686.743040895,26,3,3,3,0,-755.0,3.7,-1.82,1.94,2.17,0.05,-17.92,248.6875,-34.375,641.6875,-0.00738525390625,0.77178955078125,0.10748291015625,0.0242,23.75,-35.6875,-59.375,1.53,-1.87,moving,7
10.2,1663686.748213991,26,3,3,3,0,-626.0,2.43,1.36,3.17,0.92,3.55,-7.67,200.3125,-25.3125,628.0,-0.01361083984375,0.78216552734375,0.109130859375,0.0242,23.75,-35.6875,-58.9375,1.51,-2.19,moving,7
10.21,1663686.748213991,26,3,3,3,0,-626.0,2.43,1.36,3.17,0.92,3.55,-7.67,200.3125,-25.3125,628.0,-0.01361083984375,0.78216552734375,0.109130859375,0.0242,23.75,-35.6875,-58.9375,1.51,-2.19,moving,7
10.21,1663686.753421632,26,3,3,3,0,-394.0,1.55,2.45,5.46,0.06,4.77,-6.77,85.0,-17.5625,622.1875,-0.01788330078125,0.7862548828125,0.1109619140625,0.0242,23.75,-35.6875,-58.75,1.49,-2.32,moving,7
10.22,1663686.753421632,26,3,3,3,0,-205.0,0.83,2.09,7.35,-0.66,4.42,-13.54,14.125,-17.6875,621.1875,-0.02374267578125,0.7861328125,0.1158447265625,0.0242,23.75,-35.6875,-58.75,1.5,-2.32,moving,7
10.23,1663686.778541912,26,3,3,3,0,-116.0,0.15,1.61,8.25,-1.36,3.88,-20.95,-16.625,-19.0625,622.25,-0.03179931640625,0.7838134765625,0.12384033203125,0.0242,23.75,-35.6875,-58.8125,1.52,-2.26,moving,7
10.24,1663686.778541912,26,3,3,3,0,-49.0,-1.49,1.7,8.94,-3.04,3.86,-27.44,-33.9375,-23.625,624.375,-0.0421142578125,0.780029296875,0.1343994140625,0.0256,24.0,-22.5,-58.9375,1.55,-2.16,moving,7
10.25,1663686.790762697,26,3,3,3,0,-16.0,-2.2,1.37,9.29,-3.78,3.44,-32.66,-23.625,-30.6875,625.5,-0.0548095703125,0.776123046875,0.146728515625,0.0256,24.0,-22.5,-59.0625,1.57,-2.06,moving,7
10.26,1663686.790762697,26,3,3,3,0,42.0,-2.65,1.1,9.88,-4.24,3.11,-34.4,1.875,-36.9375,624.6875,-0.06878662109375,0.77313232421875,0.15924072265625,0.0256,24.0,-22.5,-59.125,1.59,-2.0,moving,7
10.27,1663686.806007448,26,3,3,3,0,218.0,-3.86,0.73,11.65,-5.45,2.72,-34.43,23.3125,-44.8125,622.3125,-0.08355712890625,0.77093505859375,0.17120361328125,0.0256,24.0,-22.5,-59.1875,1.59,-1.98,moving,7
10.28,1663686.806007448,26,3,3,3,0,274.0,-4.62,0.47,12.21,-6.19,2.48,-33.93,46.1875,-55.9375,618.3125,-0.0992431640625,0.7696533203125,0.18212890625,0.0256,24.0,-22.5,-59.125,1.57,-2.0,moving,7
10.29,1663686.837741782,26,3,3,3,0,343.0,-4.52,0.34,12.9,-6.05,2.4,-32.24,64.9375,-67.125,613.0625,-0.1153564453125,0.7691650390625,0.1915283203125,0.0245,25.1875,-16.1875,-59.125,1.53,-2.05,moving,7
10.3,1663686.837741782,26,3,3,3,0,403.0,-4.27,0.51,13.49,-5.75,2.65,-29.55,75.8125,-76.5,607.125,-0.13140869140625,0.76910400390625,0.1990966796875,0.0245,25.1875,-16.1875,-59.0625,1.47,-2.13,moving,7
10.31,1663686.851408286,26,3,3,3,0,347.0,-3.46,1.2,12.92,-4.88,3.44,-28.87,93.375,-79.625,599.9375,-0.147705078125,0.769775390625,0.2059326171875,0.0245,25.1875,-16.1875,-59.0,1.41,-2.24,moving,7
10.32,1663686.851408286,26,3,3,3,0,322.0,-2.6,0.71,12.63,-3.96,3.09,-31.01,108.125,-75.6875,591.25,-0.16461181640625,0.7706298828125,0.213623046875,0.0245,25.1875,-16.1875,-58.8125,1.36,-2.37,moving,7
10.33,1663686.866597169,26,3,3,3,0,321.0,-1.49,-0.03,12.6,-2.82,2.46,-32.96,107.25,-73.0,582.0625,-0.181884765625,0.77099609375,0.22222900390625,0.0245,25.1875,-16.1875,-58.625,1.33,-2.5,moving,7
10.34,1663686.866597169,26,3,3,3,0,360.0,-0.01,-0.4,12.96,-1.32,2.2,-33.08,97.3125,-65.5625,573.25,-0.1983642578125,0.77056884765625,0.23126220703125,0.0234,24.75,-7.25,-58.5,1.31,-2.61,moving,7
10.35,1663686.898182497,26,3,3,3,0,-45.0,3.41,0.23,8.87,2.09,2.95,-33.48,97.5,-55.3125,563.8125,-0.21429443359375,0.77001953125,0.2408447265625,0.0234,24.75,-7.25,-58.25,1.32,-2.72,moving,7
10.36,1663686.898182497,26,3,3,3,0,-587.0,5.06,2.68,3.4,3.71,5.55,-35.23,124.125,-48.5625,552.0,-0.23065185546875,0.77020263671875,0.25091552734375,0.0234,24.75,-7.25,-57.9375,1.35,-2.87,moving,7
10.37,1663686.911347536,26,3,3,3,0,-1399.0,6.19,4.69,-4.8,4.79,7.81,-37.09,189.6875,-45.3125,535.0,-0.2486572265625,0.77288818359375,0.26043701171875,0.0234,24.75,-7.25,-57.4375,1.39,-3.12,moving,7
10.38,1663686.911347536,26,3,3,3,0,-2111.0,4.34,4.72,-12.02,2.91,8.12,-27.2,200.375,-42.125,518.25,-0.2637939453125,0.77703857421875,0.26556396484375,0.0234,24.75,-7.25,-56.75,1.42,-3.39,moving,7
10.39,1663686.927114585,26,3,3,3,0,-3898.0,16.81,-0.84,-29.94,15.38,2.66,-8.32,77.75,-19.25,512.125,-0.2691650390625,0.77874755859375,0.26641845703125,0.0212,23.6875,3.1875,-56.5,1.42,-3.5,moving,7
10.4,1663686.927114585,26,3,3,3,0,-3462.0,16.97,-7.07,-25.5,15.58,-3.74,-2.62,-110.4375,-30.4375,520.125,-0.26934814453125,0.77276611328125,0.268798828125,0.0212,23.6875,3.1875,-56.9375,1.39,-3.32,moving,7
10.41,1663686.956960817,26,3,3,3,0,-3476.0,16.38,-20.42,-25.48,14.98,-17.58,5.15,-306.9375,15.875,541.5625,-0.25958251953125,0.760009765625,0.27447509765625,0.0212,23.6875,3.1875,-58.0,1.39,-2.84,moving,7
10.42,1663686.956960817,26,3,3,3,0,-3817.0,9.11,-26.32,-28.68,7.65,-24.3,6.08,-510.125,43.75,575.4375,-0.242431640625,0.73760986328125,0.28521728515625,0.0212,23.6875,3.1875,-59.25,1.45,-2.01,moving,7
10.43,1663686.971175539,26,3,3,3,0,-2687.0,1.98,-14.94,-17.28,0.47,-13.51,4.49,-355.4375,38.625,598.1875,-0.2296142578125,0.72137451171875,0.292724609375,0.0212,23.6875,3.1875,-59.875,1.51,-1.43,moving,7
10.44,1663686.971175539,26,3,3,3,0,-2642.0,-0.67,-6.71,-16.83,-2.17,-5.25,25.53,-11.5625,19.0625,601.625,-0.219970703125,0.72515869140625,0.28387451171875,0.021,24.0625,7.1875,-59.875,1.5,-1.45,moving,7
10.45,1663686.985623211,26,3,3,3,0,-2484.0,-1.68,-2.62,-15.29,-3.14,-0.89,29.32,132.25,5.3125,596.4375,-0.21343994140625,0.7364501953125,0.26995849609375,0.021,24.0625,7.1875,-59.625,1.46,-1.72,moving,7
10.46,1663686.985623211,26,3,3,3,0,-1786.0,-1.19,0.03,-8.37,-2.59,2.06,30.84,156.8125,0.625,589.625,-0.20721435546875,0.748779296875,0.254638671875,0.021,24.0625,7.1875,-59.3125,1.39,-2.03,moving,7
10.47,1663687.003056276,26,3,3,3,0,-1786.0,-1.19,0.03,-8.37,-2.59,2.06,30.84,156.8125,0.625,589.625,-0.20721435546875,0.748779296875,0.254638671875,0.021,24.0625,7.1875,-59.3125,1.39,-2.03,moving,7
10.47,1663687.003056276,26,3,3,3,0,-1494.0,-1.43,0.18,-5.49,-2.77,2.44,27.74,113.0625,5.25,585.0625,-0.20068359375,0.75830078125,0.24151611328125,0.021,24.0625,7.1875,-59.0,1.34,-2.26,moving,7
10.48,1663687.017540651,26,3,3,3,0,-1219.0,-1.36,-0.38,-2.77,-2.68,1.96,20.56,37.375,17.1875,584.4375,-0.19390869140625,0.7630615234375,0.23321533203125,0.021,24.0625,7.1875,-58.875,1.31,-2.35,moving,7
10.49,1663687.017540651,26,3,3,3,0,-1020.0,-0.98,-1.2,-0.78,-2.29,1.17,18.35,-0.25,21.4375,585.9375,-0.186767578125,0.7657470703125,0.22662353515625,0.0227,22.6875,1.0,-58.875,1.3,-2.37,moving,7
10.5,1663687.047128582,26,3,3,3,0,-530.0,1.07,-4.12,4.11,-0.23,-1.72,17.06,-2.5625,26.375,587.3125,-0.17962646484375,0.76812744140625,0.22088623046875,0.0227,22.6875,1.0,-58.8125,1.3,-2.39,moving,7
10.51,1663687.047128582,26,3,3,3,0,-381.0,1.56,-5.08,5.59,0.24,-2.67,13.63,-3.875,34.0,588.3125,-0.1729736328125,0.77008056640625,0.2169189453125,0.0227,22.6875,1.0,-58.8125,1.32,-2.41,moving,7
10.52,1663687.060817506,26,3,3,3,0,-228.0,2.16,-5.55,7.11,0.79,-3.13,10.05,-5.9375,40.4375,588.875,-0.1669921875,0.77154541015625,0.21478271484375,0.0227,22.6875,1.0,-58.75,1.36,-2.41,moving,7
10.53,1663687.060817506,26,3,3,3,0,-88.0,2.48,-4.86,8.5,1.06,-2.44,9.83,-5.75,48.1875,589.25,-0.1605224609375,0.7730712890625,0.213134765625,0.0227,22.6875,1.0,-58.6875,1.42,-2.42,moving,7
