timestamp,android_nano_timestamp,temperature,calib_mag,calib_accel,calib_gyro,calib_sys,acc_x,acc_y,acc_z,lacc_x,lacc_y,lacc_z,gyro_x,gyro_y,gyro_z,quat_w,quat_x,quat_y,quat_z,mag_x,mag_y,mag_z,gravity_x,gravity_y,gravity_z,label,person
4.91,27565.654469554,23,3,3,3,3,7.05,0.84,-0.14,-2.69,1.32,0.75,3.5,-20.4375,-7.375,0.4840087890625,-0.53936767578125,-0.50518798828125,-0.46868896484375,-28.375,-0.1875,29.5,9.75,-0.47,-0.9,moving,10
4.92,27565.67017683,23,3,3,3,3,7.15,1.13,-0.14,-2.59,1.6,0.8,0.0,-26.375,-6.375,0.48260498046875,-0.5401611328125,-0.50653076171875,-0.46771240234375,-28.375,0.5,29.75,9.74,-0.46,-0.94,moving,10
4.93,27565.67017683,23,3,3,3,3,7.52,1.4,-0.15,-2.22,1.86,0.85,-5.1875,-37.375,-5.9375,0.48046875,-0.5416259765625,-0.5081787109375,-0.4664306640625,-28.375,0.5,29.75,9.74,-0.45,-1.01,moving,10
4.94,27565.683914216,23,3,3,3,3,8.25,1.6,-0.29,-1.48,2.04,0.79,-12.9375,-46.8125,-5.8125,0.4775390625,-0.5438232421875,-0.5098876953125,-0.46502685546875,-28.375,0.5,29.75,9.73,-0.44,-1.09,moving,10
4.95,27565.683914216,23,3,3,3,3,10.27,1.47,-0.77,0.54,1.9,0.39,-24.625,-46.1875,-3.1875,0.47418212890625,-0.54656982421875,-0.51092529296875,-0.46405029296875,-28.375,0.5,29.75,9.72,-0.43,-1.17,moving,10
4.95,27565.700891348,23,3,3,3,3,10.27,1.47,-0.77,0.54,1.9,0.39,-24.625,-46.1875,-3.1875,0.47418212890625,-0.54656982421875,-0.51092529296875,-0.46405029296875,-28.375,0.5,29.75,9.72,-0.43,-1.17,moving,10
4.96,27565.700891348,23,3,3,3,3,11.3,1.06,-0.91,1.58,1.48,0.32,-39.25,-33.125,1.0,0.47088623046875,-0.549560546875,-0.51068115234375,-0.46417236328125,-28.375,0.5,29.75,9.71,-0.42,-1.23,moving,10
4.96,27565.716273347,23,3,3,3,3,12.22,0.47,-0.83,2.51,0.89,0.42,-50.25,-17.0,4.4375,0.4678955078125,-0.55255126953125,-0.509033203125,-0.4654541015625,-27.5625,0.5,30.5625,9.71,-0.42,-1.26,moving,10
4.97,27565.716273347,23,3,3,3,3,13.55,-0.66,-0.41,3.83,-0.24,0.86,-49.8125,-8.5625,5.0625,0.46527099609375,-0.55511474609375,-0.50714111328125,-0.46710205078125,-27.5625,0.5,30.5625,9.71,-0.42,-1.28,moving,10
4.98,27565.745060334,23,3,3,3,3,13.73,-0.9,-0.32,4.02,-0.48,0.98,-35.3125,-11.0,2.5625,0.46319580078125,-0.55712890625,-0.5059814453125,-0.468017578125,-27.5625,0.5,30.5625,9.71,-0.41,-1.3,moving,10
5.0,27565.745060334,23,3,3,3,3,13.65,-0.88,-0.43,3.95,-0.47,0.9,-12.375,-23.125,-3.0625,0.46148681640625,-0.55841064453125,-0.506591796875,-0.46759033203125,-27.5625,0.5,30.5625,9.7,-0.4,-1.34,moving,10
5.01,27565.764367219,23,3,3,3,3,13.42,-0.6,-0.85,3.72,-0.2,0.52,8.4375,-24.5625,-7.0,0.46051025390625,-0.5587158203125,-0.50823974609375,-0.46630859375,-27.5625,0.5,30.5625,9.7,-0.39,-1.38,moving,10
5.02,27565.764367219,23,3,3,3,3,11.48,-0.57,-0.41,1.78,-0.18,0.99,23.0,-15.6875,-8.5625,0.46038818359375,-0.5582275390625,-0.510009765625,-0.46502685546875,-26.875,-0.5625,31.0,9.69,-0.38,-1.4,moving,10
5.03,27565.774234162,23,3,3,3,3,11.21,-0.34,-0.14,1.52,0.03,1.3,34.6875,-23.6875,-12.5,0.4605712890625,-0.5572509765625,-0.512939453125,-0.46282958984375,-26.875,-0.5625,31.0,9.69,-0.37,-1.44,moving,10
5.04,27565.774234162,23,3,3,3,3,10.52,0.04,0.45,0.83,0.4,1.94,45.1875,-26.8125,-12.875,0.4610595703125,-0.555908203125,-0.5164794921875,-0.46002197265625,-26.875,-0.5625,31.0,9.68,-0.36,-1.48,moving,10
5.04,27565.804248688,23,3,3,3,3,11.1,0.87,2.54,1.43,1.23,4.07,45.0,-32.0625,-11.375,0.4613037109375,-0.55487060546875,-0.5201416015625,-0.4569091796875,-26.875,-0.5625,31.0,9.67,-0.35,-1.53,moving,10
5.05,27565.804248688,23,3,3,3,3,10.98,1.31,2.43,1.31,1.66,4.0,21.9375,-23.1875,-8.125,0.46099853515625,-0.55450439453125,-0.52227783203125,-0.45513916015625,-26.875,-0.5625,31.0,9.67,-0.35,-1.57,moving,10
5.07,27565.819983552,23,3,3,3,3,10.3,0.72,1.4,0.63,1.06,2.97,-14.0,2.1875,-0.9375,0.46026611328125,-0.55511474609375,-0.52154541015625,-0.45611572265625,-26.5,-1.0,32.0625,9.67,-0.34,-1.57,moving,10
5.08,27565.819983552,23,3,3,3,3,9.62,0.29,0.54,-0.05,0.63,2.09,-31.875,11.4375,2.125,0.4593505859375,-0.5560302734375,-0.5196533203125,-0.45806884765625,-26.5,-1.0,32.0625,9.67,-0.34,-1.55,moving,10
5.09,27565.834887564,23,3,3,3,3,9.19,0.42,0.13,-0.48,0.76,1.68,-29.4375,2.375,2.75,0.4581298828125,-0.55718994140625,-0.51824951171875,-0.45941162109375,-26.5,-1.0,32.0625,9.67,-0.33,-1.55,moving,10
5.1,27565.834887564,23,3,3,3,3,9.0,0.54,0.34,-0.67,0.87,1.9,-23.625,-3.1875,0.8125,0.4569091796875,-0.55828857421875,-0.51739501953125,-0.4603271484375,-26.5,-1.0,32.0625,9.67,-0.33,-1.55,moving,10
5.11,27565.86459252,23,3,3,3,3,8.62,0.55,0.46,-1.05,0.88,2.0,-23.6875,6.75,-0.5625,0.4560546875,-0.55889892578125,-0.51617431640625,-0.46173095703125,-26.5,-1.0,32.0625,9.67,-0.32,-1.54,moving,10
5.12,27565.86459252,23,3,3,3,3,8.25,0.45,0.52,-1.43,0.77,2.03,-30.1875,18.6875,-1.0,0.45465087890625,-0.56011962890625,-0.5133056640625,-0.46484375,-25.75,-1.25,31.6875,9.68,-0.31,-1.51,moving,10
5.12,27565.8800902,23,3,3,3,3,7.82,0.15,0.44,-1.86,0.46,1.92,-36.8125,22.9375,-0.25,0.453857421875,-0.56060791015625,-0.51092529296875,-0.4676513671875,-25.75,-1.25,31.6875,9.68,-0.3,-1.47,moving,10
5.13,27565.8800902,23,3,3,3,3,7.8,0.13,0.29,-1.88,0.43,1.73,-39.125,19.5,0.5625,0.452880859375,-0.5614013671875,-0.50848388671875,-0.4703369140625,-25.75,-1.25,31.6875,9.69,-0.29,-1.44,moving,10
5.14,27565.914896394,23,3,3,3,3,7.86,0.05,0.17,-1.82,0.34,1.6,-35.375,9.75,1.375,0.45166015625,-0.5623779296875,-0.506591796875,-0.47235107421875,-25.75,-1.25,31.6875,9.69,-0.28,-1.42,moving,10
5.16,27565.914896394,23,3,3,3,3,8.35,0.02,-0.02,-1.34,0.3,1.4,-29.375,0.0,1.5,0.45025634765625,-0.5635986328125,-0.5052490234375,-0.4736328125,-25.75,-1.25,31.6875,9.69,-0.28,-1.43,moving,10
5.17,27565.923817048,23,3,3,3,3,8.58,0.05,-0.01,-1.11,0.33,1.42,-22.9375,-3.3125,1.5625,0.4483642578125,-0.5654296875,-0.50347900390625,-0.47509765625,-25.375,-2.0625,31.6875,9.69,-0.28,-1.43,moving,10
5.18,27565.923817048,23,3,3,3,3,8.86,0.17,0.02,-0.82,0.45,1.46,-18.375,-1.0,1.1875,0.447509765625,-0.56622314453125,-0.502685546875,-0.475830078125,-25.375,-2.0625,31.6875,9.69,-0.27,-1.43,moving,10
5.19,27565.93875939,23,3,3,3,3,9.18,0.27,0.17,-0.51,0.55,1.6,-15.375,2.3125,1.25,0.4468994140625,-0.5667724609375,-0.50189208984375,-0.4765625,-25.375,-2.0625,31.6875,9.69,-0.27,-1.43,moving,10
5.2,27565.93875939,23,3,3,3,3,9.62,0.65,0.85,-0.06,0.92,2.28,-14.625,2.8125,1.0625,0.4464111328125,-0.5672607421875,-0.5010986328125,-0.47735595703125,-25.375,-2.0625,31.6875,9.69,-0.27,-1.42,moving,10
5.21,27565.969207022,23,3,3,3,3,9.85,0.69,1.16,0.15,0.96,2.58,-15.6875,2.5625,1.0625,0.44580078125,-0.5677490234375,-0.50030517578125,-0.4781494140625,-25.375,-2.0625,31.6875,9.69,-0.27,-1.42,moving,10
5.22,27565.969207022,23,3,3,3,3,10.13,0.58,1.1,0.43,0.84,2.52,-20.375,1.9375,0.9375,0.44488525390625,-0.5684814453125,-0.499267578125,-0.4791259765625,-27.1875,-1.6875,31.6875,9.69,-0.26,-1.42,moving,10
5.22,27565.975603099,23,3,3,3,3,10.13,0.58,1.1,0.43,0.84,2.52,-20.375,1.9375,0.9375,0.44488525390625,-0.5684814453125,-0.499267578125,-0.4791259765625,-27.1875,-1.6875,31.6875,9.69,-0.26,-1.42,moving,10
5.23,27565.975603099,23,3,3,3,3,10.38,0.37,0.9,0.68,0.63,2.32,-23.25,-2.1875,1.625,0.4437255859375,-0.56951904296875,-0.498291015625,-0.48004150390625,-27.1875,-1.6875,31.6875,9.69,-0.26,-1.42,moving,10
5.24,27566.003123282,23,3,3,3,3,10.72,0.0,0.2,1.02,0.25,1.64,-20.375,-6.75,1.5625,0.4425048828125,-0.57061767578125,-0.49761962890625,-0.48052978515625,-27.1875,-1.6875,31.6875,9.69,-0.26,-1.43,moving,10
5.25,27566.003123282,23,3,3,3,3,10.93,-0.23,-0.01,1.23,0.03,1.43,-15.6875,-6.3125,2.375,0.44158935546875,-0.57159423828125,-0.4970703125,-0.4808349609375,-27.1875,-1.6875,31.6875,9.69,-0.26,-1.44,moving,10
5.26,27566.013287548,23,3,3,3,3,11.17,-0.36,-0.09,1.48,-0.1,1.36,-13.3125,-2.9375,4.25,0.44097900390625,-0.5723876953125,-0.49639892578125,-0.48114013671875,-27.1875,-1.6875,31.6875,9.69,-0.26,-1.45,moving,10
5.27,27566.013287548,23,3,3,3,3,11.28,-0.42,0.35,1.59,-0.15,1.8,-12.0,4.0625,6.9375,0.4407958984375,-0.57305908203125,-0.4952392578125,-0.481689453125,-25.75,-2.5,30.5625,9.69,-0.27,-1.44,moving,10
5.28,27566.028736034,23,3,3,3,3,11.1,-0.38,0.57,1.41,-0.09,1.99,-12.3125,13.75,9.375,0.44122314453125,-0.57330322265625,-0.49371337890625,-0.48260498046875,-25.75,-2.5,30.5625,9.69,-0.28,-1.42,moving,10
5.29,27566.028736034,23,3,3,3,3,10.94,-0.43,0.62,1.24,-0.12,2.01,-13.875,20.1875,12.1875,0.44189453125,-0.573486328125,-0.49169921875,-0.4837646484375,-25.75,-2.5,30.5625,9.7,-0.3,-1.38,moving,10
5.29,27566.059481273,23,3,3,3,3,10.86,-0.42,0.56,1.15,-0.1,1.91,-12.625,21.5625,14.625,0.44281005859375,-0.57366943359375,-0.4896240234375,-0.48486328125,-25.75,-2.5,30.5625,9.7,-0.32,-1.34,moving,10
5.31,27566.059481273,23,3,3,3,3,10.98,-0.49,0.28,1.27,-0.13,1.59,-7.5,21.125,17.0625,0.444091796875,-0.57373046875,-0.48760986328125,-0.48565673828125,-25.75,-2.5,30.5625,9.71,-0.35,-1.31,moving,10
5.32,27566.074730459,23,3,3,3,3,11.13,-0.37,0.4,1.41,0.01,1.68,1.6875,20.125,19.1875,0.4449462890625,-0.5745849609375,-0.4847412109375,-0.4866943359375,-26.875,-3.875,30.1875,9.71,-0.38,-1.27,moving,10
5.33,27566.074730459,23,3,3,3,3,11.27,-0.23,0.65,1.55,0.18,1.84,10.0625,20.125,20.875,0.44842529296875,-0.57275390625,-0.48236083984375,-0.488037109375,-26.875,-3.875,30.1875,9.72,-0.42,-1.19,moving,10
5.34,27566.08824523,23,3,3,3,3,11.55,-0.07,1.11,1.83,0.39,2.26,12.6875,23.3125,22.125,0.45098876953125,-0.5721435546875,-0.4808349609375,-0.48785400390625,-26.875,-3.875,30.1875,9.72,-0.46,-1.14,moving,10
5.35,27566.08824523,23,3,3,3,3,11.54,-0.01,1.17,1.81,0.49,2.27,11.8125,27.1875,23.875,0.45379638671875,-0.571533203125,-0.47906494140625,-0.48785400390625,-26.875,-3.875,30.1875,9.73,-0.5,-1.1,moving,10
5.36,27566.125479808,23,3,3,3,3,11.56,0.14,1.16,1.82,0.68,2.21,11.0625,28.125,25.0,0.45660400390625,-0.57086181640625,-0.4771728515625,-0.48779296875,-26.875,-3.875,30.1875,9.73,-0.54,-1.05,moving,10
5.37,27566.125479808,23,3,3,3,3,11.68,0.27,1.01,1.95,0.86,2.01,10.625,26.75,25.0,0.45928955078125,-0.57037353515625,-0.4752197265625,-0.48779296875,-26.1875,-2.75,31.0,9.73,-0.59,-1.0,moving,10
5.37,27566.136106436,23,3,3,3,3,12.01,0.46,0.55,2.27,1.09,1.51,11.125,25.5,24.3125,0.46197509765625,-0.56976318359375,-0.47344970703125,-0.48760986328125,-26.1875,-2.75,31.0,9.73,-0.63,-0.95,moving,10
5.39,27566.136106436,23,3,3,3,3,12.17,0.51,0.38,2.43,1.19,1.29,12.5625,24.5,23.125,0.464599609375,-0.56915283203125,-0.4718017578125,-0.4874267578125,-26.1875,-2.75,31.0,9.74,-0.67,-0.91,moving,10
5.4,27566.165125072,23,3,3,3,3,12.26,0.49,0.28,2.52,1.21,1.15,13.5625,24.4375,22.25,0.46728515625,-0.56842041015625,-0.47027587890625,-0.48724365234375,-26.1875,-2.75,31.0,9.74,-0.71,-0.86,moving,10
5.41,27566.165125072,23,3,3,3,3,12.2,0.41,0.17,2.46,1.17,0.99,12.1875,26.375,21.9375,0.46990966796875,-0.56768798828125,-0.4686279296875,-0.4871826171875,-26.1875,-2.75,31.0,9.74,-0.75,-0.82,moving,10
5.42,27566.170764436,23,3,3,3,3,11.46,0.03,-0.11,1.71,0.82,0.64,7.875,32.9375,22.1875,0.47259521484375,-0.56683349609375,-0.4664306640625,-0.48760986328125,-27.5625,-1.6875,29.75,9.74,-0.79,-0.76,moving,10
5.43,27566.170764436,23,3,3,3,3,10.9,-0.21,-0.33,1.15,0.61,0.35,0.5,42.125,22.0625,0.47528076171875,-0.56585693359375,-0.463623046875,-0.48883056640625,-27.5625,-1.6875,29.75,9.74,-0.83,-0.68,moving,10
5.44,27566.19383483,23,3,3,3,3,10.55,-0.41,-0.81,0.8,0.45,-0.21,-6.125,50.75,22.375,0.47802734375,-0.5648193359375,-0.4600830078125,-0.49072265625,-27.5625,-1.6875,29.75,9.74,-0.86,-0.6,moving,10
5.45,27566.19383483,23,3,3,3,3,10.28,-0.92,-1.9,0.53,-0.02,-1.38,-8.1875,47.8125,22.4375,0.48052978515625,-0.56396484375,-0.45660400390625,-0.49249267578125,-27.5625,-1.6875,29.75,9.75,-0.9,-0.52,moving,10
5.46,27566.208401561,23,3,3,3,3,10.07,-1.09,-2.26,0.32,-0.15,-1.8,-4.9375,33.0,22.125,0.4825439453125,-0.5635986328125,-0.45391845703125,-0.493408203125,-27.5625,-1.6875,29.75,9.75,-0.94,-0.46,moving,10
5.47,27566.208401561,23,3,3,3,3,9.57,-1.31,-2.39,-0.17,-0.34,-1.97,2.9375,21.5625,20.9375,0.4844970703125,-0.5633544921875,-0.45208740234375,-0.49346923828125,-28.375,-0.5625,29.5,9.74,-0.97,-0.42,moving,10
5.47,27566.224272777,23,3,3,3,3,9.57,-1.31,-2.39,-0.17,-0.34,-1.97,2.9375,21.5625,20.9375,0.4844970703125,-0.5633544921875,-0.45208740234375,-0.49346923828125,-28.375,-0.5625,29.5,9.74,-0.97,-0.42,moving,10
5.48,27566.224272777,23,3,3,3,3,8.92,-1.54,-2.37,-0.82,-0.53,-1.98,9.75,21.5625,19.0,0.48663330078125,-0.56268310546875,-0.45062255859375,-0.493408203125,-28.375,-0.5625,29.5,9.74,-1.0,-0.38,moving,10
5.49,27566.239831696,23,3,3,3,3,8.07,-2.27,-2.29,-1.67,-1.23,-1.96,13.0625,28.1875,16.6875,0.4891357421875,-0.5615234375,-0.44915771484375,-0.49359130859375,-28.375,-0.5625,29.5,9.74,-1.03,-0.33,moving,10
5.5,27566.239831696,23,3,3,3,3,7.95,-2.54,-2.39,-1.78,-1.47,-2.11,12.8125,29.125,17.8125,0.49169921875,-0.5604248046875,-0.44757080078125,-0.4937744140625,-28.375,-0.5625,29.5,9.74,-1.06,-0.28,moving,10
5.51,27566.26830716,23,3,3,3,3,8.15,-2.84,-2.62,-1.58,-1.73,-2.37,13.0625,17.75,20.5,0.49395751953125,-0.55987548828125,-0.4464111328125,-0.4932861328125,-28.375,-0.5625,29.5,9.74,-1.1,-0.24,moving,10
5.52,27566.26830716,23,3,3,3,3,9.12,-3.35,-3.32,-0.61,-2.21,-3.08,14.5625,-1.3125,19.875,0.49542236328125,-0.56005859375,-0.446044921875,-0.49188232421875,-29.75,-0.5625,28.6875,9.73,-1.13,-0.24,moving,10
5.53,27566.286286083,23,3,3,3,3,9.78,-3.12,-3.62,0.05,-1.95,-3.33,20.9375,-29.1875,15.0,0.4959716796875,-0.56097412109375,-0.44744873046875,-0.489013671875,-29.75,-0.5625,28.6875,9.73,-1.16,-0.29,moving,10
5.54,27566.286286083,23,3,3,3,3,10.16,-2.91,-3.52,0.43,-1.73,-3.15,28.5625,-47.1875,9.5625,0.4959716796875,-0.56207275390625,-0.45025634765625,-0.48516845703125,-29.75,-0.5625,28.6875,9.72,-1.18,-0.36,moving,10
5.55,27566.301924633,23,3,3,3,3,10.19,-2.79,-2.98,0.47,-1.59,-2.53,29.0625,-53.4375,8.25,0.49560546875,-0.56341552734375,-0.453369140625,-0.48101806640625,-29.75,-0.5625,28.6875,9.72,-1.19,-0.45,moving,10
5.56,27566.301924633,23,3,3,3,3,10.06,-2.2,-1.99,0.34,-0.98,-1.47,22.75,-47.5,11.625,0.495361328125,-0.56488037109375,-0.45574951171875,-0.477294921875,-29.75,-0.5625,28.6875,9.71,-1.22,-0.52,moving,10
5.57,27566.336110383,23,3,3,3,3,10.03,-2.05,-1.35,0.32,-0.8,-0.75,10.0,-45.5,18.25,0.494873046875,-0.56695556640625,-0.45733642578125,-0.47381591796875,-29.0625,0.75,28.25,9.7,-1.25,-0.59,moving,10
5.58,27566.336110383,23,3,3,3,3,10.01,-1.9,-0.67,0.32,-0.61,0.01,-2.0625,-51.4375,20.625,0.49359130859375,-0.57000732421875,-0.45843505859375,-0.470458984375,-29.0625,0.75,28.25,9.69,-1.28,-0.68,moving,10
5.59,27566.345781973,23,3,3,3,3,10.04,-1.71,-0.09,0.36,-0.38,0.68,-10.375,-54.3125,21.9375,0.4918212890625,-0.57354736328125,-0.459228515625,-0.46722412109375,-29.0625,0.75,28.25,9.68,-1.32,-0.78,moving,10
5.6,27566.345781973,23,3,3,3,3,10.0,-1.12,0.13,0.32,0.22,0.99,-18.75,-47.1875,21.5,0.4898681640625,-0.57708740234375,-0.45941162109375,-0.4647216796875,-29.0625,0.75,28.25,9.67,-1.35,-0.86,moving,10
5.61,27566.358074087,23,3,3,3,3,9.69,-1.0,-0.16,0.02,0.38,0.77,-26.6875,-37.4375,20.625,0.48785400390625,-0.58056640625,-0.4588623046875,-0.4630126953125,-29.0625,0.75,28.25,9.66,-1.38,-0.93,moving,10
5.62,27566.358074087,23,3,3,3,3,9.93,-0.97,-0.31,0.28,0.43,0.68,-34.0625,-31.0625,20.5625,0.48583984375,-0.58392333984375,-0.4578857421875,-0.4617919921875,-28.6875,2.0,29.375,9.65,-1.41,-0.99,moving,10
5.63,27566.389272696,23,3,3,3,3,9.05,-1.21,-0.46,-0.59,0.21,0.56,-22.875,-17.875,9.6875,0.484375,-0.58599853515625,-0.45721435546875,-0.46142578125,-28.6875,2.0,29.375,9.64,-1.42,-1.02,moving,10
5.64,27566.389272696,23,3,3,3,3,8.47,-0.96,-0.44,-1.17,0.46,0.57,8.125,2.0625,-1.6875,0.48480224609375,-0.58551025390625,-0.45758056640625,-0.4613037109375,-28.6875,2.0,29.375,9.64,-1.42,-1.02,moving,10
5.65,27566.403457429,23,3,3,3,3,8.16,-0.84,-0.27,-1.48,0.57,0.72,33.25,8.6875,-9.4375,0.48651123046875,-0.5833740234375,-0.458984375,-0.4608154296875,-28.6875,2.0,29.375,9.65,-1.41,-0.99,moving,10
5.66,27566.403457429,23,3,3,3,3,8.14,-0.88,-0.11,-1.51,0.51,0.86,45.6875,5.5625,-14.3125,0.48846435546875,-0.58056640625,-0.4613037109375,-0.45989990234375,-28.6875,2.0,29.375,9.65,-1.4,-0.97,moving,10
5.67,27566.420391511,23,3,3,3,3,7.96,-1.2,0.03,-1.69,0.18,0.99,48.3125,3.1875,-16.0,0.49029541015625,-0.577880859375,-0.4637451171875,-0.45892333984375,-28.0,0.75,30.5625,9.66,-1.38,-0.96,moving,10
5.68,27566.420391511,23,3,3,3,3,7.75,-1.32,0.03,-1.9,0.03,0.98,40.8125,1.875,-16.25,0.4918212890625,-0.57537841796875,-0.46612548828125,-0.45806884765625,-28.0,0.75,30.5625,9.66,-1.36,-0.94,moving,10
5.69,27566.449912426,23,3,3,3,3,7.57,-1.44,-0.05,-2.09,-0.1,0.88,30.75,1.375,-15.625,0.4927978515625,-0.5733642578125,-0.46807861328125,-0.45758056640625,-28.0,0.75,30.5625,9.66,-1.34,-0.93,moving,10
5.7,27566.449912426,23,3,3,3,3,7.58,-1.52,-0.27,-2.08,-0.2,0.65,22.1875,0.3125,-12.0,0.493408203125,-0.5718994140625,-0.46954345703125,-0.45721435546875,-28.0,0.75,30.5625,9.67,-1.32,-0.93,moving,10
5.71,27566.46565327,23,3,3,3,3,7.61,-1.86,-0.64,-2.06,-0.55,0.29,21.0625,-3.6875,-11.375,0.493896484375,-0.57061767578125,-0.4710693359375,-0.4566650390625,-28.0,0.75,30.5625,9.67,-1.3,-0.93,moving,10
5.72,27566.46565327,23,3,3,3,3,7.58,-1.71,-0.8,-2.09,-0.41,0.13,25.9375,-7.6875,-11.375,0.49444580078125,-0.5693359375,-0.4730224609375,-0.4556884765625,-27.1875,2.0,30.5625,9.67,-1.29,-0.93,moving,10
5.73,27566.47926765,23,3,3,3,3,7.68,-1.45,-0.94,-1.99,-0.17,0.0,26.9375,-12.0625,-11.1875,0.49481201171875,-0.56817626953125,-0.47515869140625,-0.4544677734375,-27.1875,2.0,30.5625,9.67,-1.27,-0.95,moving,10
5.74,27566.47926765,23,3,3,3,3,7.85,-1.29,-1.2,-1.81,-0.02,-0.22,21.75,-18.8125,-10.0,0.4947509765625,-0.56756591796875,-0.47735595703125,-0.45306396484375,-27.1875,2.0,30.5625,9.67,-1.26,-0.97,moving,10
5.75,27566.493740185,23,3,3,3,3,7.85,-1.46,-1.15,-1.81,-0.2,-0.13,14.5625,-23.6875,-7.875,0.49420166015625,-0.5675048828125,-0.47930908203125,-0.45159912109375,-27.1875,2.0,30.5625,9.67,-1.25,-1.01,moving,10
5.76,27566.493740185,23,3,3,3,3,7.82,-1.56,-1.0,-1.84,-0.32,0.04,12.875,-21.375,-7.25,0.49365234375,-0.5675048828125,-0.4810791015625,-0.45037841796875,-27.1875,2.0,30.5625,9.67,-1.24,-1.04,moving,10
5.77,27566.524727937,23,3,3,3,3,7.79,-1.48,-0.7,-1.87,-0.24,0.36,19.5625,-15.3125,-8.625,0.49365234375,-0.56683349609375,-0.48297119140625,-0.44915771484375,-26.875,2.25,29.75,9.66,-1.23,-1.07,moving,10
5.77,27566.524727937,23,3,3,3,3,7.79,-1.48,-0.7,-1.87,-0.24,0.36,19.5625,-15.3125,-8.625,0.49365234375,-0.56683349609375,-0.48297119140625,-0.44915771484375,-26.875,2.25,29.75,9.66,-1.23,-1.07,moving,10
5.78,27566.533654288,23,3,3,3,3,8.2,-1.3,0.23,-1.46,-0.08,1.32,30.9375,-11.9375,-11.5,0.4942626953125,-0.56549072265625,-0.4852294921875,-0.44775390625,-26.875,2.25,29.75,9.66,-1.22,-1.08,moving,10
5.79,27566.533654288,23,3,3,3,3,8.6,-1.32,0.81,-1.06,-0.11,1.91,38.3125,-15.1875,-12.9375,0.4949951171875,-0.56390380859375,-0.488037109375,-0.4459228515625,-26.875,2.25,29.75,9.66,-1.2,-1.1,moving,10
5.8,27566.554530346,23,3,3,3,3,8.95,-1.24,1.24,-0.7,-0.05,2.36,40.3125,-17.125,-12.875,0.4957275390625,-0.562255859375,-0.490966796875,-0.4439697265625,-26.875,2.25,29.75,9.66,-1.19,-1.12,moving,10
5.81,27566.554530346,23,3,3,3,3,8.99,-1.18,1.2,-0.67,0.0,2.33,37.25,-10.3125,-11.3125,0.4967041015625,-0.560546875,-0.49334716796875,-0.44232177734375,-26.875,2.25,29.75,9.66,-1.18,-1.12,moving,10
5.82,27566.570081412,23,3,3,3,3,8.84,-1.2,0.98,-0.82,-0.02,2.11,29.25,-4.1875,-9.1875,0.49761962890625,-0.55902099609375,-0.4951171875,-0.4412841796875,-26.875,2.25,30.5625,9.67,-1.17,-1.13,moving,10
5.83,27566.570081412,23,3,3,3,3,8.77,-1.29,0.63,-0.89,-0.12,1.77,21.5625,-6.5625,-7.1875,0.49810791015625,-0.55804443359375,-0.49658203125,-0.44036865234375,-26.875,2.25,30.5625,9.67,-1.16,-1.13,moving,10
5.84,27566.582952506,23,3,3,3,3,8.78,-1.24,0.22,-0.88,-0.08,1.38,21.8125,-15.0,-7.375,0.49822998046875,-0.55731201171875,-0.4984130859375,-0.43902587890625,-26.875,2.25,30.5625,9.66,-1.15,-1.15,moving,10
5.85,27566.582952506,23,3,3,3,3,8.95,-0.88,-0.38,-0.71,0.25,0.8,29.5,-26.125,-9.6875,0.49822998046875,-0.55657958984375,-0.5010986328125,-0.4368896484375,-26.875,2.25,30.5625,9.66,-1.14,-1.19,moving,10
5.86,27566.614039582,23,3,3,3,3,9.31,-0.86,-0.44,-0.34,0.26,0.79,36.8125,-34.1875,-12.25,0.498046875,-0.55572509765625,-0.50457763671875,-0.4342041015625,-26.875,2.25,30.5625,9.66,-1.13,-1.24,moving,10
5.87,27566.614039582,23,3,3,3,3,9.59,-0.88,-0.37,-0.06,0.22,0.91,38.6875,-30.5625,-15.125,0.4979248046875,-0.5545654296875,-0.50799560546875,-0.4317626953125,-26.1875,2.6875,31.6875,9.65,-1.11,-1.28,moving,10
5.88,27566.629592195,23,3,3,3,3,9.9,-0.86,-0.19,0.24,0.22,1.11,35.0625,-16.25,-16.8125,0.498291015625,-0.55291748046875,-0.5108642578125,-0.43011474609375,-26.1875,2.6875,31.6875,9.65,-1.09,-1.3,moving,10
5.89,27566.629592195,23,3,3,3,3,10.86,-0.53,0.15,1.2,0.53,1.46,28.6875,-2.8125,-16.6875,0.49896240234375,-0.551025390625,-0.5128173828125,-0.429443359375,-26.1875,2.6875,31.6875,9.65,-1.07,-1.3,moving,10
5.9,27566.6590583,23,3,3,3,3,11.32,-0.26,0.23,1.66,0.78,1.53,20.5625,2.625,-15.625,0.49951171875,-0.54931640625,-0.51422119140625,-0.42938232421875,-26.1875,2.6875,31.6875,9.66,-1.05,-1.29,moving,10
5.91,27566.6590583,23,3,3,3,3,11.37,-0.01,0.18,1.7,1.01,1.47,10.6875,4.375,-16.125,0.4996337890625,-0.54791259765625,-0.51519775390625,-0.4298095703125,-26.1875,2.6875,31.6875,9.66,-1.02,-1.28,moving,10
5.92,27566.675085115,23,3,3,3,3,10.58,-0.72,-0.14,0.91,0.26,1.12,-3.0625,8.0,-19.3125,0.4989013671875,-0.547119140625,-0.515380859375,-0.431396484375,-26.1875,3.0,31.0,9.67,-0.99,-1.27,moving,10
5.93,27566.675085115,23,3,3,3,3,10.45,-1.13,-0.39,0.77,-0.18,0.85,-15.0625,16.25,-20.0625,0.4981689453125,-0.54620361328125,-0.51507568359375,-0.43377685546875,-26.1875,3.0,31.0,9.67,-0.95,-1.24,moving,10
5.94,27566.689031892,23,3,3,3,3,10.81,-1.29,-0.6,1.12,-0.37,0.6,-22.875,25.5,-18.0625,0.49755859375,-0.54541015625,-0.513916015625,-0.43682861328125,-26.1875,3.0,31.0,9.68,-0.91,-1.2,moving,10
5.95,27566.689031892,23,3,3,3,3,11.32,-1.82,-0.2,1.62,-0.94,0.95,-33.875,30.6875,-16.0,0.49676513671875,-0.54498291015625,-0.51202392578125,-0.44049072265625,-26.1875,3.0,31.0,9.69,-0.88,-1.16,moving,10
5.96,27566.720589794,23,3,3,3,3,12.45,-2.33,0.32,2.74,-1.47,1.42,-45.25,40.625,-11.0625,0.49603271484375,-0.54486083984375,-0.509033203125,-0.4449462890625,-26.1875,3.0,31.0,9.7,-0.85,-1.09,moving,10
5.97,27566.720589794,23,3,3,3,3,12.93,-2.42,0.47,3.21,-1.59,1.5,-55.125,48.0625,-8.5625,0.49517822265625,-0.54498291015625,-0.50518798828125,-0.4500732421875,-25.75,3.75,31.25,9.71,-0.83,-1.02,moving,10
5.98,27566.736186107,23,3,3,3,3,13.29,-2.2,0.31,3.56,-1.39,1.26,-54.9375,46.625,-6.0625,0.494384765625,-0.54522705078125,-0.50128173828125,-0.4549560546875,-25.75,3.75,31.25,9.72,-0.81,-0.95,moving,10
5.99,27566.736186107,23,3,3,3,3,13.42,-1.85,0.0,3.69,-1.05,0.92,-43.6875,27.125,-7.5625,0.49322509765625,-0.545654296875,-0.49871826171875,-0.45849609375,-25.75,3.75,31.25,9.73,-0.79,-0.91,moving,10
6.0,27566.754367056,23,3,3,3,3,13.08,-0.36,-0.79,3.34,0.4,0.11,-17.875,3.0,-13.625,0.49200439453125,-0.54571533203125,-0.49853515625,-0.46002197265625,-25.75,3.75,31.25,9.73,-0.76,-0.9,moving,10
6.01,27566.754367056,23,3,3,3,3,12.75,0.44,-0.99,3.02,1.18,-0.07,8.0,-11.3125,-19.1875,0.49114990234375,-0.54498291015625,-0.500244140625,-0.4599609375,-25.75,3.75,31.25,9.73,-0.73,-0.92,moving,10
6.02,27566.779706859,23,3,3,3,3,13.13,1.23,-1.53,3.4,1.93,-0.59,14.5,-7.8125,-23.9375,0.49053955078125,-0.5435791015625,-0.50225830078125,-0.46002197265625,-26.5,2.25,30.5625,9.73,-0.69,-0.93,moving,10
6.03,27566.779706859,23,3,3,3,3,11.23,0.67,-1.98,1.49,1.33,-1.09,-8.875,25.625,-22.9375,0.49029541015625,-0.54193115234375,-0.5018310546875,-0.462646484375,-26.5,2.25,30.5625,9.74,-0.65,-0.89,moving,10
6.04,27566.79379414,23,3,3,3,3,10.59,0.48,-2.17,0.84,1.09,-1.34,-21.375,36.0625,-24.0625,0.48992919921875,-0.540283203125,-0.50054931640625,-0.46636962890625,-26.5,2.25,30.5625,9.75,-0.61,-0.83,moving,10
6.05,27566.79379414,23,3,3,3,3,9.96,0.31,-1.8,0.2,0.87,-1.0,-25.3125,22.4375,-25.3125,0.48870849609375,-0.53936767578125,-0.499755859375,-0.4696044921875,-26.5,2.25,30.5625,9.75,-0.56,-0.79,moving,10
6.05,27566.811775951,23,3,3,3,3,9.96,0.31,-1.8,0.2,0.87,-1.0,-25.3125,22.4375,-25.3125,0.48870849609375,-0.53936767578125,-0.499755859375,-0.4696044921875,-26.5,2.25,30.5625,9.75,-0.56,-0.79,moving,10
6.06,27566.811775951,23,3,3,3,3,10.18,0.45,-1.77,0.42,0.98,-0.96,-25.625,-6.0625,-23.0,0.48626708984375,-0.5396728515625,-0.5,-0.471435546875,-26.5,2.25,30.5625,9.75,-0.52,-0.8,moving,10
6.07,27566.826356314,23,3,3,3,3,9.5,0.51,-2.03,-0.25,1.0,-1.2,-40.0625,-8.5,-19.6875,0.48321533203125,-0.54083251953125,-0.4996337890625,-0.4736328125,-28.0,1.5625,31.25,9.75,-0.48,-0.82,moving,10
6.08,27566.826356314,23,3,3,3,3,9.2,0.12,-2.11,-0.55,0.57,-1.3,-57.5,9.0,-14.1875,0.4803466796875,-0.542236328125,-0.49749755859375,-0.4771728515625,-28.0,1.5625,31.25,9.76,-0.45,-0.81,moving,10
6.09,27566.84448404,23,3,3,3,3,8.9,0.07,-2.16,-0.85,0.5,-1.38,-75.0,23.8125,-9.25,0.4774169921875,-0.54400634765625,-0.49383544921875,-0.48193359375,-28.0,1.5625,31.25,9.76,-0.42,-0.78,moving,10
6.1,27566.84448404,23,3,3,3,3,9.17,0.53,-2.52,-0.6,0.94,-1.78,-93.25,29.4375,-3.0625,0.47412109375,-0.54644775390625,-0.48876953125,-0.48748779296875,-28.0,1.5625,31.25,9.77,-0.4,-0.73,moving,10
6.11,27566.87515266,23,3,3,3,3,9.47,0.98,-2.76,-0.29,1.38,-2.08,-107.5,32.6875,6.0625,0.47064208984375,-0.54974365234375,-0.4825439453125,-0.493408203125,-28.0,1.5625,31.25,9.77,-0.4,-0.68,moving,10
6.12,27566.87515266,23,3,3,3,3,9.77,1.2,-2.9,0.0,1.61,-2.26,-113.3125,32.375,10.8125,0.46697998046875,-0.553466796875,-0.4757080078125,-0.49932861328125,-28.0,0.0625,29.75,9.77,-0.41,-0.64,moving,10
6.13,27566.884327465,23,3,3,3,3,9.91,1.3,-2.93,0.13,1.72,-2.34,-107.5625,34.25,8.0,0.4635009765625,-0.556640625,-0.46923828125,-0.50506591796875,-28.0,0.0625,29.75,9.78,-0.41,-0.58,moving,10
6.14,27566.884327465,23,3,3,3,3,9.93,1.01,-4.22,0.14,1.42,-3.7,-92.75,39.5,3.4375,0.46075439453125,-0.55877685546875,-0.46337890625,-0.51068115234375,-28.0,0.0625,29.75,9.78,-0.4,-0.52,moving,10
6.15,27566.909243481,23,3,3,3,3,10.08,0.98,-4.7,0.3,1.38,-4.22,-67.5,34.75,-1.125,0.4588623046875,-0.55987548828125,-0.458984375,-0.51513671875,-28.0,0.0625,29.75,9.78,-0.4,-0.47,moving,10
6.16,27566.909243481,23,3,3,3,3,10.61,0.89,-4.76,0.82,1.27,-4.32,-28.125,21.1875,-10.1875,0.45782470703125,-0.55963134765625,-0.4573974609375,-0.5177001953125,-28.0,0.0625,29.75,9.78,-0.38,-0.43,moving,10
6.17,27566.928447216,23,3,3,3,3,11.2,0.72,-4.2,1.4,1.07,-3.78,17.5625,11.75,-20.75,0.457763671875,-0.5579833984375,-0.45819091796875,-0.51885986328125,-28.6875,-2.75,28.25,9.79,-0.34,-0.41,moving,10
6.18,27566.928447216,23,3,3,3,3,12.06,0.09,-1.18,2.27,0.39,-0.79,50.9375,9.5625,-26.125,0.45941162109375,-0.554443359375,-0.46142578125,-0.518310546875,-28.6875,-2.75,28.25,9.79,-0.3,-0.39,moving,10
6.19,27566.944832836,23,3,3,3,3,11.88,-0.15,0.73,2.08,0.1,1.09,60.8125,18.25,-25.8125,0.4619140625,-0.55010986328125,-0.46466064453125,-0.51776123046875,-28.6875,-2.75,28.25,9.79,-0.26,-0.36,moving,10
6.2,27566.944832836,23,3,3,3,3,11.19,-0.07,2.41,1.39,0.16,2.71,49.3125,35.625,-16.25,0.4649658203125,-0.54583740234375,-0.46624755859375,-0.51812744140625,-28.6875,-2.75,28.25,9.79,-0.23,-0.3,moving,10
6.21,27566.958517,23,3,3,3,3,9.58,0.31,3.93,-0.22,0.54,4.13,18.5,57.625,-7.6875,0.46783447265625,-0.54217529296875,-0.465087890625,-0.52044677734375,-28.6875,-2.75,28.25,9.8,-0.22,-0.2,moving,10
6.22,27566.958517,23,3,3,3,3,8.6,-0.66,2.22,-1.19,-0.44,2.29,-32.0,78.0625,-3.5625,0.46929931640625,-0.53973388671875,-0.46063232421875,-0.52557373046875,-28.6875,-3.5,29.0,9.8,-0.22,-0.06,moving,10
6.23,27566.989635855,23,3,3,3,3,7.92,-1.24,1.0,-1.87,-1.01,0.95,-69.5625,75.875,2.8125,0.46917724609375,-0.53924560546875,-0.45416259765625,-0.53179931640625,-28.6875,-3.5,29.0,9.8,-0.22,0.05,moving,10
6.24,27566.989635855,23,3,3,3,3,7.89,-1.11,0.07,-1.9,-0.87,-0.06,-75.75,44.5,9.9375,0.46783447265625,-0.5406494140625,-0.4483642578125,-0.5364990234375,-28.6875,-3.5,29.0,9.8,-0.24,0.13,moving,10
6.25,27567.004124137,23,3,3,3,3,8.1,-0.37,-0.95,-1.69,-0.1,-1.1,-68.125,12.9375,13.1875,0.46575927734375,-0.54327392578125,-0.44403076171875,-0.53924560546875,-28.6875,-3.5,29.0,9.8,-0.26,0.15,moving,10
6.26,27567.004124137,23,3,3,3,3,7.77,-0.04,-1.11,-2.02,0.24,-1.27,-55.625,7.375,13.0625,0.4639892578125,-0.54571533203125,-0.44049072265625,-0.54119873046875,-28.6875,-3.5,29.0,9.8,-0.29,0.16,moving,10
6.27,27567.024892203,23,3,3,3,3,7.43,0.26,-1.27,-2.36,0.58,-1.46,-44.375,15.875,14.375,0.46307373046875,-0.54736328125,-0.43695068359375,-0.54315185546875,-29.75,-3.5,27.1875,9.79,-0.31,0.18,moving,10
6.28,27567.024892203,23,3,3,3,3,6.86,0.57,-1.2,-2.93,0.92,-1.42,-37.0625,22.5,15.5,0.462890625,-0.54840087890625,-0.43353271484375,-0.5450439453125,-29.75,-3.5,27.1875,9.79,-0.34,0.22,moving,10
6.29,27567.055765901,23,3,3,3,3,7.07,0.89,-1.06,-2.71,1.26,-1.31,-32.3125,15.4375,15.8125,0.462646484375,-0.549560546875,-0.43060302734375,-0.54632568359375,-29.75,-3.5,27.1875,9.79,-0.37,0.24,moving,10
6.3,27567.055765901,23,3,3,3,3,7.36,1.13,-0.72,-2.42,1.54,-0.96,-35.25,-0.75,18.375,0.46185302734375,-0.55169677734375,-0.4281005859375,-0.546875,-29.75,-3.5,27.1875,9.79,-0.4,0.24,moving,10
6.3,27567.064115714,23,3,3,3,3,7.36,1.13,-0.72,-2.42,1.54,-0.96,-35.25,-0.75,18.375,0.46185302734375,-0.55169677734375,-0.4281005859375,-0.546875,-29.75,-3.5,27.1875,9.79,-0.4,0.24,moving,10
6.31,27567.064115714,23,3,3,3,3,7.81,1.16,-0.29,-1.97,1.6,-0.5,-42.6875,-17.9375,23.125,0.460205078125,-0.55511474609375,-0.4256591796875,-0.54669189453125,-29.75,-3.5,27.1875,9.79,-0.44,0.2,moving,10
6.32,27567.079600862,23,3,3,3,3,8.32,1.03,0.22,-1.47,1.52,0.06,-51.625,-26.0625,25.75,0.45770263671875,-0.5595703125,-0.42279052734375,-0.5465087890625,-30.1875,-5.0,26.0,9.79,-0.49,0.16,moving,10
6.33,27567.079600862,23,3,3,3,3,8.28,1.22,0.22,-1.5,1.76,0.11,-60.0625,-23.625,26.625,0.45513916015625,-0.56402587890625,-0.4195556640625,-0.5465087890625,-30.1875,-5.0,26.0,9.79,-0.53,0.11,moving,10
6.34,27567.09535603,23,3,3,3,3,8.14,1.19,0.36,-1.64,1.78,0.28,-66.625,-15.1875,28.125,0.45263671875,-0.56842041015625,-0.41558837890625,-0.547119140625,-30.1875,-5.0,26.0,9.78,-0.58,0.08,moving,10
6.35,27567.09535603,23,3,3,3,3,8.12,0.99,0.58,-1.65,1.63,0.53,-71.875,-15.3125,28.25,0.4498291015625,-0.572998046875,-0.411376953125,-0.54779052734375,-30.1875,-5.0,26.0,9.78,-0.63,0.04,moving,10
6.36,27567.108200878,23,3,3,3,3,8.27,0.72,0.58,-1.5,1.4,0.57,-74.0625,-19.8125,26.0,0.4466552734375,-0.5777587890625,-0.40728759765625,-0.5484619140625,-30.1875,-5.0,26.0,9.78,-0.68,0.0,moving,10
6.37,27567.108200878,23,3,3,3,3,8.33,0.58,0.43,-1.44,1.3,0.46,-71.125,-21.3125,23.8125,0.44342041015625,-0.5823974609375,-0.40350341796875,-0.5489501953125,-30.5,-4.6875,26.375,9.78,-0.72,-0.03,moving,10
6.38,27567.139153637,23,3,3,3,3,8.53,0.43,0.17,-1.24,1.18,0.25,-64.625,-19.125,21.375,0.44049072265625,-0.5865478515625,-0.40008544921875,-0.5494384765625,-30.5,-4.6875,26.375,9.77,-0.75,-0.08,moving,10
6.39,27567.139153637,23,3,3,3,3,8.97,-0.2,-0.35,-0.8,0.57,-0.24,-57.25,-12.5,18.6875,0.43798828125,-0.5899658203125,-0.3968505859375,-0.55010986328125,-30.5,-4.6875,26.375,9.77,-0.78,-0.1,moving,10
6.4,27567.153267447,23,3,3,3,3,9.01,-0.45,-0.56,-0.75,0.35,-0.45,-47.4375,-0.3125,16.0625,0.436279296875,-0.59234619140625,-0.39373779296875,-0.5511474609375,-30.5,-4.6875,26.375,9.77,-0.81,-0.11,moving,10
6.41,27567.153267447,23,3,3,3,3,9.0,-0.68,-0.67,-0.76,0.15,-0.58,-33.4375,16.8125,14.125,0.43585205078125,-0.59326171875,-0.39080810546875,-0.5526123046875,-30.5,-4.6875,26.375,9.77,-0.83,-0.09,moving,10
6.42,27567.169439526,23,3,3,3,3,8.94,-0.81,-0.52,-0.82,0.04,-0.48,-18.875,35.1875,13.25,0.4366455078125,-0.59271240234375,-0.38787841796875,-0.5545654296875,-30.1875,-5.6875,26.75,9.76,-0.85,-0.03,moving,10
6.43,27567.169439526,23,3,3,3,3,8.28,-0.84,0.34,-1.48,0.03,0.29,-6.875,50.75,13.9375,0.438720703125,-0.59100341796875,-0.3848876953125,-0.55694580078125,-30.1875,-5.6875,26.75,9.76,-0.88,0.05,moving,10
6.44,27567.203548046,23,3,3,3,3,7.66,-0.76,0.74,-2.1,0.14,0.58,0.8125,64.125,15.0625,0.44158935546875,-0.58831787109375,-0.3817138671875,-0.55963134765625,-30.1875,-5.6875,26.75,9.76,-0.9,0.16,moving,10
6.45,27567.203548046,23,3,3,3,3,7.11,-0.73,0.84,-2.64,0.19,0.55,-0.125,75.875,16.625,0.4449462890625,-0.58514404296875,-0.3779296875,-0.5628662109375,-30.1875,-5.6875,26.75,9.75,-0.93,0.29,moving,10
6.46,27567.218458853,23,3,3,3,3,6.68,-0.91,0.48,-3.06,0.05,0.05,-11.25,82.75,19.0625,0.447998046875,-0.5821533203125,-0.3731689453125,-0.56671142578125,-30.1875,-5.6875,26.75,9.74,-0.96,0.42,moving,10
6.47,27567.218458853,23,3,3,3,3,6.4,-1.88,-1.22,-3.33,-0.87,-1.78,-22.25,80.0,22.6875,0.4505615234375,-0.57977294921875,-0.36773681640625,-0.57061767578125,-30.875,-6.0625,25.25,9.73,-1.0,0.56,moving,10
6.48,27567.229385896,23,3,3,3,3,6.57,-2.72,-2.22,-3.15,-1.67,-2.88,-24.875,62.0,27.9375,0.45263671875,-0.57855224609375,-0.3626708984375,-0.573486328125,-30.875,-6.0625,25.25,9.72,-1.05,0.66,moving,10
6.49,27567.229385896,23,3,3,3,3,7.57,-3.74,-3.77,-2.14,-2.62,-4.48,-19.875,29.0625,35.875,0.454345703125,-0.5789794921875,-0.35870361328125,-0.57415771484375,-30.875,-6.0625,25.25,9.71,-1.12,0.7,moving,10
6.5,27567.259322094,23,3,3,3,3,13.01,-5.93,-8.13,3.3,-4.73,-8.82,-11.0,-10.125,43.75,0.45562744140625,-0.581298828125,-0.35638427734375,-0.572265625,-30.875,-6.0625,25.25,9.7,-1.19,0.68,moving,10
6.51,27567.259322094,23,3,3,3,3,16.19,-6.87,-9.18,6.48,-5.6,-9.77,10.4375,-61.5,45.6875,0.45654296875,-0.58538818359375,-0.35699462890625,-0.56695556640625,-30.875,-6.0625,25.25,9.7,-1.27,0.58,moving,10
6.52,27567.274176464,23,3,3,3,3,18.46,-6.38,-8.67,8.75,-5.06,-9.09,53.0625,-101.5,31.3125,0.4576416015625,-0.5892333984375,-0.36212158203125,-0.55877685546875,-33.5,-5.25,24.1875,9.7,-1.31,0.42,moving,10
6.53,27567.274176464,23,3,3,3,3,18.64,-5.37,-6.43,8.92,-4.05,-6.72,110.9375,-93.6875,2.25,0.46044921875,-0.58941650390625,-0.37109375,-0.55035400390625,-33.5,-5.25,24.1875,9.71,-1.31,0.29,moving,10
6.54,27567.288950512,23,3,3,3,3,15.26,-2.8,-1.52,5.54,-1.52,-1.71,148.25,-76.375,-16.0,0.46478271484375,-0.5865478515625,-0.382080078125,-0.54217529296875,-33.5,-5.25,24.1875,9.72,-1.28,0.19,moving,10
6.55,27567.288950512,23,3,3,3,3,14.58,-2.35,2.78,4.86,-1.08,2.76,138.375,-122.5625,-5.5,0.4674072265625,-0.58648681640625,-0.39385986328125,-0.53143310546875,-33.5,-5.25,24.1875,9.72,-1.27,0.01,moving,10
6.56,27567.303629874,23,3,3,3,3,14.96,-1.41,2.99,5.25,-0.09,3.27,57.3125,-184.5625,27.8125,0.4652099609375,-0.5936279296875,-0.402587890625,-0.518798828125,-33.5,-5.25,24.1875,9.71,-1.32,-0.28,moving,10
6.56,27567.303629874,23,3,3,3,3,14.96,-1.41,2.99,5.25,-0.09,3.27,57.3125,-184.5625,27.8125,0.4652099609375,-0.5936279296875,-0.402587890625,-0.518798828125,-33.5,-5.25,24.1875,9.71,-1.32,-0.28,moving,10
6.57,27567.331692944,23,3,3,3,3,12.07,-3.81,-2.17,2.38,-2.39,-1.65,-59.8125,-131.9375,61.0,0.46026611328125,-0.60406494140625,-0.40216064453125,-0.51141357421875,-32.0,-4.25,26.0,9.68,-1.41,-0.52,moving,10
6.58,27567.331692944,23,3,3,3,3,11.9,-3.99,-4.65,2.23,-2.48,-4.0,-104.8125,-58.3125,62.3125,0.4554443359375,-0.613037109375,-0.396484375,-0.50946044921875,-32.0,-4.25,26.0,9.66,-1.51,-0.64,moving,10
6.59,27567.349939282,23,3,3,3,3,12.4,-3.27,-5.9,2.75,-1.67,-5.14,-104.25,-49.3125,55.9375,0.45062255859375,-0.62127685546875,-0.39080810546875,-0.50811767578125,-32.0,-4.25,26.0,9.64,-1.59,-0.75,moving,10
6.6,27567.349939282,23,3,3,3,3,12.81,-1.7,-5.43,3.19,-0.03,-4.51,-86.0625,-82.0625,48.3125,0.44525146484375,-0.62994384765625,-0.3875732421875,-0.504638671875,-32.0,-4.25,26.0,9.62,-1.66,-0.92,moving,10
6.61,27567.364112906,23,3,3,3,3,12.13,-1.65,-4.43,2.54,0.06,-3.34,-76.5,-84.1875,35.4375,0.439697265625,-0.6378173828125,-0.38555908203125,-0.50115966796875,-32.0,-4.25,26.0,9.59,-1.71,-1.08,moving,10
6.62,27567.364112906,23,3,3,3,3,10.31,-1.27,-3.6,0.73,0.44,-2.46,-36.25,-22.75,6.3125,0.4368896484375,-0.64068603515625,-0.38409423828125,-0.5010986328125,-28.375,-3.875,29.0,9.58,-1.71,-1.13,moving,10
6.63,27567.379401481,23,3,3,3,3,9.27,-0.67,-2.84,-0.31,1.03,-1.69,-9.875,0.1875,0.3125,0.43634033203125,-0.64105224609375,-0.3836669921875,-0.50140380859375,-28.375,-3.875,29.0,9.58,-1.71,-1.14,moving,10
6.64,27567.379401481,23,3,3,3,3,8.71,-0.38,-2.28,-0.86,1.32,-1.1,-0.75,-20.0,-5.3125,0.43536376953125,-0.641845703125,-0.38470458984375,-0.50048828125,-28.375,-3.875,29.0,9.58,-1.7,-1.17,moving,10
6.65,27567.409177766,23,3,3,3,3,9.79,-0.63,-1.23,0.21,1.04,0.01,-9.5,-37.375,-11.25,0.43304443359375,-0.64349365234375,-0.3863525390625,-0.49908447265625,-28.375,-3.875,29.0,9.58,-1.68,-1.24,moving,10
6.66,27567.409177766,23,3,3,3,3,9.98,-1.27,-0.34,0.4,0.37,0.94,-33.375,-22.1875,-14.375,0.4298095703125,-0.645263671875,-0.3865966796875,-0.49951171875,-28.375,-3.875,29.0,9.58,-1.65,-1.29,moving,10
6.67,27567.42702172,23,3,3,3,3,9.25,-1.97,0.0,-0.34,-0.35,1.24,-16.1875,29.4375,-20.4375,0.428955078125,-0.6439208984375,-0.38592529296875,-0.50244140625,-27.1875,-3.875,29.75,9.59,-1.61,-1.24,moving,10
6.68,27567.42702172,23,3,3,3,3,6.97,-1.77,-0.36,-2.64,-0.2,0.7,28.375,98.875,-29.8125,0.43255615234375,-0.63751220703125,-0.3851318359375,-0.50811767578125,-27.1875,-3.875,29.75,9.62,-1.56,-1.07,moving,10
6.69,27567.440310742,23,3,3,3,3,6.67,-1.63,-0.71,-2.98,-0.11,0.13,43.25,124.9375,-34.3125,0.43756103515625,-0.629150390625,-0.38427734375,-0.51483154296875,-27.1875,-3.875,29.75,9.65,-1.51,-0.85,moving,10
6.7,27567.440310742,23,3,3,3,3,6.68,-1.51,-1.12,-2.98,-0.04,-0.46,33.4375,106.125,-31.125,0.4415283203125,-0.6220703125,-0.3834228515625,-0.52069091796875,-27.1875,-3.875,29.75,9.67,-1.47,-0.66,moving,10
6.71,27567.475589876,23,3,3,3,3,6.82,-1.36,-1.68,-2.85,0.06,-1.15,17.6875,77.0625,-23.3125,0.4439697265625,-0.61712646484375,-0.38250732421875,-0.525146484375,-27.1875,-3.875,29.75,9.68,-1.43,-0.53,moving,10
6.72,27567.475589876,23,3,3,3,3,6.8,-1.18,-2.86,-2.88,0.22,-2.43,1.5,59.4375,-18.4375,0.4451904296875,-0.61370849609375,-0.38128662109375,-0.5289306640625,-27.5625,-3.875,28.6875,9.69,-1.4,-0.43,moving,10
6.73,27567.483939973,23,3,3,3,3,6.6,-0.98,-3.28,-3.09,0.38,-2.95,-6.875,59.8125,-15.25,0.446044921875,-0.6107177734375,-0.37945556640625,-0.532958984375,-27.5625,-3.875,28.6875,9.7,-1.37,-0.33,moving,10
6.74,27567.483939973,23,3,3,3,3,6.25,-0.52,-3.44,-3.45,0.83,-3.23,-4.75,74.4375,-13.3125,0.4476318359375,-0.6070556640625,-0.3770751953125,-0.53753662109375,-27.5625,-3.875,28.6875,9.71,-1.35,-0.2,moving,10
6.75,27567.499098177,23,3,3,3,3,5.68,-0.35,-3.36,-4.02,0.97,-3.3,6.4375,89.25,-14.6875,0.4501953125,-0.60211181640625,-0.3746337890625,-0.5426025390625,-27.5625,-3.875,28.6875,9.71,-1.32,-0.05,moving,10
6.76,27567.499098177,23,3,3,3,3,5.47,-0.07,-3.22,-4.24,1.22,-3.32,17.4375,89.75,-19.875,0.45306396484375,-0.5965576171875,-0.37298583984375,-0.5474853515625,-27.5625,-3.875,28.6875,9.72,-1.29,0.09,moving,10
6.77,27567.530489697,23,3,3,3,3,5.73,0.16,-3.18,-3.98,1.41,-3.35,27.25,41.9375,-26.25,0.45428466796875,-0.59283447265625,-0.37371826171875,-0.54998779296875,-30.1875,-4.6875,26.0,9.72,-1.25,0.17,moving,10
6.78,27567.530489697,23,3,3,3,3,6.35,0.11,-3.17,-3.36,1.31,-3.42,27.25,41.9375,-26.25,0.45574951171875,-0.58892822265625,-0.37469482421875,-0.55230712890625,-30.1875,-4.6875,26.0,9.72,-1.2,0.24,moving,10
6.79,27567.545110262,23,3,3,3,3,7.93,-0.07,-3.24,-1.79,1.08,-3.51,22.1875,8.0625,-29.0,0.45574951171875,-0.58673095703125,-0.376953125,-0.5531005859375,-30.1875,-4.6875,26.0,9.73,-1.15,0.26,moving,10
6.8,27567.545110262,23,3,3,3,3,8.46,-0.26,-3.39,-1.27,0.84,-3.63,7.875,-18.625,-27.9375,0.45416259765625,-0.58642578125,-0.37957763671875,-0.552978515625,-30.1875,-4.6875,26.0,9.74,-1.1,0.23,moving,10
6.81,27567.559435945,23,3,3,3,3,8.69,-0.43,-3.41,-1.05,0.63,-3.59,-13.25,-26.6875,-24.1875,0.451416015625,-0.5875244140625,-0.3812255859375,-0.552978515625,-30.1875,-4.6875,26.0,9.74,-1.06,0.18,moving,10
6.82,27567.559435945,23,3,3,3,3,8.76,-0.45,-3.31,-0.98,0.59,-3.47,-56.125,-13.6875,-11.4375,0.44708251953125,-0.59027099609375,-0.3792724609375,-0.5548095703125,-31.25,-5.25,24.5,9.74,-1.04,0.15,moving,10
6.82,27567.574487052,23,3,3,3,3,8.76,-0.45,-3.31,-0.98,0.59,-3.47,-56.125,-13.6875,-11.4375,0.44708251953125,-0.59027099609375,-0.3792724609375,-0.5548095703125,-31.25,-5.25,24.5,9.74,-1.04,0.15,moving,10
6.83,27567.574487052,23,3,3,3,3,9.06,-0.54,-2.52,-0.68,0.48,-2.64,-56.125,-13.6875,-11.4375,0.44317626953125,-0.5927734375,-0.37774658203125,-0.556396484375,-31.25,-5.25,24.5,9.75,-1.03,0.11,moving,10
6.84,27567.589204174,23,3,3,3,3,9.72,-0.7,-1.93,-0.02,0.31,-1.99,-65.8125,-26.5,-6.75,0.43853759765625,-0.596435546875,-0.37591552734375,-0.557373046875,-31.25,-5.25,24.5,9.75,-1.02,0.05,moving,10
6.85,27567.589204174,23,3,3,3,3,10.43,-0.82,-1.31,0.68,0.18,-1.25,-65.625,-61.4375,-5.0625,0.43280029296875,-0.60174560546875,-0.3753662109375,-0.55645751953125,-31.25,-5.25,24.5,9.75,-1.01,-0.05,moving,10
6.86,27567.618930533,23,3,3,3,3,11.3,-0.77,-0.36,1.55,0.23,-0.12,-56.8125,-103.625,-2.8125,0.42620849609375,-0.60882568359375,-0.37664794921875,-0.55291748046875,-31.25,-5.25,24.5,9.75,-1.0,-0.24,moving,10
6.87,27567.618930533,23,3,3,3,3,11.15,-0.93,0.0,1.41,0.06,0.49,-50.125,-135.0,-3.3125,0.41888427734375,-0.61712646484375,-0.37945556640625,-0.5474853515625,-30.1875,-5.25,25.25,9.74,-0.99,-0.48,moving,10
6.88,27567.635335441,23,3,3,3,3,10.85,-1.41,0.39,1.12,-0.42,1.08,-53.75,-114.0625,-1.875,0.412109375,-0.62445068359375,-0.38116455078125,-0.5430908203125,-30.1875,-5.25,25.25,9.73,-0.98,-0.69,moving,10
6.89,27567.635335441,23,3,3,3,3,10.65,-1.84,0.24,0.93,-0.86,1.08,-66.5,-78.4375,0.8125,0.40582275390625,-0.630615234375,-0.38079833984375,-0.54095458984375,-30.1875,-5.25,25.25,9.72,-0.97,-0.83,moving,10
6.9,27567.649999707,23,3,3,3,3,11.41,-0.94,-0.69,1.69,0.02,0.2,-92.9375,-31.8125,2.1875,0.39971923828125,-0.635498046875,-0.37744140625,-0.54217529296875,-30.1875,-5.25,25.25,9.71,-0.96,-0.9,moving,10
6.91,27567.649999707,23,3,3,3,3,12.07,-1.99,-1.17,2.34,-1.04,-0.31,-83.9375,34.125,-5.6875,0.3958740234375,-0.6365966796875,-0.37261962890625,-0.54693603515625,-30.1875,-5.25,25.25,9.72,-0.94,-0.86,stop,10
6.92,27567.679549511,23,3,3,3,3,12.06,-2.66,-2.02,2.33,-1.73,-1.3,-51.0625,87.4375,-8.625,0.39544677734375,-0.6339111328125,-0.36761474609375,-0.5537109375,-28.375,-7.5,27.875,9.73,-0.92,-0.72,stop,10
6.93,27567.679549511,23,3,3,3,3,12.08,-2.7,-2.79,2.33,-1.8,-2.23,-16.6875,99.5,-13.3125,0.39703369140625,-0.6292724609375,-0.3641357421875,-0.5601806640625,-28.375,-7.5,27.875,9.74,-0.89,-0.56,stop,10
6.94,27567.694368603,23,3,3,3,3,12.36,-4.11,-3.01,2.6,-3.24,-2.6,31.75,85.9375,-19.9375,0.40045166015625,-0.62335205078125,-0.36376953125,-0.56451416015625,-28.375,-7.5,27.875,9.75,-0.86,-0.41,stop,10
6.95,27567.694368603,23,3,3,3,3,12.22,-3.94,-2.97,2.45,-3.12,-2.67,89.0625,54.25,-31.375,0.40545654296875,-0.6165771484375,-0.36798095703125,-0.565673828125,-28.375,-7.5,27.875,9.76,-0.82,-0.3,stop,10
6.96,27567.709600211,23,3,3,3,3,11.58,-3.04,-2.64,1.8,-2.3,-2.36,136.5625,3.0625,-49.1875,0.410400390625,-0.61004638671875,-0.37725830078125,-0.5631103515625,-28.375,-7.5,27.875,9.77,-0.74,-0.28,stop,10
6.97,27567.709600211,23,3,3,3,3,10.85,-1.48,-1.52,1.07,-0.83,-1.2,156.6875,-33.625,-58.3125,0.4146728515625,-0.6041259765625,-0.38922119140625,-0.55816650390625,-29.0625,-8.6875,26.375,9.77,-0.65,-0.32,stop,10
6.98,27567.740240999,23,3,3,3,3,11.02,0.02,0.01,1.24,0.6,0.39,126.75,-39.375,-48.5,0.4176025390625,-0.59979248046875,-0.39935302734375,-0.553466796875,-29.0625,-8.6875,26.375,9.78,-0.57,-0.37,stop,10
6.99,27567.740240999,23,3,3,3,3,11.91,-0.67,0.75,2.13,-0.17,1.09,79.4375,16.5625,-48.0625,0.41998291015625,-0.594482421875,-0.40509033203125,-0.55328369140625,-29.0625,-8.6875,26.375,9.78,-0.5,-0.34,stop,10
7.0,27567.753831941,23,3,3,3,3,10.81,-0.69,1.16,1.01,-0.25,1.36,31.125,84.375,-40.4375,0.422607421875,-0.58782958984375,-0.4056396484375,-0.5579833984375,-29.0625,-8.6875,26.375,9.79,-0.43,-0.19,stop,10
7.01,27567.753831941,23,3,3,3,3,8.5,-0.44,-0.39,-1.29,-0.06,-0.36,-3.4375,101.1875,-33.4375,0.42437744140625,-0.58184814453125,-0.4034423828125,-0.564453125,-29.0625,-8.6875,26.375,9.79,-0.37,-0.02,stop,10
7.02,27567.769560091,23,3,3,3,3,7.87,-0.77,-1.05,-1.92,-0.45,-1.13,-25.875,61.1875,-29.0625,0.4239501953125,-0.57861328125,-0.401611328125,-0.5693359375,-28.6875,-7.1875,27.5,9.8,-0.32,0.07,stop,10
7.03,27567.769560091,23,3,3,3,3,7.6,-1.04,-1.69,-2.19,-0.75,-1.78,-31.75,9.25,-24.625,0.42144775390625,-0.5784912109375,-0.4010009765625,-0.57177734375,-28.6875,-7.1875,27.5,9.8,-0.28,0.08,stop,10
7.04,27567.799381868,23,3,3,3,3,7.22,-0.81,-2.56,-2.57,-0.56,-2.6,-22.4375,-27.9375,-25.0,0.4180908203125,-0.57989501953125,-0.40216064453125,-0.572021484375,-28.6875,-7.1875,27.5,9.8,-0.24,0.03,stop,10
7.05,27567.799381868,23,3,3,3,3,6.89,-0.59,-2.57,-2.9,-0.39,-2.53,-9.8125,-47.375,-28.1875,0.41448974609375,-0.5816650390625,-0.40484619140625,-0.5709228515625,-28.6875,-7.1875,27.5,9.8,-0.19,-0.04,stop,10
7.06,27567.81503177,23,3,3,3,3,6.51,-0.35,-2.5,-3.28,-0.2,-2.37,-5.625,-49.625,-30.125,0.410888671875,-0.58331298828125,-0.40789794921875,-0.5697021484375,-28.6875,-7.1875,27.5,9.8,-0.14,-0.12,stop,10
7.07,27567.81503177,23,3,3,3,3,6.36,-0.14,-2.47,-3.44,-0.05,-2.27,-8.125,-40.375,-29.0625,0.40753173828125,-0.58465576171875,-0.410400390625,-0.56890869140625,-29.75,-8.25,26.375,9.8,-0.09,-0.2,stop,10
7.08,27567.829093619,23,3,3,3,3,6.42,0.14,-2.31,-3.37,0.18,-2.05,-9.4375,-31.5,-26.0,0.40460205078125,-0.58563232421875,-0.412353515625,-0.56854248046875,-29.75,-8.25,26.375,9.8,-0.04,-0.25,stop,10
7.09,27567.829093619,23,3,3,3,3,6.76,0.26,-2.16,-3.04,0.27,-1.86,-5.0,-28.75,-28.0625,0.40191650390625,-0.58624267578125,-0.41461181640625,-0.56817626953125,-29.75,-8.25,26.375,9.8,0.0,-0.3,stop,10
7.1,27567.859566235,23,3,3,3,3,7.22,0.4,-2.03,-2.57,0.35,-1.67,10.3125,-33.625,-31.625,0.399658203125,-0.58648681640625,-0.41790771484375,-0.56719970703125,-29.75,-8.25,26.375,9.79,0.05,-0.36,stop,10
7.11,27567.859566235,23,3,3,3,3,7.45,0.39,-1.68,-2.34,0.29,-1.24,31.6875,-42.375,-34.6875,0.39794921875,-0.58624267578125,-0.4227294921875,-0.56500244140625,-29.75,-8.25,26.375,9.79,0.1,-0.43,stop,10
7.12,27567.876935254,23,3,3,3,3,7.57,0.6,-1.03,-2.22,0.42,-0.51,46.125,-48.8125,-38.75,0.3966064453125,-0.58563232421875,-0.4287109375,-0.56207275390625,-28.375,-9.0,27.5,9.79,0.17,-0.52,stop,10
7.13,27567.876935254,23,3,3,3,3,7.89,0.95,-1.05,-1.89,0.72,-0.42,48.9375,-59.3125,-38.1875,0.39495849609375,-0.58544921875,-0.43511962890625,-0.5584716796875,-28.375,-9.0,27.5,9.78,0.23,-0.62,stop,10
7.14,27567.889072135,23,3,3,3,3,8.43,1.25,-1.25,-1.33,0.97,-0.47,42.875,-81.6875,-31.875,0.3924560546875,-0.58673095703125,-0.441650390625,-0.5537109375,-28.375,-9.0,27.5,9.77,0.28,-0.77,stop,10
7.14,27567.889072135,23,3,3,3,3,8.43,1.25,-1.25,-1.33,0.97,-0.47,42.875,-81.6875,-31.875,0.3924560546875,-0.58673095703125,-0.441650390625,-0.5537109375,-28.375,-9.0,27.5,9.77,0.28,-0.77,stop,10
7.15,27567.904172151,23,3,3,3,3,9.98,1.36,-1.72,0.22,1.04,-0.76,33.5,-107.875,-25.0625,0.3887939453125,-0.58984375,-0.4482421875,-0.5477294921875,-28.375,-9.0,27.5,9.75,0.31,-0.95,stop,10
7.16,27567.904172151,23,3,3,3,3,10.75,1.29,-2.02,1.02,0.95,-0.84,24.875,-127.75,-20.5625,0.384033203125,-0.59429931640625,-0.454833984375,-0.540771484375,-28.375,-9.0,27.5,9.72,0.34,-1.17,stop,10
7.17,27567.918224886,23,3,3,3,3,11.46,1.33,-2.32,1.77,0.96,-0.91,18.1875,-132.4375,-15.5625,0.37896728515625,-0.59930419921875,-0.4609375,-0.53363037109375,-26.875,-9.6875,28.25,9.69,0.37,-1.4,stop,10
7.18,27567.918224886,23,3,3,3,3,11.96,1.43,-2.63,2.29,1.05,-1.02,12.25,-121.25,-9.0,0.374267578125,-0.60418701171875,-0.4659423828125,-0.52703857421875,-26.875,-9.6875,28.25,9.66,0.38,-1.61,stop,10
7.19,27567.950185905,23,3,3,3,3,12.56,1.67,-2.75,2.93,1.28,-0.96,6.625,-102.5625,-2.875,0.3702392578125,-0.60858154296875,-0.46978759765625,-0.52142333984375,-26.875,-9.6875,28.25,9.63,0.38,-1.78,stop,10
7.2,27567.950185905,23,3,3,3,3,12.71,1.9,-2.44,3.1,1.51,-0.52,-1.1875,-81.625,1.3125,0.36688232421875,-0.61236572265625,-0.4722900390625,-0.51702880859375,-26.875,-9.6875,28.25,9.6,0.38,-1.92,stop,10
7.21,27567.966459424,23,3,3,3,3,12.77,2.12,-2.03,3.18,1.74,0.0,-10.625,-64.1875,3.75,0.36376953125,-0.61578369140625,-0.47369384765625,-0.51385498046875,-26.875,-9.6875,28.25,9.58,0.38,-2.03,stop,10
7.22,27567.966459424,23,3,3,3,3,12.92,2.07,-1.26,3.36,1.69,0.85,-15.0,-54.25,2.3125,0.36077880859375,-0.61883544921875,-0.474609375,-0.511474609375,-25.0,-9.375,30.5625,9.56,0.38,-2.12,stop,10
7.23,27567.978731803,23,3,3,3,3,13.05,1.96,-1.16,3.5,1.57,1.02,-23.25,-40.8125,0.125,0.35784912109375,-0.62139892578125,-0.474853515625,-0.51019287109375,-25.0,-9.375,30.5625,9.55,0.39,-2.19,stop,10
7.24,27567.978731803,23,3,3,3,3,13.03,1.93,-1.39,3.48,1.52,0.81,-33.3125,-14.4375,-1.0625,0.3553466796875,-0.62310791015625,-0.47393798828125,-0.51080322265625,-25.0,-9.375,30.5625,9.54,0.4,-2.21,stop,10
7.25,27568.010850822,23,3,3,3,3,12.63,0.99,-1.23,3.08,0.56,0.95,-17.25,17.75,-9.75,0.35467529296875,-0.6224365234375,-0.47314453125,-0.51275634765625,-25.0,-9.375,30.5625,9.55,0.42,-2.18,stop,10
7.26,27568.010850822,23,3,3,3,3,11.69,0.44,-2.01,2.12,0.0,0.1,16.625,38.625,-16.0625,0.3564453125,-0.61956787109375,-0.47357177734375,-0.51458740234375,-25.0,-9.375,30.5625,9.56,0.44,-2.12,stop,10
7.27,27568.023734204,23,3,3,3,3,11.38,0.83,-2.31,1.81,0.37,-0.23,33.6875,25.0625,-15.1875,0.3585205078125,-0.6168212890625,-0.47509765625,-0.51507568359375,-22.5,-9.375,31.6875,9.57,0.46,-2.08,stop,10
7.28,27568.023734204,23,3,3,3,3,11.48,0.9,-2.48,1.91,0.43,-0.4,22.75,2.3125,-8.875,0.35943603515625,-0.61566162109375,-0.4765625,-0.51446533203125,-22.5,-9.375,31.6875,9.57,0.46,-2.08,stop,10
7.29,27568.039381624,23,3,3,3,3,11.29,0.58,-2.51,1.71,0.11,-0.43,1.1875,0.0,0.75,0.3594970703125,-0.61566162109375,-0.4765625,-0.514404296875,-22.5,-9.375,31.6875,9.57,0.46,-2.08,stop,10
7.3,27568.039381624,23,3,3,3,3,10.79,-0.03,-2.55,1.21,-0.48,-0.49,-12.1875,13.1875,9.4375,0.35980224609375,-0.6158447265625,-0.47509765625,-0.5152587890625,-22.5,-9.375,31.6875,9.57,0.45,-2.05,stop,10
7.31,27568.071160718,23,3,3,3,3,10.41,-0.1,-2.14,0.83,-0.53,-0.12,-17.25,25.25,15.75,0.360595703125,-0.61590576171875,-0.47271728515625,-0.516845703125,-22.5,-9.375,31.6875,9.58,0.43,-2.01,stop,10
7.32,27568.071160718,23,3,3,3,3,10.12,-0.05,-1.82,0.52,-0.46,0.13,-18.625,34.25,21.5,0.36181640625,-0.61602783203125,-0.46942138671875,-0.51885986328125,-21.75,-10.0625,31.6875,9.6,0.4,-1.95,stop,10
7.33,27568.083923576,23,3,3,3,3,9.39,-0.19,-1.72,-0.22,-0.56,0.17,-19.3125,34.25,26.625,0.36334228515625,-0.6162109375,-0.466064453125,-0.5206298828125,-21.75,-10.0625,31.6875,9.61,0.36,-1.9,stop,10
7.34,27568.083923576,23,3,3,3,3,9.06,-0.34,-1.75,-0.55,-0.66,0.09,-20.375,25.375,30.9375,0.36468505859375,-0.616943359375,-0.46270751953125,-0.52178955078125,-21.75,-10.0625,31.6875,9.62,0.32,-1.85,stop,10
7.35,27568.099744539,23,3,3,3,3,8.83,-0.48,-1.8,-0.8,-0.75,0.02,-18.3125,18.3125,33.625,0.36590576171875,-0.61810302734375,-0.45947265625,-0.5224609375,-21.75,-10.0625,31.6875,9.63,0.27,-1.82,stop,10
7.36,27568.099744539,23,3,3,3,3,8.66,-0.67,-2.02,-0.97,-0.89,-0.23,-11.3125,21.25,35.5,0.3677978515625,-0.618896484375,-0.45635986328125,-0.52288818359375,-21.75,-10.0625,31.6875,9.63,0.21,-1.79,stop,10
7.37,27568.129454175,23,3,3,3,3,8.15,-0.41,-2.18,-1.48,-0.57,-0.43,-1.25,22.875,36.5625,0.3702392578125,-0.619384765625,-0.45361328125,-0.52301025390625,-23.5625,-9.6875,31.6875,9.64,0.15,-1.75,stop,10
7.38,27568.129454175,23,3,3,3,3,8.06,-0.37,-2.17,-1.58,-0.46,-0.45,7.875,15.8125,35.5,0.37286376953125,-0.619873046875,-0.4515380859375,-0.5223388671875,-23.5625,-9.6875,31.6875,9.65,0.09,-1.72,stop,10
7.39,27568.143688224,23,3,3,3,3,8.0,-0.32,-2.18,-1.64,-0.35,-0.46,13.25,6.9375,35.125,0.37548828125,-0.6204833984375,-0.45001220703125,-0.52105712890625,-23.5625,-9.6875,31.6875,9.65,0.02,-1.71,stop,10
7.4,27568.143688224,23,3,3,3,3,8.04,-0.29,-2.24,-1.61,-0.25,-0.53,15.875,3.875,35.625,0.37811279296875,-0.6212158203125,-0.44866943359375,-0.51947021484375,-23.5625,-9.6875,31.6875,9.65,-0.03,-1.71,stop,10
7.41,27568.159127799,23,3,3,3,3,8.01,-0.38,-2.08,-1.64,-0.28,-0.38,16.8125,4.875,37.0,0.380859375,-0.62188720703125,-0.447265625,-0.517822265625,-23.5625,-9.6875,31.6875,9.65,-0.1,-1.7,stop,10
7.42,27568.159127799,23,3,3,3,3,7.99,-0.41,-2.01,-1.66,-0.23,-0.32,16.625,6.875,38.1875,0.3837890625,-0.62249755859375,-0.44580078125,-0.51617431640625,-25.0,-9.0,31.6875,9.65,-0.17,-1.69,stop,10
7.43,27568.191151806,23,3,3,3,3,7.96,-0.46,-1.98,-1.69,-0.21,-0.3,16.5,5.1875,39.5,0.3865966796875,-0.623291015625,-0.4442138671875,-0.51446533203125,-25.0,-9.0,31.6875,9.65,-0.24,-1.68,stop,10
7.44,27568.191151806,23,3,3,3,3,8.11,-0.71,-2.21,-1.53,-0.39,-0.53,16.1875,-2.0,41.125,0.3892822265625,-0.62445068359375,-0.44281005859375,-0.5123291015625,-25.0,-9.0,31.6875,9.65,-0.31,-1.68,stop,10
7.45,27568.203721793,23,3,3,3,3,8.24,-0.86,-2.37,-1.4,-0.46,-0.66,15.75,-9.875,42.5,0.3916015625,-0.6259765625,-0.4415283203125,-0.50970458984375,-25.0,-9.0,31.6875,9.64,-0.39,-1.7,stop,10
7.46,27568.203721793,23,3,3,3,3,8.24,-0.86,-2.37,-1.4,-0.46,-0.66,15.75,-9.875,42.5,0.3916015625,-0.6259765625,-0.4415283203125,-0.50970458984375,-25.0,-9.0,31.6875,9.64,-0.39,-1.7,stop,10
7.46,27568.220323112,23,3,3,3,3,8.36,-1.04,-2.52,-1.27,-0.57,-0.8,14.1875,-12.0,43.4375,0.39385986328125,-0.62774658203125,-0.440185546875,-0.50701904296875,-25.0,-9.0,31.6875,9.64,-0.47,-1.72,stop,10
7.47,27568.220323112,23,3,3,3,3,8.49,-1.21,-2.65,-1.14,-0.66,-0.92,13.5625,-9.25,44.625,0.39605712890625,-0.6295166015625,-0.43853759765625,-0.5045166015625,-24.0,-8.6875,31.0,9.63,-0.55,-1.73,stop,10
7.48,27568.235384472,23,3,3,3,3,8.72,-1.53,-2.55,-0.9,-0.9,-0.8,17.25,-4.4375,44.875,0.3988037109375,-0.630859375,-0.43695068359375,-0.50201416015625,-24.0,-8.6875,31.0,9.62,-0.63,-1.74,stop,10
7.49,27568.235384472,23,3,3,3,3,8.75,-1.59,-2.27,-0.87,-0.88,-0.52,24.8125,-0.75,43.4375,0.40203857421875,-0.6317138671875,-0.43572998046875,-0.49951171875,-24.0,-8.6875,31.0,9.62,-0.71,-1.74,stop,10
7.5,27568.249700472,23,3,3,3,3,8.8,-1.56,-1.9,-0.81,-0.77,-0.16,31.6875,-0.125,42.4375,0.40557861328125,-0.6322021484375,-0.43475341796875,-0.49676513671875,-24.0,-8.6875,31.0,9.61,-0.79,-1.73,stop,10
7.51,27568.249700472,23,3,3,3,3,8.78,-1.32,-1.21,-0.82,-0.45,0.52,34.0625,-1.75,42.0625,0.4091796875,-0.6326904296875,-0.4339599609375,-0.493896484375,-24.0,-8.6875,31.0,9.61,-0.87,-1.73,stop,10
7.52,27568.279213981,23,3,3,3,3,8.75,-1.1,-1.05,-0.84,-0.14,0.67,32.125,-2.25,42.625,0.4127197265625,-0.63323974609375,-0.43310546875,-0.490966796875,-25.0,-6.75,32.0625,9.6,-0.95,-1.73,stop,10
7.53,27568.279213981,23,3,3,3,3,8.7,-0.89,-1.05,-0.89,0.14,0.67,28.75,-1.625,42.875,0.41607666015625,-0.6339111328125,-0.4320068359375,-0.48822021484375,-25.0,-6.75,32.0625,9.59,-1.03,-1.73,stop,10
7.54,27568.294545483,23,3,3,3,3,8.58,-0.73,-1.21,-1.0,0.37,0.51,25.1875,-1.9375,42.5625,0.419189453125,-0.63470458984375,-0.4307861328125,-0.485595703125,-25.0,-6.75,32.0625,9.58,-1.11,-1.73,stop,10
7.55,27568.294545483,23,3,3,3,3,8.37,-0.58,-1.51,-1.2,0.6,0.21,23.5,-2.875,41.25,0.422119140625,-0.63555908203125,-0.42962646484375,-0.4830322265625,-25.0,-6.75,32.0625,9.57,-1.19,-1.73,stop,10
7.56,27568.308222567,23,3,3,3,3,8.29,-0.49,-1.61,-1.26,0.76,0.11,24.0,-2.5625,39.3125,0.42498779296875,-0.63629150390625,-0.4285888671875,-0.48046875,-25.0,-6.75,32.0625,9.56,-1.26,-1.73,stop,10
7.57,27568.308222567,23,3,3,3,3,8.29,-0.47,-1.75,-1.26,0.86,-0.02,26.25,-1.4375,36.9375,0.42791748046875,-0.63677978515625,-0.42767333984375,-0.47802734375,-25.0,-5.0,30.5625,9.55,-1.33,-1.73,stop,10
7.58,27568.340281038,23,3,3,3,3,8.37,-0.46,-1.87,-1.18,0.93,-0.14,28.5625,-0.8125,34.75,0.430908203125,-0.63702392578125,-0.42694091796875,-0.47564697265625,-25.0,-5.0,30.5625,9.55,-1.4,-1.72,stop,10
7.59,27568.340281038,23,3,3,3,3,8.94,-0.5,-2.37,-0.59,0.96,-0.65,28.0,-1.75,32.625,0.4337158203125,-0.6373291015625,-0.4263916015625,-0.47320556640625,-25.0,-5.0,30.5625,9.54,-1.46,-1.72,stop,10
7.6,27568.354367708,23,3,3,3,3,9.38,-0.59,-2.66,-0.15,0.93,-0.93,23.5,-3.0625,30.75,0.4361572265625,-0.6376953125,-0.42572021484375,-0.47100830078125,-25.0,-5.0,30.5625,9.53,-1.52,-1.72,stop,10
7.61,27568.354367708,23,3,3,3,3,9.81,-0.8,-2.92,0.29,0.76,-1.2,16.6875,-3.1875,29.0,0.43817138671875,-0.6383056640625,-0.4249267578125,-0.46905517578125,-25.0,-5.0,30.5625,9.52,-1.57,-1.72,stop,10
7.62,27568.370750724,23,3,3,3,3,10.64,-1.23,-3.37,1.12,0.38,-1.65,11.8125,-1.5625,27.5625,0.44049072265625,-0.638427734375,-0.4248046875,-0.4669189453125,-24.6875,-2.0625,31.6875,9.51,-1.62,-1.72,stop,10
7.63,27568.370750724,23,3,3,3,3,10.93,-1.47,-3.48,1.42,0.19,-1.75,12.4375,-1.0625,25.125,0.442138671875,-0.638916015625,-0.4239501953125,-0.46539306640625,-24.6875,-2.0625,31.6875,9.5,-1.67,-1.72,stop,10
7.64,27568.399495394,23,3,3,3,3,11.28,-1.74,-3.56,1.78,-0.02,-1.83,17.0625,-5.3125,22.1875,0.44378662109375,-0.6392822265625,-0.423583984375,-0.46356201171875,-24.6875,-2.0625,31.6875,9.49,-1.71,-1.72,stop,10
7.65,27568.399495394,23,3,3,3,3,11.59,-1.92,-3.35,2.1,-0.17,-1.61,21.375,-11.6875,19.8125,0.4453125,-0.63970947265625,-0.423828125,-0.46136474609375,-24.6875,-2.0625,31.6875,9.49,-1.75,-1.74,stop,10
7.66,27568.414540194,23,3,3,3,3,12.19,-1.88,-2.41,2.71,-0.09,-0.65,19.375,-11.875,18.5625,0.4466552734375,-0.64013671875,-0.424072265625,-0.459228515625,-24.6875,-2.0625,31.6875,9.48,-1.78,-1.75,stop,10
7.67,27568.414540194,23,3,3,3,3,12.02,-1.67,-2.25,2.55,0.14,-0.48,8.0,-5.625,19.8125,0.447509765625,-0.64093017578125,-0.42327880859375,-0.4580078125,-25.375,-2.75,32.0625,9.47,-1.82,-1.76,stop,10
7.68,27568.428565584,23,3,3,3,3,11.75,-1.81,-2.07,2.29,0.03,-0.3,-1.8125,-5.125,19.4375,0.447998046875,-0.6419677734375,-0.42230224609375,-0.45697021484375,-25.375,-2.75,32.0625,9.46,-1.85,-1.77,stop,10
7.69,27568.428565584,23,3,3,3,3,11.09,-2.11,-1.81,1.64,-0.23,-0.01,-5.0625,-11.4375,16.9375,0.44793701171875,-0.64324951171875,-0.421630859375,-0.45587158203125,-25.375,-2.75,32.0625,9.45,-1.88,-1.79,stop,10
7.7,27568.460172925,23,3,3,3,3,11.05,-1.95,-1.64,1.61,-0.05,0.17,0.5625,-17.0625,12.375,0.44781494140625,-0.6444091796875,-0.421630859375,-0.454345703125,-25.375,-2.75,32.0625,9.44,-1.9,-1.82,stop,10
7.71,27568.460172925,23,3,3,3,3,11.05,-1.66,-1.43,1.61,0.24,0.41,9.25,-16.0,6.875,0.447998046875,-0.6448974609375,-0.4222412109375,-0.45281982421875,-25.375,-2.75,32.0625,9.43,-1.91,-1.84,stop,10
7.72,27568.473796297,23,3,3,3,3,10.9,-1.32,-1.3,1.46,0.59,0.55,13.25,-6.1875,1.875,0.44854736328125,-0.644775390625,-0.4228515625,-0.451904296875,-24.0,-1.6875,32.0625,9.43,-1.92,-1.85,stop,10
7.72,27568.473796297,23,3,3,3,3,10.9,-1.32,-1.3,1.46,0.59,0.55,13.25,-6.1875,1.875,0.44854736328125,-0.644775390625,-0.4228515625,-0.451904296875,-24.0,-1.6875,32.0625,9.43,-1.92,-1.85,stop,10
7.73,27568.489183789,23,3,3,3,3,10.42,-0.92,-1.62,0.98,1.0,0.21,10.4375,6.3125,-1.6875,0.4493408203125,-0.64404296875,-0.42315673828125,-0.45196533203125,-24.0,-1.6875,32.0625,9.43,-1.92,-1.84,stop,10
7.74,27568.489183789,23,3,3,3,3,10.18,-1.13,-1.78,0.73,0.78,0.02,4.5625,14.6875,-4.3125,0.449951171875,-0.64312744140625,-0.4229736328125,-0.4527587890625,-24.0,-1.6875,32.0625,9.44,-1.91,-1.81,stop,10
7.75,27568.503096834,23,3,3,3,3,9.94,-1.33,-1.84,0.48,0.56,-0.06,0.9375,18.0,-6.75,0.45037841796875,-0.64215087890625,-0.4227294921875,-0.4539794921875,-24.0,-1.6875,32.0625,9.45,-1.9,-1.78,stop,10
7.76,27568.503096834,23,3,3,3,3,9.73,-1.43,-1.81,0.27,0.45,-0.06,1.0625,18.6875,-9.375,0.45074462890625,-0.64105224609375,-0.42254638671875,-0.45538330078125,-24.0,-1.6875,32.0625,9.46,-1.89,-1.75,stop,10
7.77,27568.519212964,23,3,3,3,3,9.5,-1.35,-1.74,0.02,0.51,-0.02,0.1875,19.9375,-11.5,0.45098876953125,-0.63983154296875,-0.4224853515625,-0.4569091796875,-25.0,-0.5625,32.75,9.47,-1.87,-1.72,stop,10
7.78,27568.519212964,23,3,3,3,3,9.38,-1.32,-1.79,-0.09,0.52,-0.1,-3.125,22.3125,-12.75,0.45111083984375,-0.63861083984375,-0.42218017578125,-0.458740234375,-25.0,-0.5625,32.75,9.48,-1.85,-1.68,stop,10
7.79,27568.549841178,23,3,3,3,3,9.33,-1.35,-1.83,-0.16,0.47,-0.18,-8.1875,25.3125,-13.3125,0.4510498046875,-0.63739013671875,-0.421630859375,-0.46099853515625,-25.0,-0.5625,32.75,9.49,-1.82,-1.64,stop,10
7.8,27568.549841178,23,3,3,3,3,9.08,-1.35,-1.95,-0.41,0.44,-0.34,-13.8125,27.0,-13.5,0.45068359375,-0.6363525390625,-0.4207763671875,-0.4635009765625,-25.0,-0.5625,32.75,9.5,-1.8,-1.6,stop,10
7.81,27568.56374812,23,3,3,3,3,8.93,-1.42,-2.01,-0.58,0.35,-0.44,-18.6875,26.4375,-13.25,0.4500732421875,-0.63555908203125,-0.419677734375,-0.4661865234375,-25.0,-0.5625,32.75,9.51,-1.77,-1.57,stop,10
7.82,27568.56374812,23,3,3,3,3,8.81,-1.51,-2.04,-0.71,0.22,-0.49,-21.5625,22.4375,-13.0,0.4493408203125,-0.6348876953125,-0.41888427734375,-0.46856689453125,-25.75,-0.1875,32.75,9.52,-1.74,-1.54,stop,10
7.83,27568.579823519,23,3,3,3,3,8.71,-1.53,-2.08,-0.82,0.18,-0.56,-21.375,18.1875,-13.3125,0.4482421875,-0.634521484375,-0.41802978515625,-0.47088623046875,-25.75,-0.1875,32.75,9.53,-1.71,-1.51,stop,10
7.84,27568.579823519,23,3,3,3,3,8.56,-1.49,-2.02,-0.97,0.19,-0.52,-18.5625,14.25,-14.0625,0.4471435546875,-0.6341552734375,-0.41748046875,-0.472900390625,-25.75,-0.1875,32.75,9.54,-1.68,-1.49,stop,10
7.85,27568.60908597,23,3,3,3,3,8.46,-1.44,-1.98,-1.08,0.21,-0.49,-15.5625,11.25,-14.6875,0.446044921875,-0.6337890625,-0.417236328125,-0.47467041015625,-25.75,-0.1875,32.75,9.55,-1.66,-1.48,stop,10
7.86,27568.60908597,23,3,3,3,3,8.39,-1.36,-1.92,-1.16,0.26,-0.45,-12.1875,9.5,-15.6875,0.445068359375,-0.63330078125,-0.417236328125,-0.4761962890625,-25.75,-0.1875,32.75,9.55,-1.63,-1.47,stop,10
7.87,27568.62285424,23,3,3,3,3,8.45,-1.37,-1.96,-1.11,0.22,-0.5,-10.4375,8.25,-16.1875,0.44415283203125,-0.6326904296875,-0.41748046875,-0.47760009765625,-25.75,-1.0,31.25,9.56,-1.6,-1.46,stop,10
7.88,27568.62285424,23,3,3,3,3,8.72,-1.33,-1.88,-0.84,0.23,-0.43,-9.9375,7.3125,-16.4375,0.44317626953125,-0.6322021484375,-0.417724609375,-0.47900390625,-25.75,-1.0,31.25,9.57,-1.57,-1.45,stop,10
7.89,27568.654724194,23,3,3,3,3,8.88,-1.33,-1.91,-0.69,0.2,-0.47,-9.625,8.25,-16.75,0.4422607421875,-0.631591796875,-0.41796875,-0.48046875,-25.75,-1.0,31.25,9.57,-1.54,-1.44,stop,10
7.9,27568.654724194,23,3,3,3,3,9.05,-1.31,-1.85,-0.53,0.19,-0.42,-10.125,9.75,-16.9375,0.4412841796875,-0.6309814453125,-0.4180908203125,-0.48199462890625,-25.75,-1.0,31.25,9.58,-1.5,-1.43,stop,10
7.91,27568.668967521,23,3,3,3,3,9.38,-1.25,-1.69,-0.21,0.22,-0.28,-11.25,11.25,-17.0,0.44036865234375,-0.63031005859375,-0.41815185546875,-0.483642578125,-25.75,-1.0,31.25,9.59,-1.47,-1.41,stop,10
7.92,27568.668967521,23,3,3,3,3,9.49,-1.21,-1.58,-0.1,0.23,-0.18,-13.375,13.0,-16.75,0.43939208984375,-0.62969970703125,-0.41802978515625,-0.4854736328125,-26.1875,-2.0625,31.6875,9.59,-1.44,-1.39,stop,10
7.93,27568.683702384,23,3,3,3,3,9.53,-1.2,-1.49,-0.07,0.2,-0.12,-15.5625,15.125,-16.4375,0.4383544921875,-0.6290283203125,-0.417724609375,-0.48748779296875,-26.1875,-2.0625,31.6875,9.6,-1.41,-1.37,stop,10
7.94,27568.683702384,23,3,3,3,3,9.51,-1.2,-1.43,-0.09,0.17,-0.08,-16.125,15.5,-16.5,0.43731689453125,-0.62841796875,-0.4173583984375,-0.48956298828125,-26.1875,-2.0625,31.6875,9.61,-1.38,-1.35,stop,10
7.95,27568.699435905,23,3,3,3,3,9.49,-1.23,-1.43,-0.12,0.11,-0.1,-14.5,12.9375,-16.5625,0.436279296875,-0.6278076171875,-0.41717529296875,-0.491455078125,-26.1875,-2.0625,31.6875,9.62,-1.35,-1.33,stop,10
7.96,27568.699435905,23,3,3,3,3,9.51,-1.19,-1.48,-0.1,0.12,-0.15,-11.8125,8.625,-17.25,0.4351806640625,-0.62725830078125,-0.41729736328125,-0.49298095703125,-26.1875,-2.0625,31.6875,9.62,-1.31,-1.32,stop,10
7.97,27568.730037305,23,3,3,3,3,9.58,-1.1,-1.42,-0.04,0.18,-0.1,-11.375,6.6875,-17.25,0.43475341796875,-0.626220703125,-0.41839599609375,-0.4937744140625,-25.375,-1.6875,31.0,9.63,-1.28,-1.31,stop,10
7.98,27568.730037305,23,3,3,3,3,9.55,-1.12,-1.44,-0.07,0.03,0.02,-14.8125,8.625,-16.6875,0.4266357421875,-0.62835693359375,-0.42401123046875,-0.4932861328125,-25.375,-1.6875,31.0,9.62,-1.15,-1.46,stop,10
7.99,27568.744086051,23,3,3,3,3,9.53,-1.23,-1.42,-0.09,-0.1,0.02,-18.6875,11.5625,-15.8125,0.42535400390625,-0.62799072265625,-0.42364501953125,-0.49517822265625,-25.375,-1.6875,31.0,9.63,-1.12,-1.44,stop,10
8.0,27568.744086051,23,3,3,3,3,9.55,-1.28,-1.37,-0.08,-0.18,0.05,-19.4375,12.125,-15.25,0.424072265625,-0.62762451171875,-0.42315673828125,-0.49713134765625,-25.375,-1.6875,31.0,9.63,-1.09,-1.43,stop,10
8.01,27568.759150057,23,3,3,3,3,9.6,-1.28,-1.27,-0.03,-0.21,0.13,-17.3125,10.625,-15.25,0.42291259765625,-0.62725830078125,-0.4228515625,-0.4989013671875,-25.375,-1.6875,31.0,9.64,-1.06,-1.41,stop,10
8.02,27568.759150057,23,3,3,3,3,9.73,-1.22,-1.12,0.08,-0.18,0.27,-15.6875,9.9375,-14.875,0.42181396484375,-0.62689208984375,-0.42254638671875,-0.50054931640625,-26.5,-3.875,30.5625,9.65,-1.03,-1.4,stop,10
8.03,27568.790001742,23,3,3,3,3,9.72,-1.16,-1.13,0.06,-0.15,0.24,-16.125,11.5,-13.9375,0.42083740234375,-0.62646484375,-0.42205810546875,-0.5023193359375,-26.5,-3.875,30.5625,9.65,-1.01,-1.38,stop,10
8.04,27568.790001742,23,3,3,3,3,9.69,-1.15,-1.15,0.03,-0.16,0.21,-17.8125,13.5625,-12.9375,0.41986083984375,-0.62603759765625,-0.42144775390625,-0.504150390625,-26.5,-3.875,30.5625,9.66,-0.98,-1.36,stop,10
8.05,27568.803402865,23,3,3,3,3,9.65,-1.17,-1.11,0.0,-0.21,0.22,-18.8125,14.375,-11.875,0.4189453125,-0.62567138671875,-0.420654296875,-0.506103515625,-26.5,-3.875,30.5625,9.66,-0.96,-1.34,stop,10
8.06,27568.803402865,23,3,3,3,3,9.78,-1.01,-1.01,0.11,-0.06,0.29,-18.8125,17.1875,-10.875,0.41815185546875,-0.6251220703125,-0.41973876953125,-0.50811767578125,-26.5,-3.875,30.5625,9.67,-0.94,-1.31,stop,10
8.07,27568.819514803,23,3,3,3,3,9.53,-1.09,-0.98,-0.14,-0.17,0.28,-20.125,23.0,-10.25,0.417724609375,-0.62432861328125,-0.418701171875,-0.5103759765625,-27.1875,-3.875,30.5625,9.67,-0.92,-1.27,stop,10
8.08,27568.819514803,23,3,3,3,3,9.54,-1.16,-0.98,-0.14,-0.25,0.25,-17.25,21.8125,-10.8125,0.41717529296875,-0.62353515625,-0.4176025390625,-0.5125732421875,-27.1875,-3.875,30.5625,9.68,-0.9,-1.24,stop,10
8.09,27568.855868766,23,3,3,3,3,9.67,-0.97,-0.92,-0.01,-0.09,0.28,-13.3125,17.0625,-10.625,0.41668701171875,-0.62286376953125,-0.41693115234375,-0.514404296875,-27.1875,-3.875,30.5625,9.69,-0.88,-1.21,stop,10
8.1,27568.855868766,23,3,3,3,3,9.74,-0.9,-0.92,0.05,-0.04,0.26,-13.9375,17.8125,-9.75,0.41619873046875,-0.6221923828125,-0.4161376953125,-0.5162353515625,-27.1875,-3.875,30.5625,9.69,-0.86,-1.18,stop,10
8.11,27568.863851351,23,3,3,3,3,9.61,-0.99,-0.99,-0.09,-0.14,0.15,-16.9375,23.0625,-8.6875,0.415771484375,-0.6214599609375,-0.4149169921875,-0.5184326171875,-27.1875,-3.875,30.5625,9.7,-0.84,-1.14,stop,10
8.12,27568.863851351,23,3,3,3,3,9.54,-1.05,-1.04,-0.16,-0.22,0.05,-17.3125,25.0625,-8.0,0.415771484375,-0.620361328125,-0.4140625,-0.5203857421875,-26.875,-4.6875,31.0,9.7,-0.83,-1.1,stop,10
8.13,27568.879473096,23,3,3,3,3,9.46,-1.02,-1.23,-0.25,-0.2,-0.16,-17.625,22.9375,-6.625,0.4154052734375,-0.6197509765625,-0.41278076171875,-0.5224609375,-26.875,-4.6875,31.0,9.71,-0.81,-1.06,stop,10
8.14,27568.879473096,23,3,3,3,3,9.46,-1.06,-1.29,-0.25,-0.25,-0.25,-17.0625,20.0,-5.8125,0.4149169921875,-0.61932373046875,-0.41156005859375,-0.5242919921875,-26.875,-4.6875,31.0,9.71,-0.8,-1.03,stop,10
8.15,27568.92492321,23,3,3,3,3,9.45,-1.04,-1.41,-0.26,-0.24,-0.4,-15.5625,17.875,-5.0625,0.41448974609375,-0.618896484375,-0.41046142578125,-0.52593994140625,-26.875,-4.6875,31.0,9.72,-0.79,-1.01,stop,10
8.16,27568.92492321,23,3,3,3,3,9.45,-1.03,-1.48,-0.27,-0.24,-0.5,-13.375,15.0,-4.4375,0.41412353515625,-0.61859130859375,-0.4095458984375,-0.52740478515625,-26.875,-4.6875,31.0,9.72,-0.78,-0.98,stop,10
8.17,27568.936675285,23,3,3,3,3,9.43,-1.08,-1.51,-0.29,-0.3,-0.54,-10.6875,11.25,-4.0,0.413818359375,-0.61822509765625,-0.40899658203125,-0.52850341796875,-28.0,-5.6875,30.1875,9.72,-0.77,-0.97,stop,10
8.18,27568.936675285,23,3,3,3,3,9.44,-1.11,-1.46,-0.28,-0.34,-0.5,-7.0,6.25,-3.5625,0.41351318359375,-0.6180419921875,-0.40863037109375,-0.5291748046875,-28.0,-5.6875,30.1875,9.72,-0.77,-0.96,stop,10
8.19,27568.94310778,23,3,3,3,3,9.51,-1.1,-1.4,-0.21,-0.34,-0.44,-3.25,0.5625,-3.5,0.41314697265625,-0.6180419921875,-0.40863037109375,-0.52947998046875,-28.0,-5.6875,30.1875,9.72,-0.76,-0.96,stop,10
8.2,27568.94310778,23,3,3,3,3,9.64,-1.04,-1.1,-0.08,-0.28,-0.13,-0.375,-3.6875,-3.125,0.41290283203125,-0.61810302734375,-0.408935546875,-0.52935791015625,-28.0,-5.6875,30.1875,9.72,-0.75,-0.96,stop,10
8.21,27568.975403475,23,3,3,3,3,9.72,-0.97,-1.01,0.0,-0.22,-0.04,0.5,-5.0,-2.8125,0.41253662109375,-0.61822509765625,-0.4093017578125,-0.5291748046875,-28.0,-5.6875,30.1875,9.72,-0.75,-0.97,stop,10
8.22,27568.975403475,23,3,3,3,3,9.75,-0.99,-0.91,0.02,-0.24,0.06,-0.125,-3.9375,-2.0625,0.41229248046875,-0.61834716796875,-0.4095458984375,-0.529052734375,-28.375,-6.75,29.5,9.72,-0.75,-0.98,stop,10
8.23,27568.983606071,23,3,3,3,3,9.79,-1.04,-0.85,0.06,-0.29,0.12,-1.1875,-2.1875,-1.25,0.412109375,-0.61846923828125,-0.40966796875,-0.52899169921875,-28.375,-6.75,29.5,9.72,-0.74,-0.98,stop,10
8.24,27568.983606071,23,3,3,3,3,9.78,-1.03,-0.81,0.05,-0.28,0.17,-1.0,0.3125,-0.875,0.4119873046875,-0.61846923828125,-0.40966796875,-0.529052734375,-28.375,-6.75,29.5,9.72,-0.74,-0.98,stop,10
8.25,27568.998702751,23,3,3,3,3,9.8,-1.06,-0.76,0.07,-0.32,0.21,0.125,2.5,-0.75,0.41204833984375,-0.61834716796875,-0.40960693359375,-0.52923583984375,-28.375,-6.75,29.5,9.72,-0.74,-0.98,stop,10
8.26,27568.998702751,23,3,3,3,3,9.81,-1.04,-0.76,0.08,-0.3,0.21,1.5,3.75,-0.8125,0.4122314453125,-0.61810302734375,-0.40960693359375,-0.5294189453125,-28.375,-6.75,29.5,9.72,-0.74,-0.97,stop,10
8.27,27569.029575676,23,3,3,3,3,9.83,-1.03,-0.82,0.1,-0.28,0.13,3.1875,5.1875,-1.0625,0.4124755859375,-0.61773681640625,-0.40960693359375,-0.52960205078125,-28.0,-6.75,29.0625,9.73,-0.74,-0.96,stop,10
8.28,27569.029575676,23,3,3,3,3,9.83,-1.02,-0.86,0.09,-0.28,0.09,4.3125,6.625,-1.125,0.41290283203125,-0.6171875,-0.40966796875,-0.52984619140625,-28.0,-6.75,29.0625,9.73,-0.74,-0.95,stop,10
8.29,27569.043938672,23,3,3,3,3,9.8,-1.0,-0.85,0.07,-0.26,0.08,4.25,7.75,-0.875,0.41351318359375,-0.61669921875,-0.4095458984375,-0.53009033203125,-28.0,-6.75,29.0625,9.73,-0.74,-0.94,stop,10
8.3,27569.043938672,23,3,3,3,3,9.74,-0.99,-0.8,0.01,-0.24,0.12,3.6875,8.75,-0.5625,0.4140625,-0.61614990234375,-0.4093017578125,-0.5303955078125,-28.0,-6.75,29.0625,9.73,-0.74,-0.92,stop,10
8.31,27569.074924553,23,3,3,3,3,9.63,-0.91,-0.82,-0.09,-0.16,0.08,2.6875,8.3125,0.0625,0.41455078125,-0.61572265625,-0.4090576171875,-0.53076171875,-28.0,-6.75,29.0625,9.73,-0.74,-0.91,stop,10
8.32,27569.074924553,23,3,3,3,3,9.6,-0.9,-0.91,-0.13,-0.15,-0.01,2.0,6.75,0.5625,0.41497802734375,-0.6153564453125,-0.4088134765625,-0.531005859375,-28.375,-6.75,28.6875,9.73,-0.75,-0.89,stop,10
8.33,27569.089195386,23,3,3,3,3,9.64,-0.96,-1.06,-0.09,-0.2,-0.17,1.3125,4.9375,0.6875,0.415283203125,-0.61517333984375,-0.40863037109375,-0.5311279296875,-28.375,-6.75,28.6875,9.73,-0.75,-0.89,stop,10
8.34,27569.089195386,23,3,3,3,3,9.67,-0.94,-1.15,-0.06,-0.18,-0.27,0.25,3.8125,1.75,0.41552734375,-0.6151123046875,-0.40838623046875,-0.53118896484375,-28.375,-6.75,28.6875,9.73,-0.75,-0.88,stop,10
8.35,27569.104207064,23,3,3,3,3,9.63,-1.05,-1.15,-0.09,-0.29,-0.27,-0.3125,5.0,2.0625,0.415771484375,-0.614990234375,-0.4080810546875,-0.5313720703125,-28.375,-6.75,28.6875,9.73,-0.76,-0.87,stop,10
8.36,27569.104207064,23,3,3,3,3,9.6,-1.06,-1.15,-0.13,-0.3,-0.29,1.4375,5.625,2.375,0.4161376953125,-0.61474609375,-0.4078369140625,-0.53155517578125,-28.375,-6.75,28.6875,9.73,-0.76,-0.86,stop,10
8.37,27569.119517204,23,3,3,3,3,9.68,-0.99,-1.12,-0.05,-0.22,-0.26,3.0625,4.875,2.4375,0.41656494140625,-0.61456298828125,-0.4075927734375,-0.53167724609375,-28.375,-7.1875,29.5,9.73,-0.77,-0.85,stop,10
8.38,27569.119517204,23,3,3,3,3,9.55,-1.06,-1.05,-0.18,-0.28,-0.19,6.0625,0.6875,2.375,0.4169921875,-0.6143798828125,-0.40771484375,-0.5313720703125,-28.375,-7.1875,29.5,9.73,-0.77,-0.85,stop,10
8.39,27569.151851717,23,3,3,3,3,9.63,-0.99,-1.03,-0.1,-0.21,-0.16,11.0,-8.125,1.625,0.41741943359375,-0.61456298828125,-0.408447265625,-0.53033447265625,-28.375,-7.1875,29.5,9.73,-0.78,-0.87,stop,10
8.4,27569.151851717,23,3,3,3,3,9.76,-0.91,-0.96,0.03,-0.12,-0.06,14.625,-13.3125,1.0,0.41778564453125,-0.61474609375,-0.40948486328125,-0.529052734375,-28.375,-7.1875,29.5,9.73,-0.78,-0.89,stop,10
8.41,27569.168627963,23,3,3,3,3,9.84,-0.81,-0.96,0.1,-0.02,-0.05,13.5,-9.4375,1.3125,0.418212890625,-0.61474609375,-0.410400390625,-0.5279541015625,-28.375,-7.1875,29.5,9.73,-0.79,-0.9,stop,10
8.42,27569.168627963,23,3,3,3,3,9.75,-0.83,-0.92,0.02,-0.03,-0.01,9.1875,-2.5,1.9375,0.41876220703125,-0.6146240234375,-0.41082763671875,-0.52740478515625,-28.375,-6.5,29.0625,9.73,-0.79,-0.91,stop,10
8.43,27569.178693758,23,3,3,3,3,9.72,-0.86,-0.87,0.0,-0.06,0.03,6.1875,0.4375,2.625,0.419189453125,-0.614501953125,-0.41094970703125,-0.527099609375,-28.375,-6.5,29.0625,9.73,-0.8,-0.91,stop,10
8.44,27569.178693758,23,3,3,3,3,9.72,-0.89,-0.86,0.0,-0.08,0.05,7.0,-1.6875,2.5625,0.41961669921875,-0.6143798828125,-0.41119384765625,-0.526611328125,-28.375,-6.5,29.0625,9.73,-0.8,-0.91,stop,10
8.45,27569.209733513,23,3,3,3,3,9.77,-0.86,-0.84,0.04,-0.05,0.07,9.9375,-5.5,2.0625,0.4200439453125,-0.6143798828125,-0.4117431640625,-0.52587890625,-28.375,-6.5,29.0625,9.72,-0.81,-0.92,stop,10
8.46,27569.209733513,23,3,3,3,3,9.78,-0.85,-0.89,0.06,-0.03,0.04,11.625,-7.5625,1.8125,0.42047119140625,-0.6143798828125,-0.4124755859375,-0.52496337890625,-28.375,-6.5,29.0625,9.72,-0.81,-0.93,stop,10
8.47,27569.228276278,23,3,3,3,3,9.78,-0.85,-0.9,0.05,-0.02,0.04,10.0,-5.75,2.0625,0.4207763671875,-0.61444091796875,-0.412841796875,-0.52435302734375,-28.6875,-6.5,28.25,9.72,-0.82,-0.94,stop,10
8.48,27569.228276278,23,3,3,3,3,9.72,-0.88,-0.94,0.0,-0.05,0.0,7.75,-2.9375,2.1875,0.42120361328125,-0.6143798828125,-0.4132080078125,-0.5238037109375,-28.6875,-6.5,28.25,9.72,-0.83,-0.94,stop,10
8.49,27569.241132561,23,3,3,3,3,9.66,-0.91,-0.95,-0.06,-0.07,0.0,7.1875,-1.9375,2.1875,0.421630859375,-0.61431884765625,-0.4134521484375,-0.52337646484375,-28.6875,-6.5,28.25,9.72,-0.83,-0.94,stop,10
8.5,27569.241132561,23,3,3,3,3,9.69,-0.87,-0.92,-0.03,-0.03,0.03,8.0,-3.5,1.625,0.4219970703125,-0.6142578125,-0.41387939453125,-0.5228271484375,-28.6875,-6.5,28.25,9.72,-0.83,-0.95,stop,10
8.51,27569.268813469,23,3,3,3,3,9.74,-0.83,-0.86,0.02,0.0,0.09,8.9375,-5.0625,1.0625,0.42236328125,-0.61419677734375,-0.4144287109375,-0.52215576171875,-28.6875,-6.5,28.25,9.72,-0.84,-0.96,stop,10
8.52,27569.268813469,23,3,3,3,3,9.75,-0.77,-0.83,0.03,0.07,0.12,8.5,-4.1875,0.875,0.42266845703125,-0.61407470703125,-0.4149169921875,-0.5216064453125,-28.6875,-5.6875,28.25,9.72,-0.84,-0.96,stop,10
8.53,27569.283553174,23,3,3,3,3,9.68,-0.7,-0.83,-0.03,0.14,0.13,6.875,-1.125,1.0,0.42303466796875,-0.6138916015625,-0.41522216796875,-0.52130126953125,-28.6875,-5.6875,28.25,9.72,-0.84,-0.96,stop,10
8.54,27569.283553174,23,3,3,3,3,9.7,-0.66,-0.83,-0.02,0.18,0.13,5.375,0.4375,1.0625,0.42340087890625,-0.61370849609375,-0.4154052734375,-0.52105712890625,-28.6875,-5.6875,28.25,9.72,-0.85,-0.96,stop,10
8.55,27569.299545769,23,3,3,3,3,9.67,-0.64,-0.82,-0.04,0.2,0.13,4.75,-0.125,0.875,0.42364501953125,-0.613525390625,-0.41558837890625,-0.52093505859375,-28.6875,-5.6875,28.25,9.72,-0.85,-0.96,stop,10
8.56,27569.299545769,23,3,3,3,3,9.73,-0.53,-0.81,0.01,0.31,0.15,4.5,-1.75,0.625,0.423828125,-0.6134033203125,-0.41583251953125,-0.52069091796875,-28.6875,-5.6875,28.25,9.72,-0.85,-0.96,stop,10
8.57,27569.329535433,23,3,3,3,3,9.72,-0.54,-0.81,0.0,0.3,0.15,2.875,-1.625,0.375,0.42388916015625,-0.61328125,-0.41607666015625,-0.5206298828125,-28.375,-5.6875,29.0625,9.72,-0.85,-0.96,stop,10
8.58,27569.329535433,23,3,3,3,3,9.71,-0.54,-0.84,0.0,0.3,0.12,0.375,-0.4375,0.5625,0.42388916015625,-0.61322021484375,-0.41607666015625,-0.52069091796875,-28.375,-5.6875,29.0625,9.72,-0.84,-0.96,stop,10
8.59,27569.344520581,23,3,3,3,3,9.64,-0.55,-0.88,-0.07,0.28,0.08,-1.625,0.0,0.0625,0.42376708984375,-0.61322021484375,-0.41607666015625,-0.52081298828125,-28.375,-5.6875,29.0625,9.72,-0.84,-0.96,stop,10
8.6,27569.344520581,23,3,3,3,3,9.51,-0.54,-0.87,-0.2,0.29,0.09,-3.125,-1.1875,-0.4375,0.4234619140625,-0.61334228515625,-0.416015625,-0.52093505859375,-28.375,-5.6875,29.0625,9.72,-0.84,-0.96,stop,10
8.61,27569.362881543,23,3,3,3,3,9.4,-0.51,-0.84,-0.31,0.32,0.12,-4.375,-3.125,-1.625,0.4229736328125,-0.613525390625,-0.41607666015625,-0.52105712890625,-28.375,-5.6875,29.0625,9.72,-0.83,-0.97,stop,10
8.62,27569.362881543,23,3,3,3,3,9.3,-0.53,-0.82,-0.41,0.29,0.15,-4.875,-5.25,-3.0,0.42242431640625,-0.61383056640625,-0.41619873046875,-0.52105712890625,-28.0,-5.25,28.6875,9.72,-0.83,-0.98,stop,10
8.63,27569.390206535,23,3,3,3,3,9.23,-0.57,-0.85,-0.48,0.24,0.14,-4.1875,-7.25,-4.8125,0.42169189453125,-0.6141357421875,-0.41656494140625,-0.52099609375,-28.0,-5.25,28.6875,9.72,-0.82,-0.99,stop,10
8.64,27569.390206535,23,3,3,3,3,9.1,-0.63,-0.95,-0.61,0.17,0.05,-2.4375,-9.875,-6.875,0.4208984375,-0.61444091796875,-0.41717529296875,-0.52081298828125,-28.0,-5.25,28.6875,9.72,-0.81,-1.01,stop,10
8.65,27569.403430127,23,3,3,3,3,9.09,-0.67,-0.97,-0.62,0.11,0.06,-0.6875,-13.125,-9.0,0.41998291015625,-0.61474609375,-0.41815185546875,-0.52044677734375,-28.0,-5.25,28.6875,9.71,-0.79,-1.03,stop,10
8.66,27569.403430127,23,3,3,3,3,9.09,-0.73,-1.05,-0.62,0.04,0.0,0.0,-15.75,-11.0,0.41888427734375,-0.61505126953125,-0.4193115234375,-0.52001953125,-28.0,-5.25,28.6875,9.71,-0.77,-1.06,stop,10
8.67,27569.418000521,23,3,3,3,3,9.34,-0.81,-1.26,-0.36,-0.06,-0.17,0.0,-18.0,-12.8125,0.41766357421875,-0.6153564453125,-0.42071533203125,-0.51947021484375,-27.1875,-5.6875,30.5625,9.71,-0.75,-1.09,stop,10
8.68,27569.418000521,23,3,3,3,3,9.47,-0.89,-1.39,-0.23,-0.16,-0.27,-0.1875,-20.625,-14.625,0.416259765625,-0.61578369140625,-0.4222412109375,-0.5189208984375,-27.1875,-5.6875,30.5625,9.71,-0.73,-1.12,stop,10
8.69,27569.454147779,23,3,3,3,3,9.54,-0.95,-1.53,-0.16,-0.24,-0.36,0.8125,-22.4375,-16.8125,0.41473388671875,-0.61614990234375,-0.42401123046875,-0.51824951171875,-27.1875,-5.6875,30.5625,9.71,-0.7,-1.16,stop,10
8.7,27569.454147779,23,3,3,3,3,9.61,-1.01,-1.55,-0.09,-0.34,-0.35,2.25,-22.6875,-18.75,0.41314697265625,-0.61639404296875,-0.42596435546875,-0.51763916015625,-27.1875,-5.6875,30.5625,9.7,-0.67,-1.2,stop,10
8.71,27569.466891431,23,3,3,3,3,9.67,-1.16,-1.46,-0.03,-0.53,-0.22,2.875,-22.5625,-20.6875,0.4114990234375,-0.61651611328125,-0.427978515625,-0.51702880859375,-27.1875,-5.6875,30.5625,9.7,-0.63,-1.24,stop,10
8.72,27569.466891431,23,3,3,3,3,9.72,-1.23,-1.35,0.02,-0.63,-0.07,2.6875,-22.75,-22.8125,0.4097900390625,-0.6165771484375,-0.43017578125,-0.51654052734375,-26.875,-5.6875,29.5,9.7,-0.59,-1.27,stop,10
8.73,27569.47965905,23,3,3,3,3,9.73,-1.3,-1.24,0.03,-0.74,0.07,1.0625,-22.375,-24.5625,0.40789794921875,-0.61663818359375,-0.432373046875,-0.51617431640625,-26.875,-5.6875,29.5,9.7,-0.55,-1.31,stop,10
8.74,27569.47965905,23,3,3,3,3,9.63,-1.31,-0.99,-0.06,-0.8,0.35,-1.0625,-20.75,-26.25,0.4058837890625,-0.61663818359375,-0.4344482421875,-0.5159912109375,-26.875,-5.6875,29.5,9.69,-0.51,-1.35,stop,10
8.75,27569.510515984,23,3,3,3,3,9.47,-1.31,-0.88,-0.22,-0.85,0.49,-2.375,-18.3125,-27.6875,0.40380859375,-0.61651611328125,-0.4365234375,-0.51611328125,-26.875,-5.6875,29.5,9.69,-0.46,-1.38,stop,10
8.76,27569.510515984,23,3,3,3,3,9.47,-1.31,-0.88,-0.22,-0.85,0.49,-2.375,-18.3125,-27.6875,0.40380859375,-0.61651611328125,-0.4365234375,-0.51611328125,-26.875,-5.6875,29.5,9.69,-0.46,-1.38,stop,10
8.76,27569.515213697,23,3,3,3,3,9.26,-1.31,-0.84,-0.43,-0.9,0.57,-2.8125,-17.25,-29.3125,0.40167236328125,-0.61627197265625,-0.43853759765625,-0.51629638671875,-26.875,-5.6875,29.5,9.69,-0.41,-1.41,stop,10
8.77,27569.515213697,23,3,3,3,3,9.06,-1.23,-0.83,-0.62,-0.87,0.6,-2.0625,-19.5625,-31.1875,0.3994140625,-0.615966796875,-0.44085693359375,-0.516357421875,-25.75,-6.0625,30.1875,9.69,-0.36,-1.44,stop,10
8.78,27569.538891838,23,3,3,3,3,8.67,-0.89,-1.02,-1.01,-0.58,0.46,-0.1875,-23.5,-33.125,0.39703369140625,-0.61578369140625,-0.44342041015625,-0.51629638671875,-25.75,-6.0625,30.1875,9.68,-0.3,-1.48,stop,10
8.79,27569.538891838,23,3,3,3,3,8.47,-0.74,-1.19,-1.2,-0.49,0.34,1.375,-27.3125,-34.8125,0.39447021484375,-0.6156005859375,-0.44635009765625,-0.51593017578125,-25.75,-6.0625,30.1875,9.68,-0.24,-1.53,stop,10
8.8,27569.563679843,23,3,3,3,3,8.24,-0.59,-1.38,-1.43,-0.4,0.19,1.875,-29.1875,-36.8125,0.39178466796875,-0.61541748046875,-0.44940185546875,-0.51556396484375,-25.75,-6.0625,30.1875,9.67,-0.18,-1.58,stop,10
8.81,27569.563679843,23,3,3,3,3,8.03,-0.41,-1.53,-1.62,-0.29,0.09,1.8125,-28.6875,-38.5625,0.3890380859375,-0.6151123046875,-0.4525146484375,-0.5152587890625,-25.75,-6.0625,30.1875,9.66,-0.12,-1.63,stop,10
8.82,27569.56884773,23,3,3,3,3,7.77,-0.27,-1.63,-1.89,-0.21,0.04,2.4375,-27.625,-40.25,0.38629150390625,-0.61468505859375,-0.45574951171875,-0.5150146484375,-26.5,-6.5,29.75,9.66,-0.05,-1.67,stop,10
8.83,27569.56884773,23,3,3,3,3,7.75,-0.18,-1.65,-1.9,-0.2,0.07,2.875,-29.3125,-41.6875,0.38336181640625,-0.6142578125,-0.4591064453125,-0.51470947265625,-26.5,-6.5,29.75,9.65,0.01,-1.72,stop,10
8.84,27569.606357536,23,3,3,3,3,7.81,-0.16,-1.7,-1.82,-0.25,0.07,2.8125,-33.25,-43.125,0.3802490234375,-0.6138916015625,-0.462646484375,-0.5142822265625,-26.5,-6.5,29.75,9.64,0.08,-1.78,stop,10
8.85,27569.606357536,23,3,3,3,3,7.99,-0.18,-1.87,-1.63,-0.34,-0.03,1.75,-36.0625,-44.1875,0.376953125,-0.61370849609375,-0.46624755859375,-0.51373291015625,-26.5,-6.5,29.75,9.63,0.16,-1.84,stop,10
8.86,27569.614075106,23,3,3,3,3,8.12,-0.19,-2.0,-1.49,-0.42,-0.1,-0.5625,-37.3125,-44.1875,0.3734130859375,-0.61358642578125,-0.4698486328125,-0.51318359375,-26.5,-6.5,29.75,9.61,0.23,-1.9,stop,10
8.87,27569.614075106,23,3,3,3,3,8.4,-0.19,-2.19,-1.19,-0.5,-0.22,-3.0625,-38.4375,-43.3125,0.36968994140625,-0.6136474609375,-0.47320556640625,-0.51263427734375,-24.375,-7.875,31.0,9.6,0.3,-1.97,stop,10
8.88,27569.633014681,23,3,3,3,3,8.78,-0.17,-2.42,-0.79,-0.55,-0.38,-4.1875,-41.0625,-42.1875,0.36590576171875,-0.6138916015625,-0.47662353515625,-0.511962890625,-24.375,-7.875,31.0,9.58,0.38,-2.03,stop,10
8.89,27569.633014681,23,3,3,3,3,9.81,0.12,-2.9,0.24,-0.32,-0.79,-4.9375,-40.5,-41.0,0.36212158203125,-0.6141357421875,-0.4798583984375,-0.51129150390625,-24.375,-7.875,31.0,9.56,0.45,-2.1,stop,10
8.9,27569.658956535,23,3,3,3,3,10.27,0.29,-3.07,0.72,-0.22,-0.91,-7.3125,-33.9375,-39.125,0.3585205078125,-0.6142578125,-0.48272705078125,-0.51104736328125,-24.375,-7.875,31.0,9.55,0.51,-2.16,stop,10
8.91,27569.658956535,23,3,3,3,3,10.69,0.49,-3.07,1.15,-0.09,-0.86,-11.375,-23.9375,-36.0625,0.35528564453125,-0.6141357421875,-0.48486328125,-0.5113525390625,-24.375,-7.875,31.0,9.53,0.58,-2.2,moving,10
8.92,27569.673084668,23,3,3,3,3,11.68,0.74,-2.4,2.15,0.1,-0.18,-13.9375,-13.875,-32.3125,0.3525390625,-0.61383056640625,-0.48638916015625,-0.51220703125,-23.1875,-9.0,32.75,9.52,0.64,-2.22,moving,10
8.93,27569.673084668,23,3,3,3,3,12.28,0.94,-1.98,2.75,0.25,0.24,-15.25,-6.9375,-28.0625,0.35015869140625,-0.6134033203125,-0.4874267578125,-0.5133056640625,-23.1875,-9.0,32.75,9.52,0.69,-2.23,moving,10
8.94,27569.709264275,23,3,3,3,3,12.74,1.14,-1.64,3.22,0.4,0.58,-16.5,-1.4375,-23.4375,0.34814453125,-0.61297607421875,-0.48797607421875,-0.5146484375,-23.1875,-9.0,32.75,9.52,0.73,-2.23,moving,10
8.95,27569.709264275,23,3,3,3,3,12.97,1.36,-1.54,3.45,0.57,0.68,-17.1875,2.5625,-21.5625,0.34637451171875,-0.61248779296875,-0.48828125,-0.51617431640625,-23.1875,-9.0,32.75,9.51,0.78,-2.22,moving,10
8.96,27569.71859122,23,3,3,3,3,12.45,1.29,-2.12,2.94,0.47,0.09,-12.875,3.6875,-22.0625,0.3448486328125,-0.61175537109375,-0.48876953125,-0.517578125,-23.1875,-9.0,32.75,9.51,0.82,-2.21,moving,10
8.97,27569.71859122,23,3,3,3,3,12.13,1.23,-2.65,2.62,0.37,-0.43,-2.9375,2.0625,-21.875,0.34381103515625,-0.61083984375,-0.48974609375,-0.5184326171875,-21.75,-9.6875,32.5,9.51,0.86,-2.21,moving,10
8.98,27569.734404127,23,3,3,3,3,11.99,1.18,-3.19,2.48,0.29,-0.96,7.25,-5.3125,-20.875,0.343017578125,-0.6099853515625,-0.4913330078125,-0.51849365234375,-21.75,-9.6875,32.5,9.5,0.89,-2.22,moving,10
8.99,27569.734404127,23,3,3,3,3,11.99,1.05,-3.38,2.49,0.13,-1.13,14.9375,-12.3125,-18.8125,0.34246826171875,-0.6092529296875,-0.493408203125,-0.51776123046875,-21.75,-9.6875,32.5,9.5,0.91,-2.24,moving,10
9.0,27569.769476148,23,3,3,3,3,11.92,1.12,-3.25,2.43,0.18,-0.98,18.9375,-10.6875,-15.0,0.34234619140625,-0.60858154296875,-0.495361328125,-0.51678466796875,-21.75,-9.6875,32.5,9.49,0.93,-2.26,moving,10
9.01,27569.769476148,23,3,3,3,3,11.74,1.1,-3.07,2.25,0.15,-0.79,17.5,-5.1875,-9.75,0.34259033203125,-0.60784912109375,-0.496826171875,-0.51605224609375,-21.75,-9.6875,32.5,9.49,0.94,-2.28,moving,10
9.02,27569.779377678,23,3,3,3,3,11.56,1.01,-2.84,2.07,0.06,-0.55,11.375,-4.6875,-2.875,0.3427734375,-0.607666015625,-0.49755859375,-0.51544189453125,-22.875,-10.75,32.0625,9.48,0.94,-2.29,moving,10
9.03,27569.779377678,23,3,3,3,3,11.27,0.83,-2.33,1.78,-0.09,-0.03,5.3125,-8.875,5.0625,0.3428955078125,-0.60809326171875,-0.497802734375,-0.51458740234375,-22.875,-10.75,32.0625,9.48,0.93,-2.3,moving,10
9.04,27569.790963168,23,3,3,3,3,11.27,0.83,-2.33,1.78,-0.09,-0.03,5.3125,-8.875,5.0625,0.3428955078125,-0.60809326171875,-0.497802734375,-0.51458740234375,-22.875,-10.75,32.0625,9.48,0.93,-2.3,moving,10
9.04,27569.790963168,23,3,3,3,3,11.0,0.7,-2.25,1.52,-0.2,0.06,2.125,-10.875,11.5625,0.34307861328125,-0.60906982421875,-0.49761962890625,-0.5135498046875,-22.875,-10.75,32.0625,9.48,0.91,-2.32,moving,10
9.05,27569.813388135,23,3,3,3,3,10.74,0.62,-2.22,1.26,-0.25,0.11,3.75,-9.4375,16.8125,0.3436279296875,-0.610107421875,-0.4971923828125,-0.51239013671875,-22.875,-10.75,32.0625,9.48,0.88,-2.34,moving,10
9.06,27569.813388135,23,3,3,3,3,10.47,0.6,-2.23,0.99,-0.24,0.11,8.125,-8.25,21.1875,0.34466552734375,-0.61114501953125,-0.49664306640625,-0.51092529296875,-22.875,-10.75,32.0625,9.48,0.84,-2.35,moving,10
9.07,27569.827158928,23,3,3,3,3,10.05,0.64,-2.48,0.57,-0.15,-0.1,12.3125,-8.4375,25.125,0.34600830078125,-0.6123046875,-0.49603271484375,-0.50927734375,-22.5,-10.75,32.5,9.48,0.79,-2.37,moving,10
9.08,27569.827158928,23,3,3,3,3,9.88,0.73,-2.65,0.4,-0.01,-0.26,14.0625,-8.625,29.125,0.34765625,-0.613525390625,-0.49530029296875,-0.50726318359375,-22.5,-10.75,32.5,9.48,0.74,-2.38,moving,10
9.09,27569.860231519,23,3,3,3,3,9.67,0.78,-2.64,0.19,0.09,-0.24,13.75,-4.875,33.4375,0.34967041015625,-0.61480712890625,-0.4942626953125,-0.50543212890625,-22.5,-10.75,32.5,9.48,0.68,-2.39,moving,10
9.1,27569.860231519,23,3,3,3,3,9.39,0.84,-2.56,-0.09,0.22,-0.16,12.4375,4.1875,37.4375,0.3521728515625,-0.6158447265625,-0.49267578125,-0.50396728515625,-22.5,-10.75,32.5,9.49,0.61,-2.39,moving,10
9.11,27569.868971631,23,3,3,3,3,8.9,0.81,-2.41,-0.59,0.27,-0.04,10.5625,12.9375,41.5,0.3551025390625,-0.61669921875,-0.49053955078125,-0.5029296875,-22.5,-10.75,32.5,9.49,0.54,-2.37,moving,10
9.12,27569.868971631,23,3,3,3,3,8.7,0.77,-2.24,-0.8,0.3,0.09,9.9375,17.25,45.3125,0.35845947265625,-0.6175537109375,-0.488037109375,-0.501953125,-21.375,-9.6875,33.5625,9.51,0.46,-2.34,moving,10
9.13,27569.885379306,23,3,3,3,3,8.44,0.75,-1.96,-1.07,0.37,0.34,12.5,19.0,47.375,0.36199951171875,-0.61834716796875,-0.48541259765625,-0.5009765625,-21.375,-9.6875,33.5625,9.52,0.37,-2.31,moving,10
9.14,27569.885379306,23,3,3,3,3,7.88,0.81,-1.63,-1.64,0.52,0.64,14.375,21.125,49.375,0.3658447265625,-0.61907958984375,-0.48272705078125,-0.49993896484375,-21.375,-9.6875,33.5625,9.53,0.29,-2.27,moving,10
9.15,27569.916190259,23,3,3,3,3,7.63,0.84,-1.52,-1.9,0.64,0.71,13.0625,22.5625,51.25,0.36968994140625,-0.61981201171875,-0.47979736328125,-0.49896240234375,-21.375,-9.6875,33.5625,9.54,0.2,-2.24,moving,10
9.16,27569.916190259,23,3,3,3,3,7.36,0.72,-1.46,-2.19,0.61,0.73,8.9375,25.25,52.5625,0.37353515625,-0.62060546875,-0.47650146484375,-0.49822998046875,-21.375,-9.6875,33.5625,9.55,0.1,-2.2,moving,10
9.17,27569.929043979,23,3,3,3,3,7.12,0.52,-1.37,-2.44,0.5,0.77,2.9375,32.5625,53.5625,0.37744140625,-0.62127685546875,-0.47271728515625,-0.49810791015625,-22.0625,-8.6875,33.5625,9.56,0.01,-2.14,moving,10
9.18,27569.929043979,23,3,3,3,3,6.74,0.15,-1.56,-2.83,0.22,0.5,-2.875,45.4375,56.25,0.381591796875,-0.6217041015625,-0.468017578125,-0.49884033203125,-22.0625,-8.6875,33.5625,9.58,-0.07,-2.07,moving,10
9.19,27569.946627353,23,3,3,3,3,6.58,-0.03,-1.62,-3.02,0.13,0.34,-7.3125,60.875,60.5,0.38629150390625,-0.62176513671875,-0.46234130859375,-0.50042724609375,-22.0625,-8.6875,33.5625,9.6,-0.17,-1.96,moving,10
9.2,27569.946627353,23,3,3,3,3,6.38,-0.27,-1.72,-3.24,0.0,0.12,-8.9375,74.0,64.125,0.39154052734375,-0.62139892578125,-0.45599365234375,-0.50262451171875,-22.0625,-8.6875,33.5625,9.62,-0.27,-1.84,moving,10
9.21,27569.961801954,23,3,3,3,3,5.91,-0.63,-1.67,-3.73,-0.24,0.03,-6.8125,79.6875,65.5,0.397216796875,-0.6207275390625,-0.44940185546875,-0.50494384765625,-22.0625,-8.6875,33.5625,9.64,-0.38,-1.71,moving,10
9.22,27569.961801954,23,3,3,3,3,5.75,-0.85,-1.52,-3.91,-0.35,0.05,0.625,78.25,65.1875,0.40338134765625,-0.61962890625,-0.44342041015625,-0.50665283203125,-23.5625,-6.75,33.5625,9.66,-0.49,-1.57,moving,10
9.23,27569.995648878,23,3,3,3,3,5.77,-0.99,-1.48,-3.9,-0.39,-0.02,10.375,72.3125,63.8125,0.4095458984375,-0.61846923828125,-0.4378662109375,-0.5079345703125,-23.5625,-6.75,33.5625,9.67,-0.6,-1.45,moving,10
9.24,27569.995648878,23,3,3,3,3,5.97,-1.1,-1.47,-3.71,-0.39,-0.12,21.0,61.5,62.875,0.41583251953125,-0.61737060546875,-0.4332275390625,-0.5081787109375,-23.5625,-6.75,33.5625,9.68,-0.71,-1.35,moving,10
9.25,27570.004208407,23,3,3,3,3,7.32,-1.29,-2.05,-2.36,-0.46,-0.79,32.125,45.8125,62.375,0.42205810546875,-0.61651611328125,-0.4295654296875,-0.50714111328125,-23.5625,-6.75,33.5625,9.68,-0.83,-1.26,moving,10
9.26,27570.004208407,23,3,3,3,3,8.19,-1.49,-2.46,-1.49,-0.55,-1.25,42.75,27.375,60.25,0.42803955078125,-0.61602783203125,-0.42724609375,-0.5047607421875,-23.5625,-6.75,33.5625,9.68,-0.94,-1.21,moving,10
9.27,27570.038864495,23,3,3,3,3,9.04,-1.55,-2.65,-0.63,-0.5,-1.47,50.5,14.8125,58.3125,0.43408203125,-0.615478515625,-0.42596435546875,-0.5013427734375,-25.75,-5.25,30.5625,9.67,-1.05,-1.18,moving,10
9.28,27570.038864495,23,3,3,3,3,9.8,-1.56,-2.59,0.13,-0.41,-1.44,51.1875,12.875,55.375,0.439697265625,-0.614990234375,-0.42474365234375,-0.49798583984375,-25.75,-5.25,30.5625,9.67,-1.15,-1.15,moving,10
9.29,27570.043411898,23,3,3,3,3,9.8,-1.56,-2.59,0.13,-0.41,-1.44,51.1875,12.875,55.375,0.439697265625,-0.614990234375,-0.42474365234375,-0.49798583984375,-25.75,-5.25,30.5625,9.67,-1.15,-1.15,moving,10
9.29,27570.043411898,23,3,3,3,3,11.02,-1.69,-1.9,1.36,-0.43,-0.78,46.625,13.0,53.9375,0.44500732421875,-0.6146240234375,-0.42340087890625,-0.494873046875,-25.75,-5.25,30.5625,9.66,-1.25,-1.11,moving,10
9.3,27570.063507642,23,3,3,3,3,11.58,-1.76,-1.34,1.93,-0.4,-0.24,40.5625,5.0625,53.875,0.44970703125,-0.61480712890625,-0.42205810546875,-0.4915771484375,-25.75,-5.25,30.5625,9.65,-1.35,-1.1,moving,10
9.31,27570.063507642,23,3,3,3,3,12.18,-1.88,-0.9,2.55,-0.43,0.2,34.25,-13.25,53.0,0.45330810546875,-0.61602783203125,-0.42120361328125,-0.48748779296875,-25.75,-5.25,30.5625,9.63,-1.45,-1.11,moving,10
9.32,27570.079027662,23,3,3,3,3,13.49,-1.93,-0.59,3.88,-0.39,0.57,25.375,-38.0625,52.4375,0.45556640625,-0.61846923828125,-0.4210205078125,-0.48236083984375,-27.5625,-3.1875,29.5,9.61,-1.54,-1.17,moving,10
9.33,27570.079027662,23,3,3,3,3,13.81,-1.98,-0.84,4.23,-0.34,0.42,12.3125,-60.625,51.5625,0.4561767578125,-0.6224365234375,-0.42120361328125,-0.4765625,-27.5625,-3.1875,29.5,9.58,-1.63,-1.27,moving,10
9.34,27570.094802117,23,3,3,3,3,13.61,-2.01,-1.24,4.05,-0.3,0.13,-1.0,-65.4375,49.6875,0.455810546875,-0.62701416015625,-0.4210205078125,-0.47100830078125,-27.5625,-3.1875,29.5,9.55,-1.71,-1.38,moving,10
9.35,27570.094802117,23,3,3,3,3,13.09,-2.07,-1.67,3.56,-0.28,-0.21,-11.8125,-46.5,46.0,0.455322265625,-0.63104248046875,-0.41986083984375,-0.46710205078125,-27.5625,-3.1875,29.5,9.53,-1.78,-1.46,moving,10
9.36,27570.113236483,23,3,3,3,3,12.15,-2.13,-2.12,2.64,-0.28,-0.61,-18.8125,-21.25,41.6875,0.4552001953125,-0.63421630859375,-0.41766357421875,-0.46490478515625,-27.5625,-3.1875,29.5,9.51,-1.85,-1.5,moving,10
9.37,27570.113236483,23,3,3,3,3,11.99,-2.16,-2.24,2.49,-0.24,-0.73,-22.8125,-0.0625,39.5,0.45574951171875,-0.6363525390625,-0.41485595703125,-0.46392822265625,-26.5,-1.0,31.0,9.49,-1.91,-1.51,moving,10
9.38,27570.140302279,23,3,3,3,3,11.8,-2.68,-1.99,2.31,-0.72,-0.48,-11.0625,2.25,29.5625,0.4564208984375,-0.63775634765625,-0.41265869140625,-0.46331787109375,-26.5,-1.0,31.0,9.48,-1.95,-1.51,moving,10
9.39,27570.140302279,23,3,3,3,3,11.32,-2.82,-1.94,1.84,-0.84,-0.41,15.3125,-14.375,14.25,0.45733642578125,-0.63824462890625,-0.4130859375,-0.46136474609375,-26.5,-1.0,31.0,9.48,-1.98,-1.52,moving,10
9.4,27570.153902947,23,3,3,3,3,11.54,-2.25,-1.89,2.07,-0.24,-0.3,34.8125,-42.4375,5.25,0.45794677734375,-0.63873291015625,-0.4158935546875,-0.45751953125,-26.5,-1.0,31.0,9.46,-2.0,-1.58,moving,10
9.41,27570.153902947,23,3,3,3,3,11.6,-1.93,-1.5,2.15,0.07,0.16,35.75,-61.1875,-1.375,0.4576416015625,-0.63970947265625,-0.4197998046875,-0.452880859375,-26.5,-1.0,31.0,9.45,-2.01,-1.67,moving,10
9.42,27570.190107618,23,3,3,3,3,11.64,-1.83,-0.86,2.2,0.16,0.89,24.625,-56.8125,-8.5625,0.4564208984375,-0.640869140625,-0.4232177734375,-0.4493408203125,-25.75,-1.6875,31.0,9.43,-2.0,-1.76,moving,10
9.43,27570.190107618,23,3,3,3,3,11.23,-1.58,0.15,1.8,0.39,1.95,8.125,-28.8125,-13.3125,0.45526123046875,-0.64117431640625,-0.4254150390625,-0.44793701171875,-25.75,-1.6875,31.0,9.43,-1.98,-1.8,moving,10
9.44,27570.199092156,23,3,3,3,3,10.45,-1.79,-0.03,1.01,0.15,1.75,-7.375,12.5625,-18.125,0.45458984375,-0.6402587890625,-0.4256591796875,-0.44964599609375,-25.75,-1.6875,31.0,9.44,-1.95,-1.78,moving,10
9.45,27570.199092156,23,3,3,3,3,9.63,-1.93,-0.41,0.17,-0.02,1.31,-11.8125,37.3125,-26.25,0.45428466796875,-0.6383056640625,-0.4251708984375,-0.45318603515625,-25.75,-1.6875,31.0,9.46,-1.9,-1.73,moving,10
9.46,27570.21451045,23,3,3,3,3,9.05,-1.89,-0.81,-0.42,-0.04,0.86,-7.625,34.1875,-34.875,0.4537353515625,-0.635986328125,-0.42547607421875,-0.456787109375,-25.75,-1.6875,31.0,9.48,-1.84,-1.67,moving,10
9.47,27570.21451045,23,3,3,3,3,8.56,-1.55,-1.63,-0.93,0.21,0.01,-5.6875,16.0,-43.0625,0.45233154296875,-0.63397216796875,-0.427001953125,-0.4595947265625,-24.6875,-0.1875,32.0625,9.5,-1.77,-1.65,moving,10
9.48,27570.232651563,23,3,3,3,3,8.39,-1.52,-2.06,-1.11,0.16,-0.41,-9.875,3.5625,-50.8125,0.44989013671875,-0.63226318359375,-0.42926025390625,-0.462158203125,-24.6875,-0.1875,32.0625,9.51,-1.68,-1.64,moving,10
9.49,27570.232651563,23,3,3,3,3,8.24,-1.58,-2.46,-1.28,0.0,-0.81,-18.125,4.5625,-55.625,0.44677734375,-0.6307373046875,-0.431396484375,-0.46527099609375,-24.6875,-0.1875,32.0625,9.53,-1.59,-1.64,moving,10
9.5,27570.259287428,23,3,3,3,3,7.65,-1.66,-2.92,-1.9,-0.17,-1.3,-26.625,16.9375,-55.0625,0.4437255859375,-0.62896728515625,-0.43267822265625,-0.4693603515625,-24.6875,-0.1875,32.0625,9.55,-1.49,-1.62,moving,10
9.51,27570.259287428,23,3,3,3,3,7.31,-1.56,-2.89,-2.26,-0.17,-1.3,-27.9375,27.125,-54.0,0.44097900390625,-0.62689208984375,-0.43341064453125,-0.47393798828125,-24.6875,-0.1875,32.0625,9.57,-1.39,-1.58,moving,10
9.52,27570.27703226,23,3,3,3,3,7.18,-1.34,-2.67,-2.41,-0.05,-1.11,-18.8125,21.625,-58.6875,0.43841552734375,-0.62451171875,-0.43505859375,-0.47808837890625,-25.0,-0.5625,31.6875,9.59,-1.28,-1.55,moving,10
9.53,27570.27703226,23,3,3,3,3,7.28,-1.05,-2.32,-2.32,0.13,-0.77,-4.5625,0.1875,-63.5625,0.43548583984375,-0.62225341796875,-0.4383544921875,-0.48065185546875,-25.0,-0.5625,31.6875,9.61,-1.18,-1.55,moving,10
9.54,27570.294390333,23,3,3,3,3,7.75,-0.14,-1.43,-1.85,0.93,0.16,2.75,-24.5625,-64.5,0.4320068359375,-0.62066650390625,-0.44287109375,-0.481689453125,-25.0,-0.5625,31.6875,9.61,-1.07,-1.59,moving,10
9.55,27570.294390333,23,3,3,3,3,7.75,-0.14,-1.43,-1.85,0.93,0.16,2.75,-24.5625,-64.5,0.4320068359375,-0.62066650390625,-0.44287109375,-0.481689453125,-25.0,-0.5625,31.6875,9.61,-1.07,-1.59,moving,10
9.55,27570.308369418,23,3,3,3,3,7.91,0.16,-1.15,-1.7,1.13,0.5,-2.5625,-37.625,-63.75,0.42767333984375,-0.619873046875,-0.4476318359375,-0.48211669921875,-25.0,-0.5625,31.6875,9.61,-0.96,-1.66,moving,10
9.56,27570.308369418,23,3,3,3,3,7.91,0.33,-1.15,-1.7,1.19,0.57,-17.4375,-36.0625,-60.3125,0.42279052734375,-0.61968994140625,-0.45147705078125,-0.48309326171875,-25.0,-0.5625,31.6875,9.61,-0.86,-1.72,moving,10
9.57,27570.321602695,23,3,3,3,3,7.74,0.28,-1.26,-1.86,1.04,0.5,-32.25,-29.25,-55.75,0.41754150390625,-0.61993408203125,-0.4542236328125,-0.48480224609375,-26.1875,-2.75,32.0625,9.61,-0.75,-1.77,moving,10
9.58,27570.321602695,23,3,3,3,3,7.41,0.17,-1.53,-2.2,0.83,0.28,-39.6875,-23.3125,-54.125,0.41217041015625,-0.62017822265625,-0.456298828125,-0.48712158203125,-26.1875,-2.75,32.0625,9.61,-0.65,-1.82,moving,10
9.59,27570.355441399,23,3,3,3,3,7.38,0.13,-1.48,-2.23,0.68,0.37,-40.4375,-17.125,-54.5,0.406982421875,-0.62017822265625,-0.4581298828125,-0.48974609375,-26.1875,-2.75,32.0625,9.61,-0.54,-1.85,moving,10
9.6,27570.355441399,23,3,3,3,3,7.3,0.08,-1.19,-2.3,0.52,0.67,-40.1875,-9.4375,-55.375,0.40203857421875,-0.61981201171875,-0.45977783203125,-0.4927978515625,-26.1875,-2.75,32.0625,9.61,-0.44,-1.87,moving,10
9.61,27570.37033829,23,3,3,3,3,7.07,-0.13,-0.67,-2.54,0.2,1.19,-42.75,2.625,-54.8125,0.3974609375,-0.61895751953125,-0.4608154296875,-0.49652099609375,-26.1875,-2.75,32.0625,9.62,-0.33,-1.87,moving,10
9.62,27570.37033829,23,3,3,3,3,7.03,-0.28,-0.56,-2.59,-0.05,1.28,-49.3125,18.25,-53.0625,0.3927001953125,-0.61822509765625,-0.460205078125,-0.50177001953125,-24.6875,-5.6875,32.0625,9.62,-0.23,-1.84,moving,10
9.63,27570.411009229,23,3,3,3,3,7.07,-0.42,-0.63,-2.56,-0.29,1.15,-57.5,30.375,-49.8125,0.38861083984375,-0.61688232421875,-0.4593505859375,-0.50738525390625,-24.6875,-5.6875,32.0625,9.64,-0.13,-1.79,moving,10
9.64,27570.411009229,23,3,3,3,3,7.32,-0.56,-0.94,-2.33,-0.53,0.78,-61.875,37.0,-45.9375,0.38470458984375,-0.615478515625,-0.45782470703125,-0.513427734375,-24.6875,-5.6875,32.0625,9.65,-0.03,-1.73,moving,10
9.65,27570.422831373,23,3,3,3,3,7.96,-0.57,-1.96,-1.69,-0.63,-0.3,-59.3125,39.4375,-42.25,0.3812255859375,-0.61395263671875,-0.45611572265625,-0.519287109375,-24.6875,-5.6875,32.0625,9.66,0.05,-1.66,moving,10
9.66,27570.422831373,23,3,3,3,3,8.49,-0.69,-2.56,-1.17,-0.82,-0.96,-53.1875,42.4375,-39.6875,0.37823486328125,-0.61224365234375,-0.45440673828125,-0.5250244140625,-24.6875,-5.6875,32.0625,9.67,0.13,-1.59,moving,10
9.67,27570.433597608,23,3,3,3,3,9.07,-0.77,-2.84,-0.61,-0.98,-1.32,-48.0,42.625,-38.4375,0.375244140625,-0.61065673828125,-0.452392578125,-0.53070068359375,-26.1875,-7.5,31.25,9.68,0.21,-1.52,moving,10
9.68,27570.433597608,23,3,3,3,3,10.16,-0.9,-2.53,0.46,-1.19,-1.08,-35.75,40.5,-39.0625,0.37310791015625,-0.6083984375,-0.45147705078125,-0.5355224609375,-26.1875,-7.5,31.25,9.69,0.29,-1.45,moving,10
9.69,27570.454433587,23,3,3,3,3,10.66,-0.69,-2.13,0.96,-1.05,-0.74,-13.0625,34.6875,-39.6875,0.3719482421875,-0.6055908203125,-0.45184326171875,-0.5391845703125,-26.1875,-7.5,31.25,9.7,0.36,-1.39,moving,10
9.7,27570.454433587,23,3,3,3,3,11.27,-0.47,-1.75,1.56,-0.9,-0.4,12.4375,23.125,-39.375,0.37164306640625,-0.60260009765625,-0.45379638671875,-0.54119873046875,-26.1875,-7.5,31.25,9.7,0.42,-1.35,moving,10
9.71,27570.469869133,23,3,3,3,3,12.2,-0.2,-1.44,2.5,-0.68,-0.1,29.8125,6.0625,-37.4375,0.3717041015625,-0.599853515625,-0.45697021484375,-0.54150390625,-26.1875,-7.5,31.25,9.7,0.48,-1.34,moving,10
9.72,27570.469869133,23,3,3,3,3,13.53,0.49,-0.25,3.83,-0.03,1.11,35.9375,-12.125,-33.4375,0.37103271484375,-0.59832763671875,-0.46026611328125,-0.54083251953125,-26.1875,-10.0625,29.75,9.69,0.52,-1.36,moving,10
9.73,27570.484161736,23,3,3,3,3,13.8,0.67,-0.17,4.11,0.1,1.22,33.125,-16.0625,-30.25,0.37066650390625,-0.5968017578125,-0.46392822265625,-0.5396728515625,-26.1875,-10.0625,29.75,9.68,0.57,-1.39,moving,10
9.74,27570.484161736,23,3,3,3,3,13.56,0.68,-0.49,3.88,0.07,0.91,22.125,-7.1875,-24.75,0.370361328125,-0.59539794921875,-0.46649169921875,-0.5391845703125,-26.1875,-10.0625,29.75,9.68,0.6,-1.41,moving,10
9.75,27570.514563103,23,3,3,3,3,13.62,0.53,-1.09,3.94,-0.1,0.29,4.4375,17.125,-16.4375,0.37054443359375,-0.59381103515625,-0.46697998046875,-0.5404052734375,-26.1875,-10.0625,29.75,9.68,0.63,-1.38,moving,10
9.76,27570.514563103,23,3,3,3,3,11.6,0.02,-2.06,1.9,-0.61,-0.79,-16.625,66.3125,-0.625,0.372314453125,-0.5911865234375,-0.464111328125,-0.5445556640625,-26.1875,-10.0625,29.75,9.7,0.63,-1.27,moving,10
9.77,27570.530776441,23,3,3,3,3,11.26,-0.15,-2.34,1.55,-0.79,-1.18,-24.875,61.4375,1.0625,0.37353515625,-0.589111328125,-0.46075439453125,-0.5487060546875,-25.0,-10.0625,29.5,9.71,0.64,-1.16,moving,10
9.78,27570.530776441,23,3,3,3,3,11.22,-0.48,-2.05,1.51,-1.13,-0.9,-10.75,4.4375,-4.5625,0.3729248046875,-0.589111328125,-0.4603271484375,-0.54949951171875,-25.0,-10.0625,29.5,9.71,0.65,-1.15,moving,10
9.79,27570.544944776,23,3,3,3,3,11.98,-0.01,-1.98,2.27,-0.66,-0.77,8.1875,-32.875,-1.25,0.37200927734375,-0.59033203125,-0.46185302734375,-0.54754638671875,-25.0,-10.0625,29.5,9.7,0.65,-1.21,moving,10
9.8,27570.544944776,23,3,3,3,3,11.7,0.2,-1.84,2.0,-0.43,-0.57,16.9375,-35.8125,2.0,0.37152099609375,-0.59161376953125,-0.4637451171875,-0.544921875,-25.0,-10.0625,29.5,9.7,0.64,-1.27,moving,10
9.81,27570.580983595,23,3,3,3,3,11.37,0.31,-1.72,1.68,-0.32,-0.37,17.5,-43.375,2.6875,0.37078857421875,-0.59320068359375,-0.4658203125,-0.5418701171875,-25.0,-10.0625,29.5,9.69,0.63,-1.35,moving,10
9.82,27570.580983595,23,3,3,3,3,11.43,0.49,-1.54,1.75,-0.12,-0.1,14.1875,-52.6875,10.0625,0.3697509765625,-0.595703125,-0.467529296875,-0.538330078125,-25.0,-10.5,29.0625,9.68,0.61,-1.44,moving,10
9.83,27570.592461419,23,3,3,3,3,10.99,0.4,-1.08,1.32,-0.17,0.41,8.8125,-35.25,17.25,0.36956787109375,-0.59783935546875,-0.46820068359375,-0.5355224609375,-25.0,-10.5,29.0625,9.67,0.58,-1.5,moving,10
9.84,27570.592461419,23,3,3,3,3,10.99,0.4,-1.08,1.32,-0.17,0.41,8.8125,-35.25,17.25,0.36956787109375,-0.59783935546875,-0.46820068359375,-0.5355224609375,-25.0,-10.5,29.0625,9.67,0.58,-1.5,moving,10
9.84,27570.595572503,23,3,3,3,3,10.49,0.26,-0.87,0.82,-0.28,0.65,10.9375,-15.1875,15.375,0.3702392578125,-0.59881591796875,-0.4683837890625,-0.5338134765625,-25.0,-10.5,29.0625,9.67,0.55,-1.52,moving,10
9.85,27570.595572503,23,3,3,3,3,10.24,0.72,-0.75,0.57,0.2,0.79,20.6875,-13.9375,17.375,0.37158203125,-0.5994873046875,-0.4688720703125,-0.53167724609375,-25.0,-10.5,29.0625,9.66,0.52,-1.55,moving,10
9.86,27570.620299757,23,3,3,3,3,9.7,0.82,-0.74,0.03,0.34,0.83,21.5,-14.875,20.625,0.373046875,-0.600341796875,-0.46929931640625,-0.529296875,-25.0,-10.5,29.0625,9.66,0.47,-1.58,moving,10
9.87,27570.620299757,23,3,3,3,3,9.32,0.68,-0.78,-0.33,0.24,0.8,13.75,-7.8125,19.625,0.3741455078125,-0.60125732421875,-0.4688720703125,-0.52789306640625,-25.0,-10.5,29.75,9.66,0.44,-1.59,moving,10
9.88,27570.634070916,23,3,3,3,3,8.94,0.58,-1.03,-0.73,0.18,0.54,2.1875,10.3125,24.75,0.37579345703125,-0.60174560546875,-0.46734619140625,-0.52752685546875,-25.0,-10.5,29.75,9.67,0.39,-1.57,moving,10
9.89,27570.634070916,23,3,3,3,3,8.63,0.48,-1.34,-1.04,0.14,0.18,-7.25,28.5625,34.375,0.378173828125,-0.60205078125,-0.4642333984375,-0.5281982421875,-25.0,-10.5,29.75,9.68,0.34,-1.52,moving,10
9.9,27570.669899488,23,3,3,3,3,7.93,0.0,-1.68,-1.75,-0.27,-0.21,-9.375,37.5,38.4375,0.3809814453125,-0.6021728515625,-0.46051025390625,-0.52923583984375,-25.0,-10.5,29.75,9.69,0.28,-1.46,moving,10
9.91,27570.669899488,23,3,3,3,3,7.61,-0.17,-1.72,-2.09,-0.38,-0.33,-4.4375,40.8125,39.0625,0.38421630859375,-0.60198974609375,-0.4569091796875,-0.5302734375,-25.0,-10.5,29.75,9.7,0.21,-1.39,moving,10
9.92,27570.67963305,23,3,3,3,3,7.38,-0.22,-1.85,-2.33,-0.37,-0.53,3.9375,42.0625,40.375,0.387939453125,-0.6015625,-0.4534912109375,-0.531005859375,-25.375,-9.375,31.0,9.71,0.14,-1.32,moving,10
9.93,27570.67963305,23,3,3,3,3,7.22,-0.29,-1.85,-2.5,-0.36,-0.59,12.0625,40.3125,41.375,0.39208984375,-0.6009521484375,-0.45050048828125,-0.53118896484375,-25.375,-9.375,31.0,9.72,0.07,-1.25,moving,10
9.94,27570.693810825,23,3,3,3,3,7.16,-0.54,-1.86,-2.56,-0.54,-0.67,18.5625,36.6875,41.8125,0.39642333984375,-0.6002197265625,-0.44793701171875,-0.53094482421875,-25.375,-9.375,31.0,9.73,0.0,-1.19,moving,10
9.95,27570.693810825,23,3,3,3,3,7.24,-0.6,-1.78,-2.49,-0.52,-0.64,22.8125,32.6875,42.125,0.40087890625,-0.59954833984375,-0.44561767578125,-0.53033447265625,-25.375,-9.375,31.0,9.73,-0.07,-1.13,moving,10
9.96,27570.7251254,23,3,3,3,3,7.28,-0.6,-1.6,-2.45,-0.44,-0.51,25.8125,28.8125,42.9375,0.40533447265625,-0.5989990234375,-0.44354248046875,-0.529296875,-25.375,-9.375,31.0,9.74,-0.15,-1.08,moving,10
9.97,27570.7251254,23,3,3,3,3,7.24,-0.48,-1.23,-2.5,-0.24,-0.18,27.75,26.625,43.1875,0.409912109375,-0.59832763671875,-0.4417724609375,-0.52801513671875,-26.875,-7.1875,28.25,9.74,-0.23,-1.04,moving,10
9.98,27570.740343662,23,3,3,3,3,7.15,-0.36,-1.03,-2.59,-0.04,-0.03,28.9375,26.4375,43.4375,0.4144287109375,-0.5977783203125,-0.43988037109375,-0.52667236328125,-26.875,-7.1875,28.25,9.75,-0.31,-0.99,moving,10
9.99,27570.740343662,23,3,3,3,3,7.0,-0.2,-0.81,-2.74,0.18,0.12,30.0625,27.0625,43.375,0.4190673828125,-0.59710693359375,-0.43804931640625,-0.525390625,-26.875,-7.1875,28.25,9.75,-0.39,-0.94,moving,10
10.0,27570.770546298,23,3,3,3,3,6.73,-0.08,-0.6,-3.02,0.38,0.29,31.875,28.25,43.4375,0.42376708984375,-0.5963134765625,-0.4361572265625,-0.52398681640625,-26.875,-7.1875,28.25,9.75,-0.47,-0.89,moving,10
10.01,27570.770546298,23,3,3,3,3,6.06,0.01,-0.48,-3.68,0.56,0.36,32.9375,28.375,42.3125,0.42852783203125,-0.59539794921875,-0.4344482421875,-0.52264404296875,-26.875,-7.1875,28.25,9.75,-0.55,-0.84,moving,10
10.02,27570.78363069,23,3,3,3,3,5.93,-0.04,-0.54,-3.82,0.58,0.25,34.375,27.0,39.1875,0.433349609375,-0.5941162109375,-0.4332275390625,-0.52105712890625,-27.1875,-5.6875,28.6875,9.75,-0.62,-0.79,moving,10
10.03,27570.78363069,23,3,3,3,3,6.02,-0.09,-0.61,-3.72,0.59,0.13,38.5,26.125,36.375,0.43798828125,-0.5928955078125,-0.43206787109375,-0.51959228515625,-27.1875,-5.6875,28.6875,9.75,-0.68,-0.74,moving,10
10.04,27570.798924269,23,3,3,3,3,6.49,-0.09,-0.81,-3.25,0.66,-0.11,43.5625,24.3125,37.6875,0.44287109375,-0.59149169921875,-0.43115234375,-0.51776123046875,-27.1875,-5.6875,28.6875,9.75,-0.75,-0.7,moving,10
10.05,27570.798924269,23,3,3,3,3,8.6,-0.56,-1.82,-1.13,0.27,-1.15,45.0,12.5625,40.1875,0.447509765625,-0.5906982421875,-0.4306640625,-0.51513671875,-27.1875,-5.6875,28.6875,9.74,-0.83,-0.67,moving,10
10.06,27570.813969313,23,3,3,3,3,9.64,-0.88,-2.32,-0.09,0.02,-1.63,42.0,-12.8125,41.5625,0.4510498046875,-0.5911865234375,-0.430908203125,-0.51123046875,-27.1875,-5.6875,28.6875,9.73,-0.9,-0.69,moving,10
10.07,27570.813969313,23,3,3,3,3,10.7,-1.11,-2.8,0.97,-0.12,-2.06,36.1875,-28.0625,42.25,0.45404052734375,-0.59234619140625,-0.43182373046875,-0.5064697265625,-28.375,-3.875,29.0625,9.72,-0.98,-0.73,moving,10
10.08,27570.844854485,23,3,3,3,3,11.77,-1.42,-2.92,2.05,-0.36,-2.16,29.3125,-19.0625,39.4375,0.45660400390625,-0.593505859375,-0.43182373046875,-0.5028076171875,-28.375,-3.875,29.0625,9.71,-1.05,-0.75,moving,10
10.09,27570.844854485,23,3,3,3,3,11.52,-1.41,-2.56,1.81,-0.29,-1.82,25.25,5.625,35.5625,0.45965576171875,-0.59356689453125,-0.43084716796875,-0.50067138671875,-28.375,-3.875,29.0625,9.71,-1.12,-0.74,moving,10
10.1,27570.861471591,23,3,3,3,3,11.52,-1.41,-2.56,1.81,-0.29,-1.82,25.25,5.625,35.5625,0.45965576171875,-0.59356689453125,-0.43084716796875,-0.50067138671875,-28.375,-3.875,29.0625,9.71,-1.12,-0.74,moving,10
10.11,27570.861471591,23,3,3,3,3,11.34,-1.57,-2.01,1.63,-0.39,-1.31,26.0,22.6875,32.5625,0.46331787109375,-0.5927734375,-0.42938232421875,-0.49957275390625,-28.375,-3.875,29.0625,9.71,-1.17,-0.7,moving,10
10.11,27570.875027499,23,3,3,3,3,11.27,-1.84,-1.32,1.56,-0.6,-0.64,28.4375,10.125,29.625,0.4664306640625,-0.59228515625,-0.4287109375,-0.497802734375,-28.375,-3.875,29.0625,9.7,-1.23,-0.67,moving,10
10.12,27570.875027499,23,3,3,3,3,12.11,-2.32,-0.12,2.42,-1.04,0.58,31.6875,-19.625,27.4375,0.46893310546875,-0.59259033203125,-0.429931640625,-0.494140625,-28.0,-1.6875,28.25,9.69,-1.28,-0.7,moving,10
10.13,27570.889927239,23,3,3,3,3,12.64,-2.33,0.33,2.95,-0.99,1.11,34.125,-47.3125,27.9375,0.4700927734375,-0.59423828125,-0.431884765625,-0.4892578125,-28.0,-1.6875,28.25,9.68,-1.33,-0.77,moving,10
10.14,27570.889927239,23,3,3,3,3,12.8,-2.08,0.32,3.13,-0.7,1.19,32.9375,-57.9375,25.4375,0.470703125,-0.5963134765625,-0.434326171875,-0.48394775390625,-28.0,-1.6875,28.25,9.66,-1.38,-0.86,moving,10
10.15,27570.903760003,23,3,3,3,3,12.69,-1.25,-0.9,3.03,0.17,0.04,24.125,-51.5,22.9375,0.470947265625,-0.598388671875,-0.436279296875,-0.4793701171875,-28.0,-1.6875,28.25,9.65,-1.42,-0.94,moving,10
10.16,27570.903760003,23,3,3,3,3,13.08,-1.42,-1.39,3.44,0.04,-0.36,6.0,-50.1875,21.8125,0.47027587890625,-0.60107421875,-0.43743896484375,-0.4755859375,-28.0,-1.6875,28.25,9.64,-1.46,-1.03,moving,10
10.17,27570.934453566,23,3,3,3,3,13.44,-1.66,-1.75,3.81,-0.17,-0.63,-9.4375,-49.875,20.0625,0.46905517578125,-0.60400390625,-0.43841552734375,-0.47216796875,-28.375,-0.5625,31.0,9.62,-1.49,-1.11,moving,10
10.18,27570.934453566,23,3,3,3,3,13.52,-1.73,-1.99,3.91,-0.21,-0.81,-10.1875,-38.3125,15.875,0.46771240234375,-0.60662841796875,-0.438720703125,-0.46990966796875,-28.375,-0.5625,31.0,9.61,-1.52,-1.18,moving,10
10.19,27570.949302727,23,3,3,3,3,13.27,-1.4,-1.92,3.66,0.12,-0.69,0.8125,-24.125,8.25,0.4671630859375,-0.60791015625,-0.4393310546875,-0.46826171875,-28.375,-0.5625,31.0,9.6,-1.53,-1.22,moving,10
10.2,27570.949302727,23,3,3,3,3,12.7,-1.52,-1.47,3.1,0.01,-0.23,8.375,-8.125,1.625,0.46734619140625,-0.60791015625,-0.43994140625,-0.4674072265625,-28.375,-0.5625,31.0,9.6,-1.53,-1.23,moving,10
10.21,27570.965264967,23,3,3,3,3,12.49,-1.34,-0.97,2.89,0.19,0.26,18.125,-3.5625,-5.1875,0.46795654296875,-0.607177734375,-0.44110107421875,-0.46673583984375,-28.375,-0.5625,31.0,9.6,-1.53,-1.23,moving,10
10.22,27570.965264967,23,3,3,3,3,12.22,-0.97,-0.33,2.61,0.55,0.91,19.375,-8.6875,-11.1875,0.4683837890625,-0.6060791015625,-0.443115234375,-0.46575927734375,-27.1875,0.5,31.0,9.6,-1.52,-1.24,moving,10
10.23,27570.99455936,23,3,3,3,3,11.63,-0.85,0.46,2.02,0.64,1.72,6.125,-5.25,-14.6875,0.4678955078125,-0.60546875,-0.4443359375,-0.4658203125,-27.1875,0.5,31.0,9.6,-1.49,-1.25,moving,10
10.24,27570.99455936,23,3,3,3,3,11.05,-1.02,0.32,1.43,0.44,1.56,-17.875,7.1875,-16.9375,0.466552734375,-0.605224609375,-0.4442138671875,-0.46759033203125,-27.1875,0.5,31.0,9.61,-1.46,-1.24,moving,10
10.25,27571.01385831,23,3,3,3,3,10.68,-1.28,-0.02,1.05,0.14,1.19,-41.75,20.0625,-18.0,0.46441650390625,-0.60540771484375,-0.442626953125,-0.47100830078125,-27.1875,0.5,31.0,9.62,-1.42,-1.22,moving,10
10.26,27571.01385831,23,3,3,3,3,9.93,-1.82,-0.98,0.29,-0.44,0.19,-52.875,31.375,-22.0,0.4619140625,-0.60540771484375,-0.44036865234375,-0.4755859375,-27.1875,0.5,31.0,9.63,-1.37,-1.18,moving,10
10.27,27571.02442907,23,3,3,3,3,9.44,-1.86,-1.51,-0.2,-0.54,-0.38,-48.375,41.9375,-26.25,0.45989990234375,-0.6046142578125,-0.43804931640625,-0.480712890625,-26.5,0.0625,31.6875,9.65,-1.32,-1.12,moving,10
10.28,27571.02442907,23,3,3,3,3,8.83,-1.89,-1.98,-0.83,-0.62,-0.92,-33.8125,42.75,-30.9375,0.45843505859375,-0.60296630859375,-0.4365234375,-0.4854736328125,-26.5,0.0625,31.6875,9.66,-1.26,-1.06,moving,10
10.29,27571.054469394,23,3,3,3,3,8.47,-1.93,-2.29,-1.2,-0.73,-1.27,-14.0,26.5625,-35.875,0.4571533203125,-0.60101318359375,-0.436767578125,-0.48883056640625,-26.5,0.0625,31.6875,9.67,-1.2,-1.02,moving,10
10.3,27571.054469394,23,3,3,3,3,8.73,-1.6,-2.06,-0.95,-0.47,-1.05,6.1875,4.5,-45.375,0.45574951171875,-0.598876953125,-0.439208984375,-0.49066162109375,-26.5,0.0625,31.6875,9.68,-1.12,-1.01,moving,10
10.31,27571.06912011,23,3,3,3,3,8.68,-1.24,-1.73,-1.01,-0.2,-0.73,18.625,3.75,-51.5,0.45465087890625,-0.59600830078125,-0.44256591796875,-0.4921875,-26.5,0.0625,31.6875,9.69,-1.04,-1.0,moving,10
10.32,27571.06912011,23,3,3,3,3,8.61,-0.93,-1.41,-1.09,0.02,-0.45,22.125,20.75,-51.0625,0.45428466796875,-0.59234619140625,-0.44525146484375,-0.4945068359375,-28.0,-1.6875,30.5625,9.71,-0.95,-0.96,moving,10
10.33,27571.083573439,23,3,3,3,3,8.14,-0.63,-1.06,-1.58,0.24,-0.17,17.9375,36.875,-47.6875,0.45458984375,-0.588134765625,-0.447021484375,-0.49755859375,-28.0,-1.6875,30.5625,9.72,-0.88,-0.89,moving,10
10.34,27571.083573439,23,3,3,3,3,7.94,-0.52,-0.96,-1.79,0.28,-0.12,9.4375,33.125,-45.9375,0.45440673828125,-0.58453369140625,-0.448486328125,-0.500732421875,-28.0,-1.6875,30.5625,9.73,-0.8,-0.83,moving,10
10.35,27571.113817417,23,3,3,3,3,7.82,-0.45,-0.86,-1.92,0.27,-0.04,3.0,13.375,-44.4375,0.453125,-0.58209228515625,-0.4503173828125,-0.5030517578125,-28.0,-1.6875,30.5625,9.74,-0.73,-0.81,moving,10
10.36,27571.113817417,23,3,3,3,3,7.7,-0.33,-0.89,-2.04,0.32,-0.05,-0.4375,-11.4375,-41.8125,0.4508056640625,-0.5809326171875,-0.452880859375,-0.50408935546875,-28.0,-1.6875,30.5625,9.74,-0.65,-0.83,moving,10
10.37,27571.128895582,23,3,3,3,3,7.46,-0.02,-1.08,-2.28,0.56,-0.19,-3.4375,-33.0,-38.8125,0.4476318359375,-0.58099365234375,-0.45599365234375,-0.50408935546875,-26.875,-2.5,29.75,9.74,-0.59,-0.89,moving,10
10.38,27571.128895582,23,3,3,3,3,7.24,0.03,-1.15,-2.5,0.56,-0.18,-6.0,-47.375,-36.125,0.44384765625,-0.5819091796875,-0.45941162109375,-0.5032958984375,-26.875,-2.5,29.75,9.74,-0.53,-0.97,moving,10
10.39,27571.146555087,23,3,3,3,3,7.24,0.03,-1.15,-2.5,0.56,-0.18,-6.0,-47.375,-36.125,0.44384765625,-0.5819091796875,-0.45941162109375,-0.5032958984375,-26.875,-2.5,29.75,9.74,-0.53,-0.97,moving,10
10.4,27571.146555087,23,3,3,3,3,6.9,0.01,-1.26,-2.82,0.48,-0.19,-6.4375,-56.125,-33.4375,0.43975830078125,-0.583251953125,-0.4630126953125,-0.50201416015625,-26.875,-2.5,29.75,9.73,-0.47,-1.07,moving,10
10.4,27571.157911777,23,3,3,3,3,6.55,-0.04,-1.36,-3.17,0.37,-0.17,-4.5625,-64.9375,-31.0,0.435546875,-0.58502197265625,-0.46685791015625,-0.50006103515625,-26.875,-2.5,29.75,9.72,-0.41,-1.18,moving,10
10.41,27571.157911777,23,3,3,3,3,6.03,-0.17,-1.29,-3.67,0.19,0.01,-1.75,-76.625,-28.6875,0.43109130859375,-0.5872802734375,-0.47113037109375,-0.497314453125,-26.875,-2.5,29.75,9.71,-0.36,-1.31,moving,10
10.42,27571.173643995,23,3,3,3,3,5.9,-0.14,-1.23,-3.78,0.18,0.22,2.6875,-86.875,-27.0625,0.4266357421875,-0.58966064453125,-0.47607421875,-0.49359130859375,-27.1875,-2.75,31.25,9.69,-0.32,-1.45,moving,10
10.43,27571.173643995,23,3,3,3,3,5.82,-0.02,-1.25,-3.84,0.25,0.35,8.6875,-90.25,-25.9375,0.42218017578125,-0.59210205078125,-0.48114013671875,-0.48956298828125,-27.1875,-2.75,31.25,9.66,-0.28,-1.61,moving,10
10.44,27571.204483554,23,3,3,3,3,6.19,0.27,-1.3,-3.44,0.52,0.45,15.9375,-90.1875,-24.375,0.41815185546875,-0.5943603515625,-0.48638916015625,-0.485107421875,-27.1875,-2.75,31.25,9.64,-0.24,-1.76,moving,10
10.45,27571.204483554,23,3,3,3,3,6.83,0.41,-1.35,-2.77,0.62,0.56,22.25,-92.1875,-23.6875,0.41436767578125,-0.59637451171875,-0.491943359375,-0.480224609375,-27.1875,-2.75,31.25,9.61,-0.21,-1.91,moving,10
10.46,27571.220556268,23,3,3,3,3,7.62,0.56,-1.55,-1.95,0.74,0.51,24.375,-96.5625,-25.875,0.410400390625,-0.59844970703125,-0.49774169921875,-0.47503662109375,-27.1875,-2.75,31.25,9.58,-0.17,-2.07,moving,10
10.47,27571.220556268,23,3,3,3,3,8.58,0.65,-1.95,-0.96,0.79,0.27,21.1875,-93.0625,-29.0,0.40618896484375,-0.600341796875,-0.50335693359375,-0.4703369140625,-25.0,-4.6875,31.6875,9.54,-0.13,-2.23,moving,10
10.48,27571.235398756,23,3,3,3,3,10.14,0.82,-3.14,0.62,0.92,-0.78,7.5,-73.5625,-26.375,0.4022216796875,-0.6019287109375,-0.5076904296875,-0.46710205078125,-25.0,-4.6875,31.6875,9.51,-0.09,-2.35,moving,10
10.49,27571.235398756,23,3,3,3,3,10.76,0.81,-3.75,1.26,0.87,-1.33,-10.4375,-36.6875,-21.25,0.399169921875,-0.60284423828125,-0.5096435546875,-0.46636962890625,-25.0,-4.6875,31.6875,9.5,-0.05,-2.41,moving,10
10.5,27571.264661411,23,3,3,3,3,11.08,0.48,-3.64,1.57,0.5,-1.23,-14.25,2.9375,-19.375,0.39776611328125,-0.60235595703125,-0.510009765625,-0.46783447265625,-25.0,-4.6875,31.6875,9.5,-0.01,-2.41,moving,10
10.51,27571.264661411,23,3,3,3,3,13.41,0.6,1.31,3.89,0.58,3.66,3.4375,32.5,-24.0,0.3984375,-0.599853515625,-0.51025390625,-0.47021484375,-25.0,-4.6875,31.6875,9.51,0.01,-2.35,moving,10
10.52,27571.281139113,23,3,3,3,3,14.7,1.71,1.39,5.14,1.65,3.61,-8.25,81.3125,-21.6875,0.4005126953125,-0.59600830078125,-0.5079345703125,-0.47576904296875,-22.875,-5.0,33.5625,9.55,0.05,-2.22,moving,10
10.53,27571.281139113,23,3,3,3,3,13.8,0.98,0.58,4.2,0.9,2.59,-55.8125,130.75,-1.25,0.4033203125,-0.5924072265625,-0.5010986328125,-0.48504638671875,-22.875,-5.0,33.5625,9.59,0.08,-2.0,moving,10
10.54,27571.294583733,23,3,3,3,3,12.89,-0.77,-0.71,3.25,-0.87,1.08,-73.5,114.625,4.0625,0.4046630859375,-0.59033203125,-0.49371337890625,-0.4940185546875,-22.875,-5.0,33.5625,9.63,0.09,-1.8,moving,10
10.55,27571.294583733,23,3,3,3,3,12.47,-1.64,-2.5,2.82,-1.77,-0.78,-60.125,50.875,-7.125,0.4034423828125,-0.58990478515625,-0.48968505859375,-0.49945068359375,-22.875,-5.0,33.5625,9.65,0.12,-1.72,moving,10
10.56,27571.323872511,23,3,3,3,3,12.65,-1.1,-3.21,2.99,-1.26,-1.48,-33.0625,-2.875,-9.9375,0.40118408203125,-0.59075927734375,-0.4888916015625,-0.5010986328125,-22.875,-5.0,33.5625,9.65,0.15,-1.72,moving,10
10.57,27571.323872511,23,3,3,3,3,12.58,-0.63,-3.52,2.93,-0.81,-1.76,-8.0,-18.6875,-12.75,0.39886474609375,-0.591796875,-0.48919677734375,-0.50128173828125,-24.0,-5.6875,32.5,9.64,0.18,-1.75,moving,10
10.58,27571.338325473,23,3,3,3,3,12.44,-0.37,-3.57,2.79,-0.57,-1.8,4.4375,-8.3125,-16.0,0.3980712890625,-0.59136962890625,-0.49053955078125,-0.501220703125,-24.0,-5.6875,32.5,9.64,0.2,-1.77,moving,10
10.59,27571.338325473,23,3,3,3,3,12.41,-0.09,-3.19,2.77,-0.31,-1.43,3.375,6.8125,-11.5625,0.39801025390625,-0.5904541015625,-0.49102783203125,-0.5018310546875,-24.0,-5.6875,32.5,9.64,0.22,-1.75,moving,10
10.6,27571.353805088,23,3,3,3,3,12.32,-0.19,-2.62,2.67,-0.43,-0.87,-5.4375,7.125,-6.0,0.39776611328125,-0.59002685546875,-0.4908447265625,-0.502685546875,-24.0,-5.6875,32.5,9.64,0.23,-1.74,moving,10
10.61,27571.353805088,23,3,3,3,3,12.11,-0.23,-2.05,2.46,-0.47,-0.3,-13.0625,-0.25,-1.375,0.39703369140625,-0.5904541015625,-0.4903564453125,-0.5032958984375,-24.0,-5.6875,32.5,9.64,0.24,-1.74,moving,10
10.62,27571.383667596,23,3,3,3,3,11.53,-0.15,-1.42,1.88,-0.39,0.32,-16.9375,-2.625,2.6875,0.39617919921875,-0.59124755859375,-0.48956298828125,-0.5037841796875,-25.0,-6.0625,31.25,9.64,0.24,-1.75,moving,10
10.63,27571.383667596,23,3,3,3,3,11.18,-0.06,-1.15,1.53,-0.3,0.59,-19.3125,4.5625,5.875,0.3956298828125,-0.59197998046875,-0.48822021484375,-0.504638671875,-25.0,-6.0625,31.25,9.64,0.23,-1.74,moving,10
10.64,27571.395261427,23,3,3,3,3,11.18,-0.06,-1.15,1.53,-0.3,0.59,-19.3125,4.5625,5.875,0.3956298828125,-0.59197998046875,-0.48822021484375,-0.504638671875,-25.0,-6.0625,31.25,9.64,0.23,-1.74,moving,10
10.65,27571.395261427,23,3,3,3,3,10.85,-0.33,-0.91,1.2,-0.57,0.81,-19.0625,7.3125,7.3125,0.395263671875,-0.5926513671875,-0.48675537109375,-0.50555419921875,-25.0,-6.0625,31.25,9.65,0.23,-1.72,moving,10
10.65,27571.414871372,23,3,3,3,3,10.69,-0.38,-0.77,1.04,-0.6,0.93,-18.9375,8.5625,7.0625,0.39495849609375,-0.59320068359375,-0.48529052734375,-0.506591796875,-25.0,-6.0625,31.25,9.65,0.22,-1.71,moving,10
10.66,27571.414871372,23,3,3,3,3,10.36,-0.26,-0.6,0.7,-0.48,1.07,-17.625,15.5,5.3125,0.39495849609375,-0.5933837890625,-0.483642578125,-0.5079345703125,-25.0,-6.0625,31.25,9.65,0.22,-1.68,moving,10
10.67,27571.429882846,23,3,3,3,3,10.16,-0.3,-0.7,0.49,-0.52,0.93,-20.25,29.9375,8.1875,0.39520263671875,-0.5933837890625,-0.48089599609375,-0.51031494140625,-24.375,-7.5,32.0625,9.66,0.21,-1.63,moving,10
