timestamp,android_nano_timestamp,temperature,calib_mag,calib_accel,calib_gyro,calib_sys,acc_x,acc_y,acc_z,lacc_x,lacc_y,lacc_z,gyro_x,gyro_y,gyro_z,quat_w,quat_x,quat_y,quat_z,mag_x,mag_y,mag_z,gravity_x,gravity_y,gravity_z,label,person
0.94,0.913014039,27,3,3,3,0,-8.43,3.66,3.39,0.16,0.18,0.21,3.0625,1.3125,0.0625,0.7877197265625,0.34600830078125,0.4671630859375,-0.20379638671875,16.25,-19.375,17.6875,-8.6,3.47,3.17,Climbing Up,4
0.95,0.913014039,27,3,3,3,0,-8.43,3.71,3.4,0.16,0.22,0.22,3.4375,1.5,0.5,0.78765869140625,0.3463134765625,0.467041015625,-0.203857421875,16.25,-19.375,17.6875,-8.59,3.48,3.17,Climbing Up,4
0.96,0.914968303,27,3,3,3,0,-8.44,3.72,3.39,0.15,0.23,0.22,4.0625,1.625,0.4375,0.78753662109375,0.34661865234375,0.46697998046875,-0.20391845703125,14.875,-18.25,17.6875,-8.59,3.48,3.17,Climbing Up,4
0.97,0.914968303,27,3,3,3,0,-8.39,3.73,3.4,0.2,0.24,0.23,4.5625,1.8125,0.625,0.78741455078125,0.3470458984375,0.46685791015625,-0.20391845703125,14.875,-18.25,17.6875,-8.59,3.49,3.17,Climbing Up,4
0.98,0.92191093,27,3,3,3,0,-8.38,3.72,3.35,0.21,0.22,0.19,4.9375,2.125,0.6875,0.78729248046875,0.34747314453125,0.46673583984375,-0.2039794921875,14.875,-18.25,17.6875,-8.59,3.49,3.16,Climbing Up,4
0.99,0.92191093,27,3,3,3,0,-8.38,3.7,3.37,0.21,0.19,0.21,4.875,2.5,0.8125,0.78717041015625,0.347900390625,0.46661376953125,-0.2039794921875,14.875,-18.25,17.6875,-8.59,3.5,3.16,Climbing Up,4
1.0,0.952468222,27,3,3,3,0,-8.35,3.69,3.37,0.23,0.18,0.21,4.375,2.5625,1.1875,0.78704833984375,0.34832763671875,0.466552734375,-0.20391845703125,14.875,-18.25,17.6875,-8.59,3.51,3.15,Climbing Up,4
1.01,0.952468222,27,3,3,3,0,-8.37,3.7,3.33,0.21,0.18,0.18,4.0625,2.8125,1.5625,0.78692626953125,0.3487548828125,0.4664306640625,-0.203857421875,15.875,-19.0625,16.875,-8.59,3.51,3.15,Climbing Up,4
1.02,0.966308106,27,3,3,3,0,-8.42,3.73,3.31,0.16,0.2,0.16,3.4375,2.75,2.0625,0.78680419921875,0.34912109375,0.46636962890625,-0.20367431640625,15.875,-19.0625,16.875,-8.59,3.52,3.14,Climbing Up,4
1.03,0.966308106,27,3,3,3,0,-8.44,3.74,3.29,0.14,0.21,0.15,3.5,2.9375,2.5,0.78668212890625,0.34954833984375,0.46636962890625,-0.20355224609375,15.875,-19.0625,16.875,-8.59,3.53,3.14,Climbing Up,4
1.04,0.982160971,27,3,3,3,0,-8.45,3.74,3.28,0.12,0.2,0.14,3.875,2.9375,2.75,0.78656005859375,0.35003662109375,0.46630859375,-0.203369140625,15.875,-19.0625,16.875,-8.58,3.54,3.13,Climbing Up,4
1.05,0.982160971,27,3,3,3,0,-8.46,3.73,3.25,0.12,0.18,0.12,4.875,2.6875,2.875,0.786376953125,0.3505859375,0.46624755859375,-0.2032470703125,15.875,-19.0625,16.875,-8.58,3.54,3.13,Climbing Up,4
1.06,1.017707601,27,3,3,3,0,-8.3,3.59,3.23,0.28,0.03,0.11,5.625,2.5625,2.5,0.78619384765625,0.35113525390625,0.46612548828125,-0.20318603515625,15.875,-19.375,18.5,-8.58,3.55,3.12,Climbing Up,4
1.07,1.017707601,27,3,3,3,0,-8.23,3.45,3.24,0.35,-0.1,0.12,6.4375,3.25,2.25,0.7860107421875,0.3516845703125,0.46612548828125,-0.20318603515625,15.875,-19.375,18.5,-8.58,3.56,3.11,Climbing Up,4
1.08,1.026885173,27,3,3,3,0,-8.11,3.34,3.19,0.47,-0.22,0.08,7.0,3.6875,1.8125,0.78564453125,0.352294921875,0.4661865234375,-0.2032470703125,15.875,-19.375,18.5,-8.58,3.57,3.1,Climbing Up,4
1.09,1.026885173,27,3,3,3,0,-7.89,3.05,3.06,0.69,-0.52,-0.03,7.4375,3.0625,1.25,0.78533935546875,0.35296630859375,0.4661865234375,-0.20330810546875,15.875,-19.375,18.5,-8.58,3.57,3.1,Climbing Up,4
1.1,1.04158545,27,3,3,3,0,-7.81,2.85,2.91,0.77,-0.72,-0.17,8.0625,2.4375,0.4375,0.78497314453125,0.353515625,0.4661865234375,-0.20361328125,15.875,-19.375,18.5,-8.58,3.58,3.09,Climbing Up,4
1.11,1.04158545,27,3,3,3,0,-7.79,2.65,2.78,0.79,-0.92,-0.3,8.6875,1.875,-0.375,0.78466796875,0.35418701171875,0.4661865234375,-0.203857421875,15.1875,-19.0625,18.875,-8.59,3.58,3.08,Climbing Up,4
1.12,1.072137818,27,3,3,3,0,-7.78,2.54,2.61,0.8,-1.04,-0.45,9.125,2.1875,-1.5,0.78424072265625,0.354736328125,0.4661865234375,-0.20428466796875,15.1875,-19.0625,18.875,-8.59,3.58,3.07,Climbing Up,4
1.13,1.072137818,27,3,3,3,0,-8.09,2.38,2.42,0.49,-1.21,-0.63,9.8125,3.0625,-2.25,0.7838134765625,0.35540771484375,0.46630859375,-0.20477294921875,15.1875,-19.0625,18.875,-8.59,3.59,3.06,Climbing Up,4
1.14,1.08703296,27,3,3,3,0,-8.26,2.3,2.44,0.33,-1.28,-0.6,11.625,4.6875,-3.25,0.783203125,0.35614013671875,0.46649169921875,-0.205322265625,15.1875,-19.0625,18.875,-8.6,3.59,3.05,Climbing Up,4
1.15,1.08703296,27,3,3,3,0,-8.45,2.35,2.48,0.14,-1.24,-0.54,14.3125,6.125,-3.8125,0.78240966796875,0.3570556640625,0.466796875,-0.2059326171875,15.1875,-19.0625,18.875,-8.6,3.59,3.03,Climbing Up,4
1.16,1.101197917,27,3,3,3,0,-8.67,2.4,2.58,-0.06,-1.19,-0.42,17.625,7.625,-4.375,0.781494140625,0.35821533203125,0.4671630859375,-0.20672607421875,15.875,-19.75,18.0625,-8.61,3.59,3.0,Climbing Up,4
1.17,1.101197917,27,3,3,3,0,-9.02,2.53,3.07,-0.4,-1.06,0.09,22.1875,10.0625,-5.125,0.7802734375,0.3597412109375,0.46759033203125,-0.20770263671875,15.875,-19.75,18.0625,-8.62,3.6,2.98,Climbing Up,4
1.18,1.131391439,27,3,3,3,0,-9.14,2.65,3.37,-0.51,-0.95,0.43,26.8125,13.1875,-5.6875,0.77880859375,0.361572265625,0.4681396484375,-0.208740234375,15.875,-19.75,18.0625,-8.63,3.6,2.94,Climbing Up,4
1.19,1.131391439,27,3,3,3,0,-9.32,2.77,3.49,-0.68,-0.83,0.59,30.1875,16.125,-6.0,0.777099609375,0.3636474609375,0.4688720703125,-0.20989990234375,15.875,-19.75,18.0625,-8.64,3.61,2.9,Climbing Up,4
1.2,1.146721355,27,3,3,3,0,-9.44,2.94,3.54,-0.78,-0.66,0.69,32.5,18.5625,-6.5625,0.775146484375,0.36590576171875,0.46978759765625,-0.2110595703125,15.875,-19.75,18.0625,-8.65,3.61,2.85,Climbing Up,4
1.21,1.146721355,27,3,3,3,0,-9.81,3.34,3.76,-1.14,-0.27,0.95,32.5625,18.75,-6.375,0.77325439453125,0.3681640625,0.47064208984375,-0.2122802734375,15.875,-19.75,18.875,-8.67,3.62,2.8,Climbing Up,4
1.22,1.163122234,27,3,3,3,0,-9.97,3.68,3.98,-1.29,0.05,1.22,32.3125,19.375,-6.125,0.77130126953125,0.3704833984375,0.4715576171875,-0.21337890625,15.875,-19.75,18.875,-8.68,3.63,2.75,Climbing Up,4
1.23,1.163122234,27,3,3,3,0,-10.11,3.96,4.22,-1.41,0.33,1.51,31.5,20.3125,-5.375,0.76934814453125,0.37274169921875,0.47247314453125,-0.21441650390625,15.875,-19.75,18.875,-8.69,3.63,2.7,Climbing Up,4
1.24,1.192016846,27,3,3,3,0,-10.14,4.14,4.46,-1.43,0.5,1.81,30.6875,20.0,-4.4375,0.76739501953125,0.375,0.473388671875,-0.21533203125,15.875,-19.75,18.875,-8.7,3.64,2.65,Climbing Up,4
1.25,1.192016846,27,3,3,3,0,-10.05,4.38,4.75,-1.34,0.73,2.14,30.1875,18.0625,-2.9375,0.765625,0.377197265625,0.47412109375,-0.2161865234375,15.875,-19.75,18.875,-8.71,3.65,2.6,Climbing Up,4
1.26,1.206959107,27,3,3,3,0,-9.78,4.29,4.89,-1.05,0.62,2.33,30.4375,14.75,-1.875,0.76397705078125,0.37939453125,0.474609375,-0.21710205078125,15.875,-19.375,20.0,-8.72,3.66,2.56,Climbing Up,4
1.27,1.206959107,27,3,3,3,0,-9.47,4.19,4.85,-0.74,0.51,2.32,30.125,11.1875,-1.3125,0.76251220703125,0.381591796875,0.474853515625,-0.21807861328125,15.875,-19.375,20.0,-8.73,3.67,2.52,Climbing Up,4
1.28,1.221600017,27,3,3,3,0,-9.02,3.91,4.35,-0.29,0.22,1.85,29.3125,8.25,-0.5,0.76116943359375,0.3836669921875,0.47479248046875,-0.218994140625,15.875,-19.375,20.0,-8.73,3.68,2.49,Climbing Up,4
1.29,1.221600017,27,3,3,3,0,-8.86,3.78,4.05,-0.12,0.08,1.58,28.0,6.5,0.5,0.75994873046875,0.3856201171875,0.47467041015625,-0.219970703125,15.875,-19.375,20.0,-8.73,3.7,2.47,Climbing Up,4
1.3,1.252290894,27,3,3,3,0,-8.75,3.65,3.84,-0.01,-0.05,1.4,26.1875,5.8125,1.75,0.7589111328125,0.3875732421875,0.4744873046875,-0.220703125,15.875,-19.375,20.0,-8.74,3.71,2.44,Climbing Up,4
1.31,1.252290894,27,3,3,3,0,-8.63,3.59,3.63,0.1,-0.13,1.21,23.9375,6.8125,2.1875,0.75787353515625,0.38934326171875,0.47442626953125,-0.2213134765625,15.1875,-18.25,22.375,-8.74,3.72,2.41,Climbing Up,4
1.32,1.266733358,27,3,3,3,0,-8.55,3.37,3.5,0.18,-0.36,1.11,21.625,7.9375,2.5,0.7568359375,0.39105224609375,0.47442626953125,-0.2218017578125,15.1875,-18.25,22.375,-8.74,3.74,2.39,Climbing Up,4
1.33,1.266733358,27,3,3,3,0,-8.48,3.33,3.37,0.25,-0.41,1.0,19.75,8.3125,2.6875,0.755859375,0.392578125,0.4744873046875,-0.22216796875,15.1875,-18.25,22.375,-8.74,3.75,2.36,Climbing Up,4
1.34,1.281392457,27,3,3,3,0,-8.46,3.28,3.28,0.28,-0.48,0.94,18.4375,8.75,3.4375,0.75494384765625,0.39410400390625,0.474609375,-0.222412109375,15.1875,-18.25,22.375,-8.74,3.76,2.34,Climbing Up,4
1.35,1.281392457,27,3,3,3,0,-8.37,3.2,3.21,0.37,-0.57,0.9,18.0625,9.125,4.0625,0.7540283203125,0.3956298828125,0.47467041015625,-0.22259521484375,15.1875,-18.25,22.375,-8.74,3.77,2.31,Climbing Up,4
1.36,1.312158244,27,3,3,3,0,-8.3,3.23,3.09,0.44,-0.56,0.8,18.125,9.5,4.5625,0.75311279296875,0.39715576171875,0.47479248046875,-0.22271728515625,15.1875,-19.375,22.375,-8.74,3.79,2.29,Climbing Up,4
1.37,1.312158244,27,3,3,3,0,-8.26,3.27,3.06,0.48,-0.53,0.8,18.5625,10.0625,5.0625,0.752197265625,0.3988037109375,0.47491455078125,-0.2227783203125,15.1875,-19.375,22.375,-8.74,3.8,2.26,Climbing Up,4
1.38,1.327308717,27,3,3,3,0,-8.23,3.33,3.02,0.51,-0.49,0.78,19.1875,10.9375,5.25,0.75115966796875,0.40045166015625,0.47503662109375,-0.222900390625,15.1875,-19.375,22.375,-8.74,3.82,2.23,Climbing Up,4
1.39,1.327308717,27,3,3,3,0,-8.21,3.36,2.96,0.53,-0.47,0.75,19.0625,11.5625,5.625,0.7501220703125,0.40216064453125,0.4752197265625,-0.222900390625,15.1875,-19.375,22.375,-8.75,3.83,2.2,Climbing Up,4
1.4,1.341191326,27,3,3,3,0,-8.23,3.44,2.78,0.51,-0.41,0.6,18.0625,12.5,6.0625,0.7491455078125,0.40380859375,0.4754638671875,-0.22283935546875,15.1875,-19.375,22.375,-8.75,3.85,2.17,Climbing Up,4
1.41,1.341191326,27,3,3,3,0,-8.28,3.51,2.66,0.46,-0.35,0.52,16.3125,13.375,6.0625,0.74810791015625,0.4053955078125,0.475830078125,-0.22259521484375,14.875,-19.375,23.5625,-8.75,3.87,2.14,Climbing Up,4
1.42,1.373203858,27,3,3,3,0,-8.3,3.56,2.6,0.44,-0.31,0.49,13.5625,14.1875,5.9375,0.7471923828125,0.40679931640625,0.47625732421875,-0.2222900390625,14.875,-19.375,23.5625,-8.75,3.88,2.11,Climbing Up,4
1.43,1.373203858,27,3,3,3,0,-8.35,3.63,2.61,0.39,-0.25,0.53,10.9375,15.1875,5.4375,0.74627685546875,0.40802001953125,0.476806640625,-0.22186279296875,14.875,-19.375,23.5625,-8.75,3.89,2.08,Climbing Up,4
1.44,1.386717408,27,3,3,3,0,-8.33,3.7,2.57,0.42,-0.2,0.52,8.375,15.75,5.0625,0.74542236328125,0.4090576171875,0.47747802734375,-0.2213134765625,14.875,-19.375,23.5625,-8.75,3.9,2.05,Climbing Up,4
1.45,1.386717408,27,3,3,3,0,-8.28,3.73,2.61,0.47,-0.18,0.58,6.9375,17.0,4.5625,0.74456787109375,0.4100341796875,0.478271484375,-0.220703125,14.875,-19.375,23.5625,-8.75,3.91,2.02,Climbing Up,4
1.46,1.40152177,27,3,3,3,0,-8.2,3.74,2.6,0.55,-0.18,0.61,5.9375,17.5625,4.25,0.74371337890625,0.410888671875,0.4791259765625,-0.2200927734375,15.875,-18.25,24.375,-8.76,3.92,1.99,Climbing Up,4
1.47,1.40152177,27,3,3,3,0,-8.01,3.72,2.54,0.74,-0.2,0.56,5.0,17.8125,3.9375,0.7435302734375,0.4112548828125,0.4793701171875,-0.21954345703125,15.875,-18.25,24.375,-8.76,3.93,1.98,Climbing Up,4
1.48,1.431545492,27,3,3,3,0,-7.9,3.69,2.56,0.85,-0.24,0.61,3.625,18.375,3.5,0.74273681640625,0.41192626953125,0.4803466796875,-0.21881103515625,15.875,-18.25,24.375,-8.76,3.93,1.95,Climbing Up,4
1.49,1.431545492,27,3,3,3,0,-7.8,3.61,2.61,0.96,-0.32,0.69,2.5,19.4375,3.0,0.74188232421875,0.41259765625,0.4814453125,-0.218017578125,15.875,-18.25,24.375,-8.77,3.94,1.92,Climbing Up,4
1.5,1.446710857,27,3,3,3,0,-7.68,3.58,2.54,1.09,-0.36,0.65,0.625,21.375,2.0625,0.74102783203125,0.41314697265625,0.48272705078125,-0.2171630859375,15.875,-18.25,24.375,-8.77,3.94,1.88,Climbing Up,4
1.51,1.446710857,27,3,3,3,0,-7.52,3.47,2.62,1.26,-0.47,0.76,-0.9375,22.25,1.25,0.74017333984375,0.41351318359375,0.484130859375,-0.21624755859375,16.0,-19.1875,24.5625,-8.78,3.94,1.85,Climbing Up,4
1.52,1.461290528,27,3,3,3,0,-7.49,3.46,2.67,1.29,-0.48,0.85,-2.6875,22.875,0.0,0.73931884765625,0.41375732421875,0.48565673828125,-0.21533203125,16.0,-19.1875,24.5625,-8.78,3.94,1.82,Climbing Up,4
1.53,1.461290528,27,3,3,3,0,-7.53,3.44,2.68,1.26,-0.5,0.89,-4.625,22.5,-1.125,0.738525390625,0.413818359375,0.48724365234375,-0.21435546875,16.0,-19.1875,24.5625,-8.79,3.94,1.79,Climbing Up,4
1.54,1.491410483,27,3,3,3,0,-7.56,3.37,2.72,1.24,-0.56,0.96,-6.375,21.375,-1.875,0.73779296875,0.4136962890625,0.48876953125,-0.21343994140625,16.0,-19.1875,24.5625,-8.8,3.94,1.76,Climbing Up,4
1.55,1.491410483,27,3,3,3,0,-7.78,3.27,2.71,1.03,-0.65,0.97,-8.4375,20.3125,-2.0,0.73724365234375,0.4134521484375,0.49029541015625,-0.2125244140625,16.0,-19.1875,24.5625,-8.81,3.93,1.73,Climbing Up,4
1.56,1.506934368,27,3,3,3,0,-7.89,3.19,2.78,0.92,-0.72,1.06,-10.8125,18.75,-2.125,0.73681640625,0.4129638671875,0.49176025390625,-0.21148681640625,14.1875,-19.5,25.0625,-8.81,3.92,1.71,Climbing Up,4
1.57,1.506934368,27,3,3,3,0,-8.01,3.16,2.81,0.8,-0.75,1.11,-13.1875,18.0625,-2.0,0.73651123046875,0.412353515625,0.49322509765625,-0.21044921875,14.1875,-19.5,25.0625,-8.82,3.92,1.7,Climbing Up,4
1.58,1.521082927,27,3,3,3,0,-8.52,3.14,3.0,0.31,-0.77,1.32,-14.6875,18.875,-1.625,0.7362060546875,0.41168212890625,0.4947509765625,-0.209228515625,14.1875,-19.5,25.0625,-8.83,3.91,1.68,Climbing Up,4
1.59,1.521082927,27,3,3,3,0,-8.88,3.1,3.19,-0.04,-0.79,1.53,-15.1875,20.5625,-2.125,0.73583984375,0.41094970703125,0.49639892578125,-0.2080078125,14.1875,-19.5,25.0625,-8.84,3.9,1.66,Climbing Up,4
1.6,1.551581991,27,3,3,3,0,-9.29,3.07,3.37,-0.44,-0.81,1.73,-14.9375,21.5,-2.625,0.73541259765625,0.41021728515625,0.4981689453125,-0.20672607421875,14.1875,-19.5,25.0625,-8.84,3.89,1.63,Climbing Up,4
1.61,1.551581991,27,3,3,3,0,-9.65,2.95,3.71,-0.79,-0.93,2.09,-14.3125,21.3125,-3.5,0.73492431640625,0.4095458984375,0.4998779296875,-0.20556640625,13.5,-19.875,26.5625,-8.85,3.88,1.61,Climbing Up,4
1.62,1.567098227,27,3,3,3,0,-9.88,2.89,4.26,-1.01,-0.97,2.67,-13.25,19.625,-4.9375,0.7344970703125,0.4088134765625,0.50152587890625,-0.20465087890625,13.5,-19.875,26.5625,-8.86,3.87,1.59,Climbing Up,4
1.63,1.567098227,27,3,3,3,0,-9.83,2.92,4.18,-0.96,-0.94,2.6,-13.0,19.9375,-5.625,0.7340087890625,0.40802001953125,0.50323486328125,-0.2037353515625,13.5,-19.875,26.5625,-8.87,3.86,1.57,Climbing Up,4
1.64,1.59762671,27,3,3,3,0,-10.15,3.08,3.98,-1.26,-0.76,2.43,-13.8125,23.0625,-6.0625,0.7333984375,0.40728759765625,0.50518798828125,-0.20269775390625,13.5,-19.875,26.5625,-8.88,3.84,1.54,Climbing Up,4
1.65,1.59762671,27,3,3,3,0,-10.36,3.17,4.02,-1.46,-0.65,2.5,-15.25,26.8125,-7.0625,0.73260498046875,0.40643310546875,0.50738525390625,-0.2015380859375,13.5,-19.875,26.5625,-8.89,3.83,1.51,Climbing Up,4
1.66,1.611231487,27,3,3,3,0,-11.26,3.26,4.71,-2.35,-0.55,3.23,-15.375,32.5625,-6.375,0.73162841796875,0.40570068359375,0.50994873046875,-0.20013427734375,14.5625,-20.25,26.5625,-8.91,3.82,1.47,Climbing Up,4
1.67,1.611231487,27,3,3,3,0,-12.02,3.34,5.09,-3.1,-0.45,3.66,-14.8125,39.0,-6.3125,0.7303466796875,0.4051513671875,0.51287841796875,-0.19854736328125,14.5625,-20.25,26.5625,-8.92,3.8,1.42,Climbing Up,4
1.68,1.626924114,27,3,3,3,0,-12.71,3.3,5.39,-3.77,-0.48,4.02,-12.3125,43.5,-6.1875,0.728759765625,0.40478515625,0.51605224609375,-0.19683837890625,14.5625,-20.25,26.5625,-8.93,3.79,1.36,Climbing Up,4
1.69,1.626924114,27,3,3,3,0,-13.2,3.3,5.68,-4.24,-0.47,4.36,-8.75,40.75,-5.75,0.72711181640625,0.40460205078125,0.51898193359375,-0.19537353515625,14.5625,-20.25,26.5625,-8.95,3.78,1.31,Climbing Up,4
1.7,1.658392335,27,3,3,3,0,-13.86,3.39,6.0,-4.9,-0.37,4.72,-6.1875,29.0,-3.9375,0.72601318359375,0.40447998046875,0.52105712890625,-0.1943359375,14.5625,-20.25,26.5625,-8.96,3.77,1.27,Climbing Up,4
1.71,1.658392335,27,3,3,3,0,-14.06,3.63,5.83,-5.1,-0.12,4.58,-5.875,15.125,-1.6875,0.72552490234375,0.404296875,0.52215576171875,-0.19366455078125,12.0625,-21.0625,27.25,-8.96,3.76,1.25,Climbing Up,4
1.72,1.671981528,27,3,3,3,0,-14.12,3.84,5.66,-5.16,0.07,4.4,-8.5,2.3125,0.6875,0.72576904296875,0.40374755859375,0.52239990234375,-0.19317626953125,12.0625,-21.0625,27.25,-8.96,3.76,1.25,Climbing Up,4
1.73,1.671981528,27,3,3,3,0,-14.26,4.02,5.4,-5.3,0.25,4.12,-12.375,-8.4375,3.875,0.7266845703125,0.4029541015625,0.52191162109375,-0.19268798828125,12.0625,-21.0625,27.25,-8.96,3.77,1.27,Climbing Up,4
1.74,1.686245037,27,3,3,3,0,-14.11,3.96,4.63,-5.16,0.19,3.31,-16.5,-17.1875,6.75,0.72821044921875,0.40191650390625,0.52081298828125,-0.192138671875,12.0625,-21.0625,27.25,-8.95,3.77,1.31,Climbing Up,4
1.75,1.686245037,27,3,3,3,0,-13.88,3.99,4.09,-4.94,0.21,2.72,-19.5625,-26.375,10.375,0.73028564453125,0.400634765625,0.51910400390625,-0.19158935546875,12.0625,-21.0625,27.25,-8.94,3.78,1.37,Climbing Up,4
1.76,1.701359783,27,3,3,3,0,-13.59,3.93,3.19,-4.67,0.13,1.74,-22.1875,-36.5,13.6875,0.73297119140625,0.399169921875,0.51666259765625,-0.19097900390625,13.1875,-21.5,26.5,-8.92,3.8,1.44,Climbing Up,4
1.77,1.701359783,27,3,3,3,0,-13.59,3.93,3.19,-4.67,0.13,1.74,-22.1875,-36.5,13.6875,0.73297119140625,0.399169921875,0.51666259765625,-0.19097900390625,13.1875,-21.5,26.5,-8.92,3.8,1.44,Climbing Up,4
1.78,1.717154135,27,3,3,3,0,-13.09,3.85,1.79,-4.19,0.03,0.25,-23.75,-45.4375,16.75,0.73614501953125,0.3975830078125,0.51348876953125,-0.1904296875,13.1875,-21.5,26.5,-8.89,3.82,1.53,Climbing Up,4
1.78,1.717154135,27,3,3,3,0,-12.75,3.81,1.36,-3.88,-0.02,-0.26,-23.0,-50.1875,19.375,0.73956298828125,0.3961181640625,0.50994873046875,-0.18994140625,13.1875,-21.5,26.5,-8.87,3.84,1.62,Climbing Up,4
1.79,1.747455038,27,3,3,3,0,-12.51,3.84,1.04,-3.66,-0.03,-0.68,-22.5625,-49.5625,21.5625,0.742919921875,0.39471435546875,0.50634765625,-0.18927001953125,13.1875,-21.5,26.5,-8.84,3.87,1.72,Climbing Up,4
1.8,1.747455038,27,3,3,3,0,-12.35,4.02,0.85,-3.54,0.12,-0.95,-24.1875,-46.0,22.5625,0.7462158203125,0.39337158203125,0.50299072265625,-0.1883544921875,13.1875,-21.5,26.5,-8.81,3.89,1.81,Climbing Up,4
1.81,1.762048015,27,3,3,3,0,-11.39,4.78,0.92,-2.6,0.86,-0.97,-27.5,-42.6875,22.4375,0.7493896484375,0.39178466796875,0.4998779296875,-0.18719482421875,14.0,-22.5,26.875,-8.78,3.92,1.89,Climbing Up,4
1.82,1.762048015,27,3,3,3,0,-10.73,5.29,0.78,-1.98,1.34,-1.19,-30.0,-39.5625,21.125,0.75250244140625,0.39007568359375,0.49700927734375,-0.18585205078125,14.0,-22.5,26.875,-8.75,3.94,1.97,Climbing Up,4
1.83,1.776972657,27,3,3,3,0,-10.21,5.72,0.45,-1.48,1.76,-1.6,-28.5625,-38.4375,18.9375,0.7554931640625,0.3883056640625,0.49432373046875,-0.1846923828125,14.0,-22.5,26.875,-8.73,3.96,2.05,Climbing Up,4
1.84,1.776972657,27,3,3,3,0,-9.66,6.08,0.02,-0.96,2.09,-2.11,-22.3125,-39.875,17.9375,0.75823974609375,0.386962890625,0.49139404296875,-0.1839599609375,14.0,-22.5,26.875,-8.7,3.98,2.13,Climbing Up,4
1.85,1.791658123,27,3,3,3,0,-8.68,6.6,-0.59,0.0,2.6,-2.8,-15.5,-41.0625,17.8125,0.7608642578125,0.385986328125,0.48828125,-0.18353271484375,14.0,-22.5,26.875,-8.67,4.0,2.2,Climbing Up,4
1.86,1.791658123,27,3,3,3,0,-7.99,6.66,-0.73,0.65,2.63,-3.0,-8.9375,-38.25,18.625,0.76312255859375,0.385498046875,0.48529052734375,-0.1832275390625,13.6875,-23.25,25.25,-8.64,4.02,2.27,Climbing Up,4
1.87,1.822221192,27,3,3,3,0,-7.24,6.71,-0.76,1.37,2.65,-3.09,-4.875,-33.1875,19.875,0.7650146484375,0.385498046875,0.48248291015625,-0.18280029296875,13.6875,-23.25,25.25,-8.62,4.05,2.32,Climbing Up,4
1.88,1.822221192,27,3,3,3,0,-6.7,6.67,-0.84,1.88,2.59,-3.22,-5.3125,-30.625,21.75,0.766845703125,0.385498046875,0.479736328125,-0.18218994140625,13.6875,-23.25,25.25,-8.59,4.08,2.37,Climbing Up,4
1.89,1.837396078,27,3,3,3,0,-6.27,6.54,-1.14,2.29,2.43,-3.57,-7.9375,-29.375,23.375,0.76873779296875,0.38543701171875,0.47711181640625,-0.1812744140625,13.6875,-23.25,25.25,-8.56,4.11,2.42,Climbing Up,4
1.9,1.837396078,27,3,3,3,0,-6.31,6.54,-1.29,2.21,2.39,-3.76,-10.1875,-25.9375,25.1875,0.77056884765625,0.3853759765625,0.47467041015625,-0.1800537109375,13.6875,-23.25,25.25,-8.53,4.14,2.47,Climbing Up,4
1.91,1.867129111,27,3,3,3,0,-6.59,6.52,-1.59,1.91,2.34,-4.1,-13.4375,-18.6875,25.625,0.77215576171875,0.38525390625,0.4727783203125,-0.17840576171875,14.0625,-25.5,24.1875,-8.5,4.18,2.51,Climbing Up,4
1.92,1.867129111,27,3,3,3,0,-6.84,6.31,-1.82,1.64,2.1,-4.36,-17.5625,-9.125,26.0,0.7735595703125,0.38494873046875,0.4715576171875,-0.17620849609375,14.0625,-25.5,24.1875,-8.48,4.21,2.53,Climbing Up,4
1.93,1.881509807,27,3,3,3,0,-6.9,6.25,-1.68,1.55,2.01,-4.24,-19.9375,1.25,25.375,0.77459716796875,0.38470458984375,0.4710693359375,-0.17364501953125,14.0625,-25.5,24.1875,-8.46,4.23,2.55,Climbing Up,4
1.94,1.881509807,27,3,3,3,0,-7.18,6.26,-1.46,1.27,2.0,-4.01,-19.0625,12.6875,24.4375,0.77508544921875,0.38458251953125,0.47137451171875,-0.1707763671875,14.0625,-25.5,24.1875,-8.45,4.26,2.54,Climbing Up,4
1.95,1.897746827,27,3,3,3,0,-7.55,6.15,-1.07,0.89,1.86,-3.59,-16.0625,25.0,23.875,0.77490234375,0.38482666015625,0.4725341796875,-0.16766357421875,14.0625,-25.5,24.1875,-8.44,4.29,2.52,Climbing Up,4
1.96,1.897746827,27,3,3,3,0,-8.25,5.95,0.97,0.18,1.63,-1.5,-12.9375,36.5625,23.3125,0.774169921875,0.38543701171875,0.474365234375,-0.164306640625,12.6875,-25.75,23.375,-8.44,4.32,2.47,Climbing Up,4
1.97,1.927759767,27,3,3,3,0,-8.52,5.81,2.38,-0.07,1.46,-0.03,-12.6875,45.3125,22.25,0.7730712890625,0.38616943359375,0.47686767578125,-0.1607666015625,12.6875,-25.75,23.375,-8.44,4.35,2.42,Climbing Up,4
1.98,1.927759767,27,3,3,3,0,-8.63,5.64,3.21,-0.18,1.27,0.84,-19.0625,46.375,20.0625,0.77203369140625,0.3863525390625,0.47955322265625,-0.15704345703125,12.6875,-25.75,23.375,-8.45,4.37,2.36,Climbing Up,4
1.99,1.941065838,27,3,3,3,0,-8.45,5.35,3.17,0.0,0.96,0.85,-25.5625,41.6875,17.3125,0.77142333984375,0.38592529296875,0.482177734375,-0.15338134765625,12.6875,-25.75,23.375,-8.45,4.38,2.32,Climbing Up,4
2.0,1.941065838,27,3,3,3,0,-8.15,5.06,1.84,0.3,0.65,-0.44,-23.0,37.5625,15.375,0.77081298828125,0.38555908203125,0.48443603515625,-0.150146484375,12.6875,-25.75,23.375,-8.45,4.4,2.28,Climbing Up,4
2.01,1.956856487,27,3,3,3,0,-7.92,4.84,1.51,0.53,0.43,-0.73,-21.9375,30.75,13.4375,0.7703857421875,0.38507080078125,0.486328125,-0.14727783203125,12.25,-26.5,24.1875,-8.46,4.41,2.25,Climbing Up,4
2.02,1.956856487,27,3,3,3,0,-7.86,4.64,1.45,0.59,0.21,-0.78,-22.375,24.8125,12.0,0.770263671875,0.3843994140625,0.4879150390625,-0.1446533203125,12.25,-26.5,24.1875,-8.46,4.42,2.23,Climbing Up,4
2.03,1.9716226,27,3,3,3,0,-7.86,4.64,1.45,0.59,0.21,-0.78,-22.375,24.8125,12.0,0.770263671875,0.3843994140625,0.4879150390625,-0.1446533203125,12.25,-26.5,24.1875,-8.46,4.42,2.23,Climbing Up,4
2.03,1.9716226,27,3,3,3,0,-7.78,4.36,1.53,0.67,-0.06,-0.68,-21.8125,22.6875,10.3125,0.7701416015625,0.38360595703125,0.4893798828125,-0.14227294921875,12.25,-26.5,24.1875,-8.46,4.42,2.22,Climbing Up,4
2.04,1.986417563,27,3,3,3,0,-7.49,3.8,1.55,0.96,-0.63,-0.64,-21.75,22.5625,8.0625,0.77001953125,0.3828125,0.4908447265625,-0.1400146484375,12.25,-26.5,24.1875,-8.46,4.43,2.2,Climbing Up,4
2.05,1.986417563,27,3,3,3,0,-7.34,3.52,1.47,1.11,-0.9,-0.72,-22.0,21.3125,5.6875,0.7698974609375,0.3818359375,0.49237060546875,-0.13800048828125,12.25,-26.5,24.1875,-8.46,4.43,2.19,Climbing Up,4
2.06,2.016638632,27,3,3,3,0,-7.04,3.27,1.4,1.42,-1.15,-0.77,-20.3125,15.6875,0.8125,0.7698974609375,0.38067626953125,0.49365234375,-0.13653564453125,12.6875,-26.875,23.375,-8.47,4.42,2.18,Climbing Up,4
2.07,2.016638632,27,3,3,3,0,-6.56,2.85,1.18,1.91,-1.56,-0.99,-20.3125,15.6875,0.8125,0.7698974609375,0.37957763671875,0.49493408203125,-0.13507080078125,12.6875,-26.875,23.375,-8.47,4.42,2.17,Climbing Up,4
2.08,2.031602581,27,3,3,3,0,-6.31,2.69,1.03,2.17,-1.72,-1.13,-19.375,15.0625,-1.3125,0.7698974609375,0.37835693359375,0.4962158203125,-0.1337890625,12.6875,-26.875,23.375,-8.48,4.41,2.16,Climbing Up,4
2.09,2.031602581,27,3,3,3,0,-6.03,2.53,0.88,2.45,-1.86,-1.27,-19.0,16.5,-3.0,0.769775390625,0.377197265625,0.49761962890625,-0.13262939453125,12.6875,-26.875,23.375,-8.49,4.39,2.15,Climbing Up,4
2.1,2.04601998,27,3,3,3,0,-6.02,2.48,0.79,2.48,-1.9,-1.35,-19.375,17.6875,-4.125,0.76959228515625,0.37591552734375,0.4991455078125,-0.1314697265625,12.6875,-26.875,23.375,-8.5,4.38,2.14,Climbing Up,4
2.11,2.04601998,27,3,3,3,0,-5.92,2.48,0.64,2.59,-1.89,-1.48,-17.4375,19.375,-5.875,0.76922607421875,0.37469482421875,0.5008544921875,-0.1304931640625,12.375,-27.25,23.75,-8.51,4.37,2.13,Climbing Up,4
2.12,2.061540528,27,3,3,3,0,-5.88,2.52,0.59,2.63,-1.83,-1.52,-17.4375,19.375,-5.875,0.76885986328125,0.37347412109375,0.5025634765625,-0.12945556640625,12.375,-27.25,23.75,-8.52,4.35,2.11,Climbing Up,4
2.13,2.061540528,27,3,3,3,0,-5.81,2.55,0.54,2.72,-1.78,-1.55,-15.625,19.0625,-5.75,0.76849365234375,0.3724365234375,0.50421142578125,-0.1285400390625,12.375,-27.25,23.75,-8.53,4.34,2.1,Climbing Up,4
2.14,2.092860597,27,3,3,3,0,-5.79,2.59,0.49,2.75,-1.73,-1.59,-14.0,18.6875,-5.25,0.76806640625,0.3714599609375,0.50579833984375,-0.127685546875,12.375,-27.25,23.75,-8.54,4.32,2.08,Climbing Up,4
2.15,2.092860597,27,3,3,3,0,-5.77,2.6,0.7,2.78,-1.71,-1.36,-12.25,18.5625,-4.0,0.767578125,0.37066650390625,0.50732421875,-0.12677001953125,12.375,-27.25,23.75,-8.55,4.31,2.06,Climbing Up,4
2.16,2.106519247,27,3,3,3,0,-5.74,2.52,0.88,2.81,-1.78,-1.15,-12.0625,18.25,-1.4375,0.76715087890625,0.3699951171875,0.50872802734375,-0.12579345703125,12.75,-28.0,22.5625,-8.56,4.31,2.04,Climbing Up,4
2.17,2.106519247,27,3,3,3,0,-5.8,2.54,1.03,2.77,-1.75,-0.99,-12.0625,18.25,-1.4375,0.7667236328125,0.36932373046875,0.5101318359375,-0.124755859375,12.75,-28.0,22.5625,-8.57,4.3,2.02,Climbing Up,4
2.18,2.122409466,27,3,3,3,0,-5.91,2.62,1.2,2.66,-1.67,-0.8,-12.75,18.8125,-0.375,0.7662353515625,0.36871337890625,0.51153564453125,-0.12353515625,12.75,-28.0,22.5625,-8.58,4.3,2.0,Climbing Up,4
2.19,2.122409466,27,3,3,3,0,-6.02,2.82,1.4,2.56,-1.47,-0.58,-13.0,19.625,0.1875,0.76580810546875,0.3680419921875,0.51300048828125,-0.122314453125,12.75,-28.0,22.5625,-8.58,4.29,1.98,Climbing Up,4
2.2,2.151606243,27,3,3,3,0,-6.2,3.0,1.39,2.38,-1.28,-0.57,-12.875,19.125,0.875,0.765380859375,0.367431640625,0.51434326171875,-0.12109375,12.75,-28.0,22.5625,-8.59,4.29,1.96,Climbing Up,4
2.21,2.151606243,27,3,3,3,0,-6.49,3.11,1.39,2.1,-1.17,-0.56,-9.125,17.375,0.875,0.764892578125,0.3670654296875,0.515625,-0.12005615234375,13.1875,-28.0,23.375,-8.59,4.29,1.95,Climbing Up,4
2.22,2.166123089,27,3,3,3,0,-6.8,3.21,1.36,1.79,-1.07,-0.56,-9.125,17.375,0.875,0.764404296875,0.36663818359375,0.516845703125,-0.1190185546875,13.1875,-28.0,23.375,-8.6,4.29,1.93,Climbing Up,4
2.23,2.166123089,27,3,3,3,0,-7.26,3.36,1.33,1.34,-0.92,-0.57,-6.4375,17.0,0.5625,0.7637939453125,0.366455078125,0.51800537109375,-0.1181640625,13.1875,-28.0,23.375,-8.6,4.28,1.91,Climbing Up,4
2.24,2.181016847,27,3,3,3,0,-7.55,3.52,1.29,1.06,-0.76,-0.58,-0.5625,15.5625,0.0,0.76312255859375,0.3665771484375,0.51904296875,-0.11761474609375,13.1875,-28.0,23.375,-8.61,4.28,1.88,Climbing Up,4
2.25,2.181016847,27,3,3,3,0,-7.87,3.62,1.14,0.74,-0.66,-0.72,2.0,14.75,0.125,0.76239013671875,0.3668212890625,0.52001953125,-0.11724853515625,13.1875,-28.0,23.375,-8.61,4.28,1.86,Climbing Up,4
2.26,2.21176465,27,3,3,3,0,-8.4,3.91,0.77,0.21,-0.37,-1.06,4.1875,13.75,0.5625,0.76165771484375,0.3673095703125,0.5208740234375,-0.116943359375,12.0,-28.6875,23.0,-8.62,4.29,1.83,Climbing Up,4
2.27,2.21176465,27,3,3,3,0,-8.62,4.1,0.65,0.0,-0.19,-1.16,6.125,13.875,0.4375,0.76080322265625,0.36785888671875,0.52178955078125,-0.11676025390625,12.0,-28.6875,23.0,-8.62,4.29,1.81,Climbing Up,4
2.28,2.226567262,27,3,3,3,0,-8.91,4.35,0.67,-0.27,0.06,-1.11,8.4375,15.6875,0.0,0.75982666015625,0.36859130859375,0.522705078125,-0.11663818359375,12.0,-28.6875,23.0,-8.63,4.29,1.78,Climbing Up,4
2.29,2.226567262,27,3,3,3,0,-9.33,4.72,0.74,-0.69,0.42,-1.0,11.375,19.0625,-0.3125,0.758544921875,0.36956787109375,0.52386474609375,-0.1165771484375,12.0,-28.6875,23.0,-8.63,4.3,1.74,Climbing Up,4
2.3,2.241397869,27,3,3,3,0,-9.33,4.72,0.74,-0.69,0.42,-1.0,11.375,19.0625,-0.3125,0.758544921875,0.36956787109375,0.52386474609375,-0.1165771484375,12.0,-28.6875,23.0,-8.63,4.3,1.74,Climbing Up,4
2.3,2.241397869,27,3,3,3,0,-10.16,5.36,1.1,-1.52,1.06,-0.6,13.5,21.0,-0.25,0.75714111328125,0.37066650390625,0.525146484375,-0.11651611328125,12.0,-28.6875,23.0,-8.64,4.3,1.7,Climbing Up,4
2.31,2.256180828,27,3,3,3,0,-10.42,5.6,1.46,-1.77,1.29,-0.19,14.0625,19.6875,-0.25,0.75579833984375,0.37176513671875,0.52630615234375,-0.11651611328125,11.75,-28.25,24.1875,-8.65,4.3,1.66,Climbing Up,4
2.32,2.256180828,27,3,3,3,0,-10.59,5.81,1.81,-1.93,1.5,0.18,13.8125,17.0,-0.4375,0.7545166015625,0.37286376953125,0.52728271484375,-0.1165771484375,11.75,-28.25,24.1875,-8.65,4.31,1.62,Climbing Up,4
2.33,2.272662273,27,3,3,3,0,-10.62,5.99,2.15,-1.96,1.67,0.55,14.25,14.5625,-0.5,0.75341796875,0.37396240234375,0.52813720703125,-0.11676025390625,11.75,-28.25,24.1875,-8.66,4.31,1.59,Climbing Up,4
2.34,2.272662273,27,3,3,3,0,-10.72,6.37,2.55,-2.06,2.05,0.99,14.0625,12.5,-0.75,0.7523193359375,0.375,0.52880859375,-0.1170654296875,11.75,-28.25,24.1875,-8.66,4.31,1.56,Climbing Up,4
2.35,2.303671184,27,3,3,3,0,-10.68,6.56,2.63,-2.01,2.24,1.09,11.8125,8.0,-1.25,0.7515869140625,0.37579345703125,0.529296875,-0.117431640625,11.75,-28.25,24.1875,-8.66,4.32,1.54,Climbing Up,4
2.36,2.303671184,27,3,3,3,0,-10.55,6.66,2.69,-1.88,2.34,1.16,8.75,4.5625,-1.5625,0.75103759765625,0.3763427734375,0.529541015625,-0.1177978515625,12.0625,-28.25,25.6875,-8.66,4.32,1.52,Climbing Up,4
2.37,2.316813885,27,3,3,3,0,-10.48,6.78,2.73,-1.81,2.46,1.21,5.3125,2.625,-1.75,0.750732421875,0.37664794921875,0.52972412109375,-0.1180419921875,12.0625,-28.25,25.6875,-8.67,4.31,1.52,Climbing Up,4
2.38,2.316813885,27,3,3,3,0,-10.38,6.9,2.98,-1.7,2.58,1.46,1.4375,2.0625,-1.0,0.75054931640625,0.37677001953125,0.5299072265625,-0.11810302734375,12.0625,-28.25,25.6875,-8.67,4.31,1.51,Climbing Up,4
2.39,2.347277996,27,3,3,3,0,-10.37,6.96,3.11,-1.69,2.64,1.6,-2.4375,1.5625,0.0,0.75054931640625,0.3765869140625,0.530029296875,-0.117919921875,12.0625,-28.25,25.6875,-8.67,4.31,1.51,Climbing Up,4
2.4,2.347277996,27,3,3,3,0,-10.44,6.95,3.22,-1.76,2.63,1.7,-4.625,-1.625,0.5625,0.75079345703125,0.3763427734375,0.52996826171875,-0.11773681640625,12.0625,-28.25,25.6875,-8.67,4.31,1.52,Climbing Up,4
2.41,2.361660076,27,3,3,3,0,-10.81,6.9,3.39,-2.14,2.58,1.86,-4.6875,-6.1875,0.9375,0.751220703125,0.37603759765625,0.529541015625,-0.11767578125,11.75,-28.25,26.0625,-8.67,4.31,1.53,Climbing Up,4
2.42,2.361660076,27,3,3,3,0,-11.13,6.85,3.43,-2.47,2.53,1.88,-2.5,-10.6875,0.9375,0.7518310546875,0.37579345703125,0.52880859375,-0.1177978515625,11.75,-28.25,26.0625,-8.66,4.31,1.55,Climbing Up,4
2.43,2.376711508,27,3,3,3,0,-11.41,6.72,3.3,-2.75,2.4,1.72,-1.0625,-16.0625,0.1875,0.75262451171875,0.37554931640625,0.52777099609375,-0.1182861328125,11.75,-28.25,26.0625,-8.66,4.31,1.57,Climbing Up,4
2.44,2.376711508,27,3,3,3,0,-11.65,6.57,3.04,-2.99,2.25,1.43,-1.125,-22.5,-1.375,0.753662109375,0.37518310546875,0.5263671875,-0.1190185546875,11.75,-28.25,26.0625,-8.65,4.31,1.61,Climbing Up,4
2.45,2.407093344,27,3,3,3,0,-12.05,6.04,2.19,-3.4,1.73,0.54,-2.4375,-27.625,-3.375,0.75494384765625,0.37457275390625,0.524658203125,-0.12005615234375,11.75,-28.25,26.0625,-8.65,4.31,1.65,Climbing Up,4
2.46,2.407093344,27,3,3,3,0,-12.21,5.67,1.74,-3.57,1.37,0.04,-3.0625,-29.4375,-5.375,0.75634765625,0.37384033203125,0.52294921875,-0.1212158203125,13.25,-29.0625,24.5,-8.64,4.3,1.7,Climbing Up,4
2.47,2.421945599,27,3,3,3,0,-12.34,5.33,1.37,-3.69,1.04,-0.37,-2.4375,-28.8125,-7.6875,0.7576904296875,0.373046875,0.52130126953125,-0.12255859375,13.25,-29.0625,24.5,-8.64,4.29,1.74,Climbing Up,4
2.48,2.421945599,27,3,3,3,0,-12.34,5.04,1.09,-3.7,0.76,-0.69,-0.3125,-26.8125,-9.5,0.7587890625,0.372314453125,0.51983642578125,-0.1240234375,13.25,-29.0625,24.5,-8.64,4.27,1.78,Climbing Up,4
2.49,2.437031699,27,3,3,3,0,-12.21,4.39,0.92,-3.57,0.13,-0.89,2.625,-24.4375,-10.8125,0.75970458984375,0.37176513671875,0.5185546875,-0.12567138671875,13.25,-29.0625,24.5,-8.64,4.26,1.82,Climbing Up,4
2.5,2.437031699,27,3,3,3,0,-11.83,3.85,0.71,-3.19,-0.38,-1.13,5.8125,-23.5625,-11.875,0.76043701171875,0.371337890625,0.51727294921875,-0.12750244140625,13.25,-29.0625,24.5,-8.64,4.24,1.85,Climbing Up,4
2.51,2.467943564,27,3,3,3,0,-11.16,3.45,0.37,-2.51,-0.77,-1.51,9.4375,-26.6875,-12.75,0.76116943359375,0.37109375,0.51580810546875,-0.129638671875,13.0,-29.75,23.6875,-8.64,4.22,1.88,Climbing Up,4
2.52,2.467943564,27,3,3,3,0,-10.42,3.2,0.04,-1.78,-1.0,-1.87,14.625,-29.625,-14.0,0.76190185546875,0.37109375,0.51416015625,-0.13214111328125,13.0,-29.75,23.6875,-8.64,4.21,1.92,Climbing Up,4
2.53,2.481639121,27,3,3,3,0,-9.46,2.88,-0.78,-0.81,-1.31,-2.73,21.625,-29.6875,-14.9375,0.7623291015625,0.37152099609375,0.51239013671875,-0.13507080078125,13.0,-29.75,23.6875,-8.64,4.19,1.94,Climbing Up,4
2.54,2.481639121,27,3,3,3,0,-9.3,2.83,-1.26,-0.65,-1.34,-3.23,28.8125,-27.5625,-14.875,0.762451171875,0.37249755859375,0.5107421875,-0.13824462890625,13.0,-29.75,23.6875,-8.64,4.18,1.96,Climbing Up,4
2.55,2.496473675,27,3,3,3,0,-9.38,2.81,-1.62,-0.73,-1.36,-3.6,35.1875,-24.875,-13.75,0.76220703125,0.3739013671875,0.50909423828125,-0.14154052734375,13.0,-29.75,23.6875,-8.64,4.17,1.98,Climbing Up,4
2.56,2.496473675,27,3,3,3,0,-9.53,2.8,-1.86,-0.88,-1.36,-3.85,39.8125,-22.375,-12.0625,0.76177978515625,0.375732421875,0.50750732421875,-0.14483642578125,13.375,-27.5625,22.875,-8.64,4.17,1.98,Climbing Up,4
2.57,2.527232667,27,3,3,3,0,-9.63,2.72,-1.77,-0.98,-1.45,-3.76,43.125,-19.625,-9.5625,0.76104736328125,0.3779296875,0.5059814453125,-0.1480712890625,13.375,-27.5625,22.875,-8.65,4.17,1.98,Climbing Up,4
2.58,2.527232667,27,3,3,3,0,-9.59,2.81,-1.45,-0.94,-1.36,-3.43,45.3125,-17.375,-7.625,0.76019287109375,0.38037109375,0.5045166015625,-0.151123046875,13.375,-27.5625,22.875,-8.64,4.17,1.97,Climbing Up,4
2.59,2.530393881,27,3,3,3,0,-9.44,3.06,-0.97,-0.79,-1.11,-2.93,46.375,-14.625,-6.5,0.75921630859375,0.38299560546875,0.503173828125,-0.15411376953125,13.375,-27.5625,22.875,-8.64,4.18,1.96,Climbing Up,4
2.6,2.530393881,27,3,3,3,0,-9.44,3.06,-0.97,-0.79,-1.11,-2.93,46.375,-14.625,-6.5,0.75921630859375,0.38299560546875,0.503173828125,-0.15411376953125,13.375,-27.5625,22.875,-8.64,4.18,1.96,Climbing Up,4
2.6,2.556911215,27,3,3,3,0,-8.97,3.52,0.31,-0.32,-0.66,-1.63,46.5,-10.375,-6.5625,0.75799560546875,0.38568115234375,0.5020751953125,-0.15692138671875,13.375,-27.5625,22.875,-8.65,4.18,1.94,Climbing Up,4
2.61,2.556911215,27,3,3,3,0,-8.89,3.56,1.0,-0.23,-0.62,-0.91,46.0,-4.9375,-7.0625,0.75653076171875,0.3883056640625,0.50140380859375,-0.1595458984375,13.6875,-28.1875,24.0625,-8.65,4.19,1.91,Climbing Up,4
2.62,2.571380861,27,3,3,3,0,-8.87,3.6,1.5,-0.21,-0.58,-0.38,44.1875,0.25,-7.9375,0.7548828125,0.39093017578125,0.50103759765625,-0.16204833984375,13.6875,-28.1875,24.0625,-8.66,4.19,1.88,Climbing Up,4
2.63,2.571380861,27,3,3,3,0,-8.93,3.75,1.84,-0.26,-0.44,0.0,42.625,4.375,-8.9375,0.75311279296875,0.39337158203125,0.50103759765625,-0.164306640625,13.6875,-28.1875,24.0625,-8.66,4.19,1.84,Climbing Up,4
2.64,2.586551922,27,3,3,3,0,-8.77,3.83,2.55,-0.09,-0.35,0.75,45.0,6.6875,-9.625,0.7510986328125,0.39605712890625,0.501220703125,-0.16668701171875,13.6875,-28.1875,24.0625,-8.67,4.19,1.8,Climbing Up,4
2.65,2.586551922,27,3,3,3,0,-8.79,3.85,2.6,-0.11,-0.33,0.83,46.0625,2.1875,-10.1875,0.749267578125,0.39862060546875,0.50103759765625,-0.1693115234375,13.6875,-28.1875,24.0625,-8.68,4.19,1.76,Climbing Up,4
2.66,2.617059938,27,3,3,3,0,-8.71,3.86,2.57,-0.02,-0.32,0.83,43.3125,-5.875,-11.0,0.747802734375,0.40087890625,0.50042724609375,-0.172119140625,14.375,-28.1875,24.0625,-8.69,4.19,1.74,Climbing Up,4
2.67,2.617059938,27,3,3,3,0,-8.57,3.84,2.47,0.12,-0.33,0.73,36.9375,-12.25,-12.0,0.746826171875,0.402587890625,0.49951171875,-0.17498779296875,14.375,-28.1875,24.0625,-8.69,4.18,1.73,Climbing Up,4
2.68,2.63156832,27,3,3,3,0,-8.14,3.63,2.41,0.55,-0.53,0.68,29.4375,-15.0625,-13.1875,0.7462158203125,0.40374755859375,0.49859619140625,-0.1776123046875,14.375,-28.1875,24.0625,-8.7,4.17,1.73,Climbing Up,4
2.69,2.63156832,27,3,3,3,0,-7.88,3.4,2.45,0.82,-0.75,0.71,22.1875,-16.0,-14.375,0.74591064453125,0.404296875,0.4976806640625,-0.18011474609375,14.375,-28.1875,24.0625,-8.7,4.15,1.74,Climbing Up,4
2.7,2.646029217,27,3,3,3,0,-7.64,3.23,2.43,1.06,-0.9,0.67,16.875,-19.4375,-14.6875,0.74591064453125,0.40447998046875,0.4967041015625,-0.1824951171875,14.375,-28.1875,24.0625,-8.71,4.13,1.75,Climbing Up,4
2.71,2.646029217,27,3,3,3,0,-7.27,3.05,2.35,1.44,-1.07,0.56,13.375,-25.9375,-14.9375,0.746337890625,0.404296875,0.495361328125,-0.18499755859375,14.0625,-27.1875,24.875,-8.71,4.12,1.78,Climbing Up,4
2.72,2.677076662,27,3,3,3,0,-6.45,2.55,2.16,2.25,-1.54,0.33,11.625,-31.5,-14.875,0.74700927734375,0.40386962890625,0.49365234375,-0.18756103515625,14.0625,-27.1875,24.875,-8.71,4.1,1.82,Climbing Up,4
2.73,2.677076662,27,3,3,3,0,-6.09,2.34,1.93,2.61,-1.74,0.06,10.9375,-33.8125,-14.9375,0.747802734375,0.40338134765625,0.4918212890625,-0.190185546875,14.0625,-27.1875,24.875,-8.71,4.08,1.87,Climbing Up,4
2.74,2.691380291,27,3,3,3,0,-5.77,2.09,1.62,2.94,-1.96,-0.29,11.0,-34.75,-14.25,0.7486572265625,0.4029541015625,0.4898681640625,-0.19281005859375,14.0625,-27.1875,24.875,-8.71,4.06,1.91,Climbing Up,4
2.75,2.691380291,27,3,3,3,0,-5.39,1.81,1.17,3.32,-2.23,-0.77,11.125,-33.9375,-13.3125,0.74945068359375,0.40252685546875,0.48797607421875,-0.19537353515625,14.0625,-27.1875,24.875,-8.71,4.04,1.95,Climbing Up,4
2.76,2.707186118,27,3,3,3,0,-5.36,1.73,0.88,3.35,-2.29,-1.11,11.8125,-32.0625,-12.375,0.75018310546875,0.4022216796875,0.486083984375,-0.19781494140625,15.1875,-26.75,24.0625,-8.71,4.03,1.99,Climbing Up,4
2.77,2.707186118,27,3,3,3,0,-5.28,1.67,0.77,3.43,-2.34,-1.25,12.3125,-29.875,-11.5,0.75079345703125,0.40203857421875,0.484375,-0.20013427734375,15.1875,-26.75,24.0625,-8.71,4.01,2.03,Climbing Up,4
2.78,2.737366538,27,3,3,3,0,-5.37,1.75,0.64,3.33,-2.25,-1.41,11.875,-26.25,-10.3125,0.7513427734375,0.40191650390625,0.4827880859375,-0.2022705078125,15.1875,-26.75,24.0625,-8.7,4.0,2.06,Climbing Up,4
2.79,2.737366538,27,3,3,3,0,-5.91,2.08,0.58,2.78,-1.9,-1.5,12.375,-21.5625,-8.625,0.75164794921875,0.4019775390625,0.48150634765625,-0.2041015625,15.1875,-26.75,24.0625,-8.7,3.99,2.09,Climbing Up,4
2.8,2.752427329,27,3,3,3,0,-6.13,2.24,0.71,2.57,-1.75,-1.39,12.75,-18.5625,-6.5625,0.7518310546875,0.40216064453125,0.48028564453125,-0.20574951171875,15.1875,-26.75,24.0625,-8.7,3.99,2.1,Climbing Up,4
2.81,2.752427329,27,3,3,3,0,-6.23,2.35,0.91,2.46,-1.63,-1.21,12.4375,-17.6875,-5.25,0.75201416015625,0.4024658203125,0.4791259765625,-0.20721435546875,15.875,-26.0,22.875,-8.7,3.98,2.12,Climbing Up,4
2.82,2.766152142,27,3,3,3,0,-6.28,2.44,1.23,2.41,-1.54,-0.9,14.4375,-17.6875,-5.0625,0.75213623046875,0.40289306640625,0.4779052734375,-0.20880126953125,15.875,-26.0,22.875,-8.69,3.98,2.14,Climbing Up,4
2.83,2.766152142,27,3,3,3,0,-6.36,2.73,1.69,2.32,-1.24,-0.46,18.6875,-18.9375,-5.375,0.75213623046875,0.40350341796875,0.47650146484375,-0.21063232421875,15.875,-26.0,22.875,-8.69,3.98,2.15,Climbing Up,4
2.84,2.796706137,27,3,3,3,0,-6.3,2.82,1.83,2.38,-1.16,-0.33,23.125,-20.1875,-6.1875,0.7520751953125,0.4044189453125,0.4749755859375,-0.21270751953125,15.875,-26.0,22.875,-8.69,3.98,2.17,Climbing Up,4
2.85,2.796706137,27,3,3,3,0,-6.24,2.89,1.77,2.44,-1.08,-0.41,25.875,-20.6875,-7.375,0.7518310546875,0.4053955078125,0.47344970703125,-0.21502685546875,15.875,-26.0,22.875,-8.69,3.98,2.18,Climbing Up,4
2.86,2.81162549,27,3,3,3,0,-6.21,2.95,1.73,2.47,-1.02,-0.46,26.5,-19.0625,-8.6875,0.75152587890625,0.40643310546875,0.47198486328125,-0.21734619140625,16.5625,-27.1875,22.5,-8.68,3.97,2.19,Climbing Up,4
2.87,2.81162549,27,3,3,3,0,-6.5,3.03,1.58,2.18,-0.94,-0.61,25.75,-15.5625,-10.0625,0.75103759765625,0.40740966796875,0.47088623046875,-0.2196044921875,16.5625,-27.1875,22.5,-8.69,3.97,2.2,Climbing Up,4
2.88,2.826847332,27,3,3,3,0,-6.77,3.13,1.52,1.91,-0.83,-0.67,26.125,-11.1875,-10.4375,0.7503662109375,0.408447265625,0.47003173828125,-0.2218017578125,16.5625,-27.1875,22.5,-8.69,3.96,2.2,Climbing Up,4
2.89,2.826847332,27,3,3,3,0,-6.77,3.13,1.52,1.91,-0.83,-0.67,26.125,-11.1875,-10.4375,0.7503662109375,0.408447265625,0.47003173828125,-0.2218017578125,16.5625,-27.1875,22.5,-8.69,3.96,2.2,Climbing Up,4
2.89,2.842436891,27,3,3,3,0,-7.08,3.32,1.5,1.61,-0.63,-0.68,26.4375,-7.5625,-10.25,0.74951171875,0.40960693359375,0.4693603515625,-0.22381591796875,16.5625,-27.1875,22.5,-8.69,3.96,2.19,Climbing Up,4
2.9,2.842436891,27,3,3,3,0,-7.77,3.55,1.69,0.92,-0.39,-0.48,26.5,-3.9375,-9.5625,0.74853515625,0.410888671875,0.46893310546875,-0.2257080078125,16.5625,-27.1875,22.5,-8.7,3.95,2.18,Climbing Up,4
2.91,2.857419069,27,3,3,3,0,-8.19,3.58,1.92,0.51,-0.37,-0.24,25.9375,0.875,-7.9375,0.74737548828125,0.41229248046875,0.46881103515625,-0.22723388671875,16.5625,-27.1875,21.6875,-8.7,3.95,2.16,Climbing Up,4
2.92,2.857419069,27,3,3,3,0,-8.66,3.62,2.08,0.05,-0.33,-0.05,24.75,6.5,-5.75,0.74609375,0.41375732421875,0.468994140625,-0.2283935546875,16.5625,-27.1875,21.6875,-8.71,3.95,2.13,Climbing Up,4
2.93,2.887646852,27,3,3,3,0,-9.17,3.59,2.29,-0.45,-0.36,0.18,23.1875,10.3125,-3.125,0.7447509765625,0.41534423828125,0.46929931640625,-0.22918701171875,16.5625,-27.1875,21.6875,-8.72,3.95,2.1,Climbing Up,4
2.94,2.887646852,27,3,3,3,0,-10.66,3.8,2.91,-1.93,-0.16,0.85,23.125,12.75,-0.0625,0.743408203125,0.4171142578125,0.46966552734375,-0.22967529296875,16.5625,-27.1875,21.6875,-8.72,3.96,2.06,Climbing Up,4
2.95,2.901676719,27,3,3,3,0,-11.46,3.84,3.35,-2.73,-0.13,1.33,24.625,14.75,3.5,0.741943359375,0.419189453125,0.47003173828125,-0.22991943359375,16.5625,-27.1875,21.6875,-8.73,3.98,2.02,Climbing Up,4
2.96,2.901676719,27,3,3,3,0,-12.19,3.92,3.85,-3.46,-0.07,1.86,25.6875,14.4375,8.0,0.7406005859375,0.42144775390625,0.47015380859375,-0.22991943359375,16.1875,-26.75,23.1875,-8.72,4.0,1.98,Climbing Up,4
2.97,2.932881553,27,3,3,3,0,-12.83,3.93,4.3,-4.11,-0.09,2.35,24.8125,10.5625,11.875,0.73944091796875,0.42376708984375,0.46990966796875,-0.22979736328125,16.1875,-26.75,23.1875,-8.72,4.02,1.95,Climbing Up,4
2.98,2.932881553,27,3,3,3,0,-13.53,3.93,5.01,-4.82,-0.12,3.08,19.125,2.5,15.4375,0.73895263671875,0.4256591796875,0.46917724609375,-0.2294921875,16.1875,-26.75,23.1875,-8.71,4.05,1.93,Climbing Up,4
2.99,2.963641725,27,3,3,3,0,-13.6,4.14,4.87,-4.9,0.05,2.93,9.5625,-5.8125,18.625,0.73919677734375,0.4268798828125,0.4678955078125,-0.22894287109375,16.1875,-26.75,23.1875,-8.7,4.08,1.93,Climbing Up,4
3.0,2.963641725,27,3,3,3,0,-13.53,4.13,4.44,-4.84,0.01,2.49,3.5625,-8.5,20.3125,0.73980712890625,0.42779541015625,0.466552734375,-0.22808837890625,16.1875,-26.75,23.1875,-8.68,4.11,1.94,Climbing Up,4
3.02,2.968944663,27,3,3,3,0,-13.05,4.36,3.85,-4.4,0.18,1.88,-8.125,-1.4375,20.0625,0.74127197265625,0.42864990234375,0.4647216796875,-0.22540283203125,18.0625,-26.0,24.0,-8.65,4.17,1.96,Climbing Up,4
3.03,2.968944663,27,3,3,3,0,-12.97,4.5,3.99,-4.33,0.3,2.02,-12.875,1.75,19.8125,0.7420654296875,0.4285888671875,0.46441650390625,-0.2235107421875,18.0625,-26.0,24.0,-8.63,4.2,1.97,Climbing Up,4
3.04,2.99269568,27,3,3,3,0,-12.91,4.7,3.93,-4.28,0.48,1.95,-15.5,-0.1875,20.1875,0.7430419921875,0.42840576171875,0.46392822265625,-0.22161865234375,18.0625,-26.0,24.0,-8.62,4.22,1.98,Climbing Up,4
3.05,2.99269568,27,3,3,3,0,-12.77,4.85,3.68,-4.16,0.6,1.67,-17.3125,-4.75,21.25,0.7442626953125,0.42803955078125,0.46319580078125,-0.2197265625,18.0625,-26.0,24.0,-8.6,4.25,2.0,Climbing Up,4
3.06,3.014028932,27,3,3,3,0,-12.53,5.29,2.82,-3.95,1.01,0.78,-20.5625,-8.0625,22.4375,0.74578857421875,0.42742919921875,0.46221923828125,-0.2177734375,16.1875,-27.1875,25.875,-8.58,4.27,2.03,Climbing Up,4
3.07,3.014028932,27,3,3,3,0,-12.46,5.55,2.41,-3.89,1.25,0.35,-24.0,-8.75,22.375,0.74749755859375,0.42657470703125,0.4613037109375,-0.2156982421875,16.1875,-27.1875,25.875,-8.56,4.3,2.06,Climbing Up,4
3.08,3.036960369,27,3,3,3,0,-12.35,5.88,2.1,-3.8,1.55,0.01,-26.3125,-7.5,20.8125,0.7491455078125,0.425537109375,0.46051025390625,-0.21356201171875,16.1875,-27.1875,25.875,-8.54,4.32,2.09,Climbing Up,4
3.09,3.036960369,27,3,3,3,0,-11.62,6.64,2.08,-3.09,2.3,-0.03,-27.75,-3.625,18.9375,0.75067138671875,0.42437744140625,0.46014404296875,-0.21136474609375,16.1875,-27.1875,25.875,-8.53,4.34,2.12,Climbing Up,4
3.1,3.051545981,27,3,3,3,0,-10.97,6.78,2.18,-2.45,2.43,0.03,-29.4375,0.9375,17.125,0.75201416015625,0.42315673828125,0.4600830078125,-0.20904541015625,16.1875,-27.1875,25.875,-8.52,4.35,2.14,Climbing Up,4
3.11,3.051545981,27,3,3,3,0,-10.11,6.73,2.25,-1.6,2.36,0.09,-30.5625,2.625,15.9375,0.75335693359375,0.42181396484375,0.46026611328125,-0.2066650390625,15.875,-27.5,23.875,-8.51,4.36,2.16,Climbing Up,4
3.12,3.067752443,27,3,3,3,0,-9.08,6.64,2.11,-0.58,2.26,-0.07,-32.875,-2.3125,16.0,0.75494384765625,0.42022705078125,0.46014404296875,-0.20440673828125,15.875,-27.5,23.875,-8.49,4.37,2.19,Climbing Up,4
3.13,3.067752443,27,3,3,3,0,-7.6,6.71,1.39,0.87,2.32,-0.83,-34.6875,-10.3125,16.5625,0.75689697265625,0.41845703125,0.45947265625,-0.2022705078125,15.875,-27.5,23.875,-8.48,4.38,2.23,Climbing Up,4
3.14,3.097687827,27,3,3,3,0,-7.34,6.69,0.91,1.11,2.29,-1.36,-33.8125,-15.25,17.5625,0.759033203125,0.4166259765625,0.45843505859375,-0.2003173828125,15.875,-27.5,23.875,-8.46,4.4,2.28,Climbing Up,4
3.15,3.097687827,27,3,3,3,0,-7.05,6.64,0.51,1.38,2.22,-1.8,-30.875,-14.625,19.625,0.7611083984375,0.41510009765625,0.457275390625,-0.1983642578125,15.875,-27.5,23.875,-8.44,4.41,2.32,Climbing Up,4
3.16,3.102263714,27,3,3,3,0,-7.05,6.64,0.51,1.38,2.22,-1.8,-30.875,-14.625,19.625,0.7611083984375,0.41510009765625,0.457275390625,-0.1983642578125,15.875,-27.5,23.875,-8.44,4.41,2.32,Climbing Up,4
3.17,3.102263714,27,3,3,3,0,-6.87,6.65,0.26,1.54,2.21,-2.1,-28.125,-10.5625,20.9375,0.76287841796875,0.41387939453125,0.45635986328125,-0.19622802734375,15.875,-28.5625,23.5,-8.42,4.43,2.36,Climbing Up,4
3.17,3.12675342,27,3,3,3,0,-6.54,6.55,-0.02,1.85,2.09,-2.41,-23.75,-6.6875,20.75,0.76434326171875,0.4129638671875,0.45556640625,-0.19415283203125,15.875,-28.5625,23.5,-8.4,4.45,2.39,Climbing Up,4
3.18,3.12675342,27,3,3,3,0,-6.42,6.28,0.0,1.96,1.8,-2.41,-17.9375,-4.5625,20.5625,0.7655029296875,0.41253662109375,0.454833984375,-0.19219970703125,15.875,-28.5625,23.5,-8.38,4.47,2.41,Climbing Up,4
3.19,3.142220176,27,3,3,3,0,-6.43,5.84,0.27,1.92,1.34,-2.14,-13.375,-0.8125,19.625,0.766357421875,0.41241455078125,0.45428466796875,-0.1904296875,15.875,-28.5625,23.5,-8.36,4.5,2.42,Climbing Up,4
3.2,3.142220176,27,3,3,3,0,-6.33,5.21,0.7,2.02,0.69,-1.72,-12.0625,6.5,17.25,0.76678466796875,0.41241455078125,0.45428466796875,-0.18853759765625,15.875,-28.5625,23.5,-8.35,4.52,2.42,Climbing Up,4
3.21,3.156959922,27,3,3,3,0,-6.49,4.42,1.79,1.86,-0.11,-0.61,-12.9375,15.0625,14.0625,0.76690673828125,0.412353515625,0.45501708984375,-0.1865234375,15.875,-29.0,22.6875,-8.35,4.53,2.41,Climbing Up,4
3.22,3.156959922,27,3,3,3,0,-6.81,4.22,2.26,1.54,-0.32,-0.12,-14.4375,23.4375,11.6875,0.76666259765625,0.4122314453125,0.4564208984375,-0.184326171875,15.875,-29.0,22.6875,-8.35,4.54,2.38,Climbing Up,4
3.23,3.187267458,27,3,3,3,0,-7.03,3.96,2.41,1.32,-0.58,0.06,-18.6875,29.9375,8.875,0.76629638671875,0.41180419921875,0.45843505859375,-0.18194580078125,15.875,-29.0,22.6875,-8.35,4.55,2.35,Climbing Up,4
3.24,3.187267458,27,3,3,3,0,-7.2,3.83,1.84,1.16,-0.71,-0.47,-22.9375,34.1875,6.125,0.76580810546875,0.41107177734375,0.4608154296875,-0.17938232421875,15.875,-29.0,22.6875,-8.36,4.55,2.32,Climbing Up,4
3.25,3.202580934,27,3,3,3,0,-7.29,3.83,1.58,1.08,-0.71,-0.7,-23.625,36.3125,4.5,0.7652587890625,0.4102783203125,0.4635009765625,-0.17681884765625,15.875,-29.0,22.6875,-8.37,4.55,2.29,Climbing Up,4
3.26,3.202580934,27,3,3,3,0,-7.37,3.92,1.45,1.01,-0.62,-0.8,-21.875,36.5625,3.9375,0.76458740234375,0.40948486328125,0.46612548828125,-0.17431640625,15.875,-28.5625,22.6875,-8.39,4.54,2.25,Climbing Up,4
3.28,3.217313153,27,3,3,3,0,-7.35,4.08,1.43,1.04,-0.45,-0.77,-18.3125,35.8125,3.875,0.76385498046875,0.40899658203125,0.46868896484375,-0.17205810546875,15.875,-28.5625,22.6875,-8.4,4.54,2.21,Climbing Up,4
3.28,3.217313153,27,3,3,3,0,-7.3,4.43,1.72,1.1,-0.1,-0.45,-13.3125,33.0625,3.875,0.76300048828125,0.40875244140625,0.470947265625,-0.1700439453125,15.875,-28.5625,22.6875,-8.41,4.54,2.17,Climbing Up,4
3.29,3.248042116,27,3,3,3,0,-7.21,4.52,2.06,1.19,-0.02,-0.08,-9.625,29.125,3.9375,0.76220703125,0.40875244140625,0.472900390625,-0.1683349609375,15.875,-28.5625,22.6875,-8.41,4.54,2.14,Climbing Up,4
3.3,3.248042116,27,3,3,3,0,-7.1,4.53,2.19,1.32,-0.01,0.08,-8.1875,24.4375,3.9375,0.76153564453125,0.40869140625,0.4744873046875,-0.1668701171875,15.875,-28.5625,22.6875,-8.42,4.55,2.11,Climbing Up,4
3.31,3.263545371,27,3,3,3,0,-6.97,4.49,2.21,1.45,-0.05,0.12,-8.25,19.875,4.0,0.76104736328125,0.40863037109375,0.47576904296875,-0.16552734375,14.75,-29.375,22.25,-8.42,4.55,2.09,Climbing Up,4
3.32,3.263545371,27,3,3,3,0,-6.43,4.45,2.11,1.99,-0.1,0.03,-9.6875,15.1875,4.0625,0.7608642578125,0.40838623046875,0.476806640625,-0.164306640625,14.75,-29.375,22.25,-8.43,4.55,2.07,Climbing Up,4
3.33,3.276917441,27,3,3,3,0,-6.12,4.4,2.01,2.3,-0.15,-0.04,-11.1875,12.5,3.875,0.7607421875,0.407958984375,0.4776611328125,-0.16314697265625,14.75,-29.375,22.25,-8.43,4.55,2.06,Climbing Up,4
3.34,3.276917441,27,3,3,3,0,-5.86,4.32,1.86,2.56,-0.23,-0.19,-12.4375,11.9375,4.0625,0.7607421875,0.40753173828125,0.478515625,-0.16192626953125,14.75,-29.375,22.25,-8.43,4.56,2.05,Climbing Up,4
3.35,3.307747723,27,3,3,3,0,-5.71,4.21,1.65,2.72,-0.34,-0.39,-12.875,11.9375,4.1875,0.76080322265625,0.406982421875,0.47930908203125,-0.16070556640625,14.75,-29.375,22.25,-8.43,4.56,2.05,Climbing Up,4
3.36,3.307747723,27,3,3,3,0,-5.73,3.99,1.4,2.7,-0.56,-0.63,-12.3125,12.75,4.5625,0.7607421875,0.40655517578125,0.48016357421875,-0.159423828125,15.1875,-29.375,21.875,-8.43,4.56,2.04,Climbing Up,4
3.37,3.321923219,27,3,3,3,0,-5.74,3.84,1.24,2.69,-0.72,-0.78,-12.25,13.8125,4.875,0.76068115234375,0.4061279296875,0.4810791015625,-0.1580810546875,15.1875,-29.375,21.875,-8.43,4.56,2.03,Climbing Up,4
3.38,3.321923219,27,3,3,3,0,-5.7,3.71,1.17,2.73,-0.85,-0.84,-12.625,15.0,4.8125,0.76055908203125,0.40576171875,0.48211669921875,-0.15667724609375,15.1875,-29.375,21.875,-8.43,4.57,2.01,Climbing Up,4
3.39,3.337674928,27,3,3,3,0,-5.68,3.51,1.13,2.75,-1.06,-0.86,-13.4375,17.0625,4.75,0.7603759765625,0.4052734375,0.4832763671875,-0.15521240234375,15.1875,-29.375,21.875,-8.44,4.57,2.0,Climbing Up,4
3.4,3.337674928,27,3,3,3,0,-5.7,3.35,1.13,2.73,-1.21,-0.85,-14.25,19.625,4.0,0.76007080078125,0.40478515625,0.484619140625,-0.15362548828125,15.1875,-29.375,21.875,-8.44,4.57,1.98,Climbing Up,4
3.41,3.367653159,27,3,3,3,0,-5.74,3.26,1.16,2.69,-1.31,-0.79,-14.9375,22.875,2.9375,0.7596435546875,0.40423583984375,0.4862060546875,-0.1519775390625,15.875,-29.875,23.5,-8.44,4.57,1.96,Climbing Up,4
3.42,3.367653159,27,3,3,3,0,-5.77,3.12,1.19,2.67,-1.44,-0.74,-15.875,25.625,2.0,0.7591552734375,0.40362548828125,0.488037109375,-0.1502685546875,15.875,-29.875,23.5,-8.45,4.57,1.93,Climbing Up,4
3.43,3.383104697,27,3,3,3,0,-6.0,2.85,1.28,2.46,-1.71,-0.62,-16.1875,27.625,1.75,0.758544921875,0.4029541015625,0.49005126953125,-0.1484375,15.875,-29.875,23.5,-8.46,4.56,1.91,Climbing Up,4
3.45,3.383104697,27,3,3,3,0,-6.15,2.74,1.32,2.32,-1.81,-0.55,-16.0,28.1875,1.8125,0.7579345703125,0.40234375,0.4920654296875,-0.14666748046875,15.875,-29.875,23.5,-8.47,4.56,1.88,Climbing Up,4
3.45,3.397447878,27,3,3,3,0,-6.25,2.74,1.33,2.22,-1.82,-0.52,-15.375,27.125,2.625,0.75732421875,0.40179443359375,0.49395751953125,-0.14483642578125,15.875,-29.875,23.5,-8.47,4.56,1.85,Climbing Up,4
3.46,3.397447878,27,3,3,3,0,-6.37,2.79,1.33,2.1,-1.76,-0.49,-14.0,26.0625,3.75,0.75677490234375,0.4013671875,0.4957275390625,-0.14306640625,14.75,-29.25,23.0625,-8.48,4.56,1.82,Climbing Up,4
3.47,3.418169639,27,3,3,3,0,-6.37,2.79,1.33,2.1,-1.76,-0.49,-14.0,26.0625,3.75,0.75677490234375,0.4013671875,0.4957275390625,-0.14306640625,14.75,-29.25,23.0625,-8.48,4.56,1.82,Climbing Up,4
3.48,3.418169639,27,3,3,3,0,-6.81,3.13,1.33,1.67,-1.43,-0.46,-12.0625,25.3125,5.25,0.75616455078125,0.401123046875,0.49737548828125,-0.14129638671875,14.75,-29.25,23.0625,-8.48,4.57,1.79,Climbing Up,4
3.48,3.4272393,27,3,3,3,0,-7.11,3.32,1.38,1.37,-1.25,-0.38,-10.0,24.0,6.25,0.7554931640625,0.40106201171875,0.49884033203125,-0.1396484375,14.75,-29.25,23.0625,-8.49,4.57,1.77,Climbing Up,4
3.49,3.4272393,27,3,3,3,0,-7.35,3.55,1.46,1.13,-1.03,-0.28,-7.3125,22.25,7.3125,0.7548828125,0.40118408203125,0.5001220703125,-0.1380615234375,14.75,-29.25,23.0625,-8.49,4.58,1.74,Climbing Up,4
3.5,3.459095949,27,3,3,3,0,-7.65,3.81,1.62,0.84,-0.78,-0.09,-4.4375,20.4375,8.0625,0.7542724609375,0.4014892578125,0.50128173828125,-0.1365966796875,14.75,-29.25,23.0625,-8.49,4.59,1.71,Climbing Up,4
3.51,3.459095949,27,3,3,3,0,-8.45,4.42,1.84,0.03,-0.18,0.15,-1.9375,18.75,8.875,0.75360107421875,0.4019775390625,0.502197265625,-0.13525390625,15.1875,-29.5625,22.6875,-8.48,4.6,1.69,Climbing Up,4
3.53,3.472287803,27,3,3,3,0,-8.92,4.77,1.78,-0.44,0.15,0.11,-0.5,16.625,9.375,0.75299072265625,0.402587890625,0.50299072265625,-0.134033203125,15.1875,-29.5625,22.6875,-8.48,4.62,1.66,Climbing Up,4
3.53,3.472287803,27,3,3,3,0,-9.43,5.24,1.74,-0.95,0.6,0.1,-1.0625,12.0,9.125,0.7525634765625,0.403076171875,0.50347900390625,-0.13299560546875,15.1875,-29.5625,22.6875,-8.48,4.63,1.64,Climbing Up,4
3.54,3.487418622,27,3,3,3,0,-9.82,5.65,1.98,-1.34,1.0,0.34,-3.625,6.5625,8.9375,0.75250244140625,0.4033203125,0.50360107421875,-0.13201904296875,15.1875,-29.5625,22.6875,-8.47,4.64,1.64,Climbing Up,4
3.55,3.487418622,27,3,3,3,0,-10.59,6.39,2.78,-2.11,1.73,1.13,-10.3125,2.125,8.0,0.75286865234375,0.40301513671875,0.50360107421875,-0.13092041015625,15.1875,-29.5625,22.6875,-8.47,4.65,1.64,Climbing Up,4
3.56,3.51738493,27,3,3,3,0,-11.06,6.68,3.25,-2.59,2.02,1.59,-18.125,2.375,5.8125,0.75347900390625,0.402099609375,0.5037841796875,-0.129638671875,13.6875,-29.875,23.0625,-8.46,4.66,1.65,Climbing Up,4
3.58,3.51738493,27,3,3,3,0,-11.59,6.96,3.51,-3.13,2.3,1.84,-25.8125,3.375,2.625,0.7542724609375,0.40057373046875,0.50421142578125,-0.12823486328125,13.6875,-29.875,23.0625,-8.46,4.65,1.67,Climbing Up,4
3.59,3.532126914,27,3,3,3,0,-12.23,7.31,4.02,-3.77,2.66,2.32,-32.5,-0.25,-1.1875,0.75537109375,0.39837646484375,0.50457763671875,-0.12689208984375,13.6875,-29.875,23.0625,-8.46,4.64,1.7,Climbing Up,4
3.59,3.532126914,27,3,3,3,0,-12.27,7.49,4.18,-3.8,2.86,2.44,-37.75,-8.6875,-4.375,0.75701904296875,0.39556884765625,0.50457763671875,-0.12579345703125,13.6875,-29.875,23.0625,-8.46,4.62,1.74,Climbing Up,4
3.61,3.551604372,27,3,3,3,0,-12.08,7.58,4.02,-3.62,2.97,2.22,-40.4375,-16.75,-6.75,0.75909423828125,0.3924560546875,0.504150390625,-0.12506103515625,13.6875,-29.875,23.0625,-8.46,4.6,1.8,Climbing Up,4
3.61,3.551604372,27,3,3,3,0,-11.87,7.56,3.75,-3.41,2.97,1.88,-40.1875,-23.0625,-8.0,0.7613525390625,0.38916015625,0.5032958984375,-0.12457275390625,13.375,-29.875,22.6875,-8.46,4.58,1.86,Climbing Up,4
3.62,3.576767987,27,3,3,3,0,-11.74,7.5,3.44,-3.28,2.94,1.5,-37.1875,-26.5,-9.5,0.763671875,0.385986328125,0.50225830078125,-0.12451171875,13.375,-29.875,22.6875,-8.46,4.55,1.93,Climbing Up,4
3.63,3.576767987,27,3,3,3,0,-11.77,7.47,3.45,-3.3,2.94,1.45,-32.375,-28.5625,-10.625,0.76593017578125,0.383056640625,0.5010986328125,-0.124755859375,13.375,-29.875,22.6875,-8.46,4.52,2.0,Climbing Up,4
3.64,3.592115033,27,3,3,3,0,-11.73,7.46,3.66,-3.27,2.95,1.6,-28.25,-28.75,-11.9375,0.76800537109375,0.38031005859375,0.4998779296875,-0.125244140625,13.375,-29.875,22.6875,-8.46,4.5,2.06,Climbing Up,4
3.65,3.592115033,27,3,3,3,0,-11.76,7.3,3.69,-3.3,2.83,1.56,-25.1875,-28.6875,-13.4375,0.7698974609375,0.37774658203125,0.4986572265625,-0.1259765625,13.375,-29.875,22.6875,-8.46,4.47,2.13,Climbing Up,4
3.67,3.607326459,27,3,3,3,0,-11.7,7.0,3.63,-3.24,2.56,1.44,-23.3125,-30.875,-15.75,0.7718505859375,0.37518310546875,0.497314453125,-0.1270751953125,15.875,-30.6875,20.375,-8.46,4.44,2.19,Climbing Up,4
3.68,3.607326459,27,3,3,3,0,-11.5,6.89,3.51,-3.04,2.48,1.25,-23.0625,-33.4375,-18.0,0.77386474609375,0.3724365234375,0.49591064453125,-0.12835693359375,15.875,-30.6875,20.375,-8.46,4.4,2.26,Climbing Up,4
3.69,3.637676638,27,3,3,3,0,-11.35,6.79,3.29,-2.89,2.42,0.96,-24.125,-33.9375,-20.0625,0.77587890625,0.36956787109375,0.4945068359375,-0.1297607421875,15.875,-30.6875,20.375,-8.46,4.36,2.33,Climbing Up,4
3.7,3.637676638,27,3,3,3,0,-11.22,6.63,3.06,-2.75,2.3,0.66,-26.625,-33.1875,-21.75,0.7779541015625,0.366455078125,0.4932861328125,-0.13116455078125,15.875,-30.6875,20.375,-8.46,4.32,2.4,Climbing Up,4
3.7,3.654031984,27,3,3,3,0,-10.74,5.83,2.3,-2.27,1.55,-0.17,-29.1875,-32.375,-22.375,0.780029296875,0.3631591796875,0.49212646484375,-0.1324462890625,15.875,-30.6875,20.375,-8.47,4.27,2.47,Climbing Up,4
3.71,3.654031984,27,3,3,3,0,-10.27,5.19,1.99,-1.8,0.95,-0.54,-29.125,-32.5625,-22.0625,0.78204345703125,0.35986328125,0.49090576171875,-0.13372802734375,15.5625,-29.875,18.375,-8.47,4.23,2.54,Climbing Up,4
3.72,3.667673423,27,3,3,3,0,-9.78,4.51,1.62,-1.31,0.32,-0.99,-27.625,-33.6875,-22.0,0.78411865234375,0.35662841796875,0.4896240234375,-0.13507080078125,15.5625,-29.875,18.375,-8.47,4.18,2.61,Climbing Up,4
3.73,3.667673423,27,3,3,3,0,-8.88,3.71,0.99,-0.41,-0.42,-1.68,-25.5,-35.5625,-22.1875,0.78619384765625,0.353515625,0.4881591796875,-0.1365966796875,15.5625,-29.875,18.375,-8.47,4.14,2.68,Climbing Up,4
3.74,3.697078819,27,3,3,3,0,-8.5,3.46,0.67,-0.03,-0.63,-2.07,-21.4375,-36.4375,-22.0625,0.7880859375,0.35064697265625,0.486572265625,-0.1383056640625,15.5625,-29.875,18.375,-8.47,4.1,2.75,Climbing Up,4
3.75,3.697078819,27,3,3,3,0,-8.5,3.46,0.67,-0.03,-0.63,-2.07,-21.4375,-36.4375,-22.0625,0.7880859375,0.35064697265625,0.486572265625,-0.1383056640625,15.5625,-29.875,18.375,-8.47,4.1,2.75,Climbing Up,4
3.76,3.702496747,27,3,3,3,0,-8.32,3.17,0.37,0.15,-0.88,-2.44,-14.75,-33.9375,-21.5625,0.78973388671875,0.34832763671875,0.485107421875,-0.14019775390625,15.5625,-29.875,18.375,-8.47,4.06,2.81,Climbing Up,4
3.77,3.702496747,27,3,3,3,0,-8.19,2.87,0.13,0.28,-1.15,-2.72,-5.4375,-28.3125,-20.5625,0.79083251953125,0.34674072265625,0.48382568359375,-0.14227294921875,17.0,-28.875,14.875,-8.47,4.02,2.85,Climbing Up,4
3.78,3.727895266,27,3,3,3,0,-8.14,2.31,-0.2,0.33,-1.68,-3.09,3.625,-22.5625,-18.6875,0.79144287109375,0.345947265625,0.4827880859375,-0.14434814453125,17.0,-28.875,14.875,-8.47,4.0,2.88,Climbing Up,4
3.78,3.727895266,27,3,3,3,0,-8.15,2.13,-0.17,0.32,-1.85,-3.07,13.3125,-18.375,-17.25,0.7916259765625,0.34588623046875,0.48187255859375,-0.14666748046875,17.0,-28.875,14.875,-8.47,3.98,2.9,Climbing Up,4
3.79,3.743105511,27,3,3,3,0,-8.19,2.0,0.0,0.28,-1.96,-2.9,22.1875,-12.8125,-16.5625,0.791259765625,0.3465576171875,0.481201171875,-0.149169921875,17.0,-28.875,14.875,-8.48,3.97,2.9,Climbing Up,4
3.8,3.743105511,27,3,3,3,0,-8.4,2.06,0.02,0.08,-1.89,-2.87,29.375,-6.0,-16.375,0.7904052734375,0.34783935546875,0.48089599609375,-0.15167236328125,17.0,-28.875,14.875,-8.49,3.96,2.89,Climbing Up,4
3.81,3.758215008,27,3,3,3,0,-8.99,2.14,0.35,-0.49,-1.8,-2.52,34.4375,0.0,-16.0,0.78912353515625,0.34954833984375,0.48095703125,-0.15423583984375,16.6875,-29.375,13.25,-8.5,3.95,2.87,Climbing Up,4
3.82,3.758215008,27,3,3,3,0,-9.09,2.23,0.72,-0.58,-1.71,-2.1,36.1875,5.6875,-16.3125,0.78753662109375,0.3514404296875,0.48138427734375,-0.15667724609375,16.6875,-29.375,13.25,-8.51,3.94,2.83,Climbing Up,4
3.84,3.788896649,27,3,3,3,0,-9.25,2.35,1.23,-0.72,-1.58,-1.55,36.3125,11.8125,-17.625,0.78564453125,0.3533935546875,0.48223876953125,-0.1590576171875,16.6875,-29.375,13.25,-8.53,3.94,2.79,Climbing Up,4
3.85,3.788896649,27,3,3,3,0,-9.5,2.47,1.79,-0.94,-1.45,-0.94,36.8125,16.5625,-18.75,0.7835693359375,0.3553466796875,0.48345947265625,-0.161376953125,16.6875,-29.375,13.25,-8.55,3.93,2.74,Climbing Up,4
3.86,3.802067344,27,3,3,3,0,-9.48,2.8,2.9,-0.91,-1.11,0.21,38.625,19.5,-19.125,0.78125,0.35748291015625,0.48486328125,-0.16375732421875,16.6875,-29.375,13.25,-8.57,3.92,2.68,Climbing Up,4
3.86,3.802067344,27,3,3,3,0,-9.28,2.82,3.52,-0.68,-1.08,0.88,42.6875,19.0625,-18.6875,0.77880859375,0.35986328125,0.48614501953125,-0.16619873046875,17.0625,-28.5625,13.6875,-8.59,3.91,2.63,Climbing Up,4
3.87,3.817459434,27,3,3,3,0,-9.16,2.91,3.56,-0.54,-0.99,0.99,45.5,14.5625,-18.375,0.7764892578125,0.36236572265625,0.487060546875,-0.1689453125,17.0625,-28.5625,13.6875,-8.61,3.9,2.57,Climbing Up,4
3.88,3.817459434,27,3,3,3,0,-8.72,3.19,3.05,-0.09,-0.69,0.5,44.625,3.5,-17.8125,0.774658203125,0.36468505859375,0.48724365234375,-0.17193603515625,17.0625,-28.5625,13.6875,-8.63,3.89,2.54,Climbing Up,4
3.89,3.847738527,27,3,3,3,0,-8.38,3.18,2.79,0.25,-0.7,0.27,41.125,-7.6875,-17.6875,0.77337646484375,0.36663818359375,0.48663330078125,-0.17510986328125,17.0625,-28.5625,13.6875,-8.64,3.88,2.52,Climbing Up,4
3.91,3.847738527,27,3,3,3,0,-8.1,3.07,2.77,0.54,-0.8,0.25,37.0,-14.4375,-17.75,0.77252197265625,0.36810302734375,0.4857177734375,-0.1783447265625,17.0625,-28.5625,13.6875,-8.64,3.87,2.52,Climbing Up,4
3.92,3.8633112,27,3,3,3,0,-7.7,3.1,2.59,0.94,-0.76,0.06,32.4375,-17.0,-17.8125,0.77191162109375,0.36932373046875,0.484619140625,-0.18145751953125,18.1875,-27.875,14.75,-8.65,3.86,2.52,Climbing Up,4
3.93,3.8633112,27,3,3,3,0,-7.02,2.96,2.25,1.63,-0.88,-0.27,30.1875,-20.25,-17.375,0.771484375,0.37030029296875,0.48333740234375,-0.1845703125,18.1875,-27.875,14.75,-8.65,3.85,2.53,Climbing Up,4
3.94,3.876934572,27,3,3,3,0,-6.67,2.89,2.18,1.98,-0.94,-0.36,29.8125,-22.875,-16.75,0.77117919921875,0.3712158203125,0.48187255859375,-0.187744140625,18.1875,-27.875,14.75,-8.65,3.84,2.54,Climbing Up,4
3.95,3.876934572,27,3,3,3,0,-6.35,2.72,2.03,2.3,-1.1,-0.53,29.6875,-22.6875,-16.0,0.77093505859375,0.37213134765625,0.48040771484375,-0.1907958984375,18.1875,-27.875,14.75,-8.65,3.82,2.56,Climbing Up,4
3.95,3.90940906,27,3,3,3,0,-6.01,2.64,1.89,2.63,-1.17,-0.67,29.9375,-21.25,-15.3125,0.77056884765625,0.3731689453125,0.47900390625,-0.19378662109375,18.1875,-27.875,14.75,-8.65,3.81,2.57,Climbing Up,4
3.96,3.90940906,27,3,3,3,0,-5.5,2.43,1.63,3.15,-1.37,-0.94,29.75,-18.6875,-14.625,0.7701416015625,0.374267578125,0.47772216796875,-0.19659423828125,20.0,-26.75,15.5,-8.65,3.81,2.58,Climbing Up,4
3.97,3.9225341,27,3,3,3,0,-5.37,2.35,1.52,3.28,-1.45,-1.05,29.375,-14.375,-13.8125,0.76953125,0.37542724609375,0.4766845703125,-0.19921875,20.0,-26.75,15.5,-8.66,3.8,2.58,Climbing Up,4
3.99,3.9225341,27,3,3,3,0,-5.21,2.27,1.47,3.45,-1.52,-1.1,29.375,-9.5625,-13.125,0.7686767578125,0.37664794921875,0.47601318359375,-0.20166015625,20.0,-26.75,15.5,-8.66,3.79,2.58,Climbing Up,4
4.0,3.937800824,27,3,3,3,0,-5.11,2.27,1.43,3.55,-1.51,-1.12,29.625,-4.0,-11.625,0.7677001953125,0.37811279296875,0.4755859375,-0.20379638671875,20.0,-26.75,15.5,-8.67,3.79,2.56,Climbing Up,4
4.01,3.937800824,27,3,3,3,0,-5.0,2.37,1.28,3.67,-1.41,-1.25,30.375,1.4375,-9.5625,0.76641845703125,0.3797607421875,0.4754638671875,-0.2056884765625,20.0,-26.75,15.5,-8.67,3.79,2.54,Climbing Up,4
4.02,3.968184572,27,3,3,3,0,-5.0,2.39,1.18,3.68,-1.39,-1.32,31.875,5.8125,-7.375,0.7650146484375,0.38165283203125,0.47552490234375,-0.207275390625,20.0625,-26.0625,15.0625,-8.68,3.79,2.51,Climbing Up,4
4.03,3.968184572,27,3,3,3,0,-5.05,2.52,1.09,3.63,-1.27,-1.37,33.6875,10.0625,-5.1875,0.76336669921875,0.3839111328125,0.47576904296875,-0.20867919921875,20.0625,-26.0625,15.0625,-8.69,3.79,2.47,Climbing Up,4
4.03,3.982468101,27,3,3,3,0,-5.23,2.63,1.0,3.46,-1.17,-1.43,35.1875,12.75,-2.875,0.76153564453125,0.3863525390625,0.47613525390625,-0.2099609375,20.0625,-26.0625,15.0625,-8.7,3.81,2.43,Climbing Up,4
4.04,3.982468101,27,3,3,3,0,-5.23,2.63,1.0,3.46,-1.17,-1.43,35.1875,12.75,-2.875,0.76153564453125,0.3863525390625,0.47613525390625,-0.2099609375,20.0625,-26.0625,15.0625,-8.7,3.81,2.43,Climbing Up,4
4.05,3.997182823,27,3,3,3,0,-5.62,2.87,1.3,3.08,-0.95,-1.08,35.9375,15.125,-0.3125,0.75970458984375,0.3890380859375,0.4764404296875,-0.2109375,20.0625,-26.0625,15.0625,-8.7,3.82,2.38,Climbing Up,4
4.05,3.997182823,27,3,3,3,0,-5.84,2.99,1.46,2.87,-0.85,-0.86,36.25,18.5,2.125,0.75775146484375,0.391845703125,0.47698974609375,-0.211669921875,20.0625,-26.0625,15.0625,-8.71,3.84,2.33,Climbing Up,4
4.07,4.013614504,27,3,3,3,0,-6.04,3.02,1.76,2.67,-0.84,-0.5,35.5,21.625,4.125,0.75567626953125,0.394775390625,0.47760009765625,-0.21209716796875,19.6875,-26.5,16.6875,-8.72,3.86,2.27,Climbing Up,4
4.08,4.013614504,27,3,3,3,0,-6.78,3.2,2.17,1.94,-0.67,-0.04,35.4375,23.5,5.375,0.7535400390625,0.39776611328125,0.47833251953125,-0.21246337890625,19.6875,-26.5,16.6875,-8.72,3.88,2.21,Climbing Up,4
4.09,4.0273407,27,3,3,3,0,-7.18,3.29,2.26,1.55,-0.6,0.11,35.9375,23.6875,6.1875,0.75140380859375,0.40081787109375,0.47900390625,-0.21270751953125,19.6875,-26.5,16.6875,-8.73,3.9,2.15,Climbing Up,4
4.1,4.0273407,27,3,3,3,0,-7.51,3.3,2.27,1.22,-0.62,0.17,35.5,21.0625,6.625,0.74945068359375,0.40380859375,0.4794921875,-0.2130126953125,19.6875,-26.5,16.6875,-8.73,3.93,2.09,Climbing Up,4
4.11,4.058476931,27,3,3,3,0,-7.85,3.33,2.23,0.88,-0.61,0.18,33.9375,16.9375,6.125,0.74761962890625,0.4066162109375,0.479736328125,-0.21343994140625,19.6875,-26.5,16.6875,-8.73,3.95,2.04,Climbing Up,4
4.11,4.058476931,27,3,3,3,0,-8.69,3.42,2.08,0.04,-0.54,0.08,31.8125,15.25,5.625,0.7459716796875,0.4091796875,0.47998046875,-0.2138671875,19.6875,-25.5,17.5625,-8.73,3.97,2.0,Climbing Up,4
4.12,4.072343915,27,3,3,3,0,-9.01,3.46,2.09,-0.27,-0.52,0.13,30.5625,15.25,5.5625,0.74432373046875,0.4117431640625,0.480224609375,-0.2142333984375,19.6875,-25.5,17.5625,-8.74,3.99,1.95,Climbing Up,4
4.13,4.072343915,27,3,3,3,0,-9.29,3.51,2.16,-0.55,-0.49,0.24,28.875,14.5625,5.0625,0.74273681640625,0.4140625,0.48040771484375,-0.214599609375,19.6875,-25.5,17.5625,-8.74,4.01,1.91,Climbing Up,4
4.15,4.086626955,27,3,3,3,0,-9.63,3.53,2.37,-0.88,-0.49,0.49,27.0625,14.4375,4.625,0.7412109375,0.41632080078125,0.480712890625,-0.21490478515625,19.6875,-25.5,17.5625,-8.74,4.02,1.87,Climbing Up,4
4.16,4.086626955,27,3,3,3,0,-10.75,3.68,2.63,-2.01,-0.35,0.8,25.125,15.4375,5.0,0.73974609375,0.41839599609375,0.4810791015625,-0.215087890625,19.6875,-25.5,17.5625,-8.74,4.04,1.83,Climbing Up,4
4.17,4.117467043,27,3,3,3,0,-11.33,3.69,2.96,-2.58,-0.36,1.17,24.0,15.25,5.5,0.73834228515625,0.42047119140625,0.48138427734375,-0.21514892578125,19.6875,-25.5,19.1875,-8.74,4.05,1.79,Climbing Up,4
4.18,4.117467043,27,3,3,3,0,-11.85,3.71,3.23,-3.11,-0.35,1.47,23.125,14.4375,6.5,0.73699951171875,0.4224853515625,0.481689453125,-0.2152099609375,19.6875,-25.5,19.1875,-8.74,4.07,1.75,Climbing Up,4
4.19,4.133682538,27,3,3,3,0,-12.16,3.8,3.36,-3.42,-0.28,1.64,22.0,12.5625,8.0625,0.73577880859375,0.42449951171875,0.48175048828125,-0.21514892578125,19.6875,-25.5,19.1875,-8.74,4.09,1.72,Climbing Up,4
4.2,4.133682538,27,3,3,3,0,-12.75,3.97,3.62,-4.02,-0.13,1.93,21.3125,9.9375,9.9375,0.73480224609375,0.42645263671875,0.48162841796875,-0.21502685546875,19.6875,-25.5,19.1875,-8.73,4.11,1.68,Climbing Up,4
4.2,4.148001345,27,3,3,3,0,-12.94,4.12,3.65,-4.21,-0.01,1.99,20.375,6.5,12.0625,0.73394775390625,0.42840576171875,0.48126220703125,-0.21490478515625,19.6875,-25.5,19.1875,-8.73,4.13,1.66,Climbing Up,4
4.21,4.148001345,27,3,3,3,0,-12.95,4.18,3.67,-4.22,0.01,2.02,19.3125,1.3125,14.375,0.73345947265625,0.43023681640625,0.48040771484375,-0.2147216796875,19.0,-25.6875,21.875,-8.72,4.16,1.64,Climbing Up,4
4.23,4.177977338,27,3,3,3,0,-13.3,4.22,3.63,-4.59,0.02,1.99,18.5,-2.0625,17.0625,0.733154296875,0.43212890625,0.47930908203125,-0.21453857421875,19.0,-25.6875,21.875,-8.71,4.19,1.63,Climbing Up,4
4.24,4.177977338,27,3,3,3,0,-13.5,4.37,3.74,-4.81,0.14,2.11,16.8125,-2.625,19.5,0.73297119140625,0.4339599609375,0.47808837890625,-0.214111328125,19.0,-25.6875,21.875,-8.69,4.23,1.63,Climbing Up,4
4.25,4.19197864,27,3,3,3,0,-13.66,4.5,3.81,-4.99,0.24,2.18,14.1875,-3.0625,20.3125,0.73297119140625,0.43560791015625,0.47686767578125,-0.2135009765625,19.0,-25.6875,21.875,-8.67,4.26,1.62,Climbing Up,4
4.26,4.19197864,27,3,3,3,0,-13.68,4.54,3.92,-5.02,0.24,2.29,11.75,-5.875,19.625,0.733154296875,0.43707275390625,0.47552490234375,-0.21295166015625,19.0,-25.6875,21.875,-8.66,4.29,1.62,Climbing Up,4
4.27,4.207964683,27,3,3,3,0,-13.21,4.84,3.56,-4.56,0.51,1.93,9.25,-11.5,18.875,0.73358154296875,0.438232421875,0.47393798828125,-0.21258544921875,19.375,-25.375,21.5,-8.64,4.32,1.63,Climbing Up,4
4.28,4.207964683,27,3,3,3,0,-12.8,4.93,3.29,-4.18,0.57,1.63,7.25,-19.0625,17.5625,0.73443603515625,0.43902587890625,0.471923828125,-0.2125244140625,19.375,-25.375,21.5,-8.62,4.35,1.65,Climbing Up,4
4.28,4.237139244,27,3,3,3,0,-12.44,5.08,2.89,-3.83,0.69,1.2,6.0,-25.125,15.375,0.73553466796875,0.4395751953125,0.4696044921875,-0.2127685546875,19.375,-25.375,21.5,-8.6,4.38,1.69,Climbing Up,4
4.29,4.237139244,27,3,3,3,0,-12.22,5.34,2.5,-3.63,0.94,0.77,5.4375,-27.125,11.9375,0.73663330078125,0.43988037109375,0.46728515625,-0.21331787109375,19.375,-25.375,21.5,-8.59,4.4,1.72,Climbing Up,4
4.3,4.242951377,27,3,3,3,0,-12.22,5.34,2.5,-3.63,0.94,0.77,5.4375,-27.125,11.9375,0.73663330078125,0.43988037109375,0.46728515625,-0.21331787109375,19.375,-25.375,21.5,-8.59,4.4,1.72,Climbing Up,4
4.31,4.242951377,27,3,3,3,0,-12.06,6.11,1.84,-3.48,1.7,0.08,3.6875,-26.3125,7.9375,0.73773193359375,0.43994140625,0.4652099609375,-0.2139892578125,19.375,-25.375,21.5,-8.57,4.41,1.76,Climbing Up,4
4.32,4.267183026,27,3,3,3,0,-11.72,6.37,1.64,-3.15,1.95,-0.15,-0.0625,-23.8125,4.0,0.73876953125,0.43963623046875,0.46356201171875,-0.21466064453125,19.375,-26.0,21.875,-8.56,4.41,1.8,Climbing Up,4
4.33,4.267183026,27,3,3,3,0,-11.2,6.57,1.47,-2.64,2.15,-0.35,-5.4375,-20.375,0.3125,0.73980712890625,0.43890380859375,0.46234130859375,-0.2152099609375,19.375,-26.0,21.875,-8.56,4.41,1.83,Climbing Up,4
4.34,4.282040814,27,3,3,3,0,-10.59,6.57,1.32,-2.03,2.17,-0.54,-11.5,-18.5625,-3.0625,0.74090576171875,0.4376220703125,0.46148681640625,-0.2156982421875,19.375,-26.0,21.875,-8.55,4.4,1.87,Climbing Up,4
4.35,4.282040814,27,3,3,3,0,-8.76,6.3,0.9,-0.21,1.9,-1.01,-17.5,-20.5625,-5.625,0.7423095703125,0.43585205078125,0.46075439453125,-0.21612548828125,19.375,-26.0,21.875,-8.55,4.39,1.91,Climbing Up,4
4.36,4.313415285,27,3,3,3,0,-8.05,6.28,0.57,0.49,1.9,-1.39,-23.375,-24.0,-6.375,0.7440185546875,0.43365478515625,0.4598388671875,-0.216552734375,19.375,-26.0,21.875,-8.55,4.37,1.97,Climbing Up,4
4.37,4.313415285,27,3,3,3,0,-7.59,6.33,0.21,0.95,1.97,-1.81,-28.6875,-25.75,-5.75,0.74603271484375,0.4310302734375,0.458984375,-0.21673583984375,19.375,-24.5625,20.375,-8.54,4.35,2.03,Climbing Up,4
4.38,4.326718752,27,3,3,3,0,-6.82,6.29,-0.47,1.71,1.95,-2.56,-31.125,-22.8125,-4.8125,0.748046875,0.4283447265625,0.458251953125,-0.2166748046875,19.375,-24.5625,20.375,-8.54,4.33,2.08,Climbing Up,4
4.39,4.326718752,27,3,3,3,0,-6.51,6.32,-0.69,2.02,2.0,-2.83,-31.625,-17.125,-3.9375,0.74981689453125,0.42584228515625,0.4578857421875,-0.21630859375,19.375,-24.5625,20.375,-8.54,4.31,2.13,Climbing Up,4
4.4,4.342194419,27,3,3,3,0,-6.3,6.34,-0.76,2.23,2.03,-2.94,-30.6875,-10.6875,-2.6875,0.7513427734375,0.4234619140625,0.4578857421875,-0.2156982421875,19.375,-24.5625,20.375,-8.53,4.3,2.17,Climbing Up,4
4.41,4.342194419,27,3,3,3,0,-6.16,6.24,-0.75,2.37,1.95,-2.96,-27.8125,-3.5625,-1.375,0.75244140625,0.42156982421875,0.458251953125,-0.21478271484375,19.375,-24.5625,20.375,-8.53,4.29,2.2,Climbing Up,4
4.42,4.357873659,27,3,3,3,0,-6.34,5.5,-0.4,2.19,1.22,-2.62,-23.4375,2.625,0.0625,0.75323486328125,0.4200439453125,0.4588623046875,-0.2137451171875,19.0,-24.5625,17.1875,-8.53,4.28,2.21,Climbing Up,4
4.43,4.357873659,27,3,3,3,0,-6.34,4.92,-0.02,2.19,0.65,-2.24,-19.1875,8.0,0.5625,0.75360107421875,0.4189453125,0.459716796875,-0.212646484375,19.0,-24.5625,17.1875,-8.54,4.27,2.21,Climbing Up,4
4.44,4.390578005,27,3,3,3,0,-6.27,4.41,0.55,2.27,0.14,-1.66,-17.1875,11.6875,0.25,0.75372314453125,0.41802978515625,0.4608154296875,-0.2115478515625,19.0,-24.5625,17.1875,-8.54,4.26,2.21,Climbing Up,4
4.45,4.390578005,27,3,3,3,0,-6.34,4.1,1.2,2.2,-0.15,-1.0,-17.3125,14.75,-0.9375,0.7537841796875,0.41717529296875,0.462158203125,-0.21038818359375,19.0,-24.5625,17.1875,-8.55,4.26,2.2,Climbing Up,4
4.46,4.402257937,27,3,3,3,0,-6.82,3.75,2.05,1.73,-0.48,-0.13,-20.8125,16.4375,-2.6875,0.7537841796875,0.41595458984375,0.4637451171875,-0.2091064453125,19.0,-24.5625,17.1875,-8.56,4.24,2.19,Climbing Up,4
4.47,4.402257937,27,3,3,3,0,-7.04,3.52,2.12,1.52,-0.7,-0.06,-25.5625,15.875,-4.5,0.75396728515625,0.4144287109375,0.46539306640625,-0.207763671875,20.75,-25.6875,18.0,-8.57,4.23,2.19,Climbing Up,4
4.48,4.41734953,27,3,3,3,0,-7.14,3.32,2.09,1.43,-0.88,-0.09,-29.25,14.5625,-6.3125,0.75433349609375,0.4124755859375,0.46710205078125,-0.20648193359375,20.75,-25.6875,18.0,-8.58,4.21,2.18,Climbing Up,4
4.49,4.41734953,27,3,3,3,0,-7.16,3.26,1.98,1.42,-0.92,-0.2,-31.25,12.5,-7.25,0.7547607421875,0.410400390625,0.46881103515625,-0.20526123046875,20.75,-25.6875,18.0,-8.59,4.18,2.19,Climbing Up,4
4.5,4.447249066,27,3,3,3,0,-7.2,3.27,2.03,1.39,-0.88,-0.16,-31.75,9.625,-7.375,0.75537109375,0.40814208984375,0.47027587890625,-0.20404052734375,20.75,-25.6875,18.0,-8.6,4.16,2.2,Climbing Up,4
4.51,4.447249066,27,3,3,3,0,-7.09,3.24,2.11,1.51,-0.9,-0.09,-31.9375,7.0625,-6.6875,0.756103515625,0.40594482421875,0.4715576171875,-0.20294189453125,20.75,-25.6875,18.0,-8.6,4.14,2.21,Climbing Up,4
4.52,4.462420982,27,3,3,3,0,-6.91,3.19,2.21,1.7,-0.92,-0.01,-32.0625,4.5625,-5.5625,0.7569580078125,0.4036865234375,0.47259521484375,-0.20184326171875,19.375,-24.5625,16.0,-8.61,4.12,2.23,Climbing Up,4
4.53,4.462420982,27,3,3,3,0,-6.71,3.21,2.36,1.9,-0.88,0.11,-31.5625,2.125,-3.6875,0.75787353515625,0.4014892578125,0.47344970703125,-0.20068359375,19.375,-24.5625,16.0,-8.61,4.1,2.24,Climbing Up,4
4.54,4.47639787,27,3,3,3,0,-6.2,3.17,2.45,2.41,-0.91,0.18,-31.125,0.0,-1.9375,0.75897216796875,0.39935302734375,0.47406005859375,-0.19952392578125,19.375,-24.5625,16.0,-8.61,4.08,2.27,Climbing Up,4
4.55,4.47639787,27,3,3,3,0,-5.9,3.24,2.35,2.71,-0.82,0.06,-31.25,-1.875,0.1875,0.76007080078125,0.397216796875,0.4744873046875,-0.19830322265625,19.375,-24.5625,16.0,-8.61,4.07,2.29,Climbing Up,4
4.56,4.507970461,27,3,3,3,0,-5.66,3.19,2.33,2.95,-0.87,0.01,-31.0,-2.6875,1.8125,0.76129150390625,0.39520263671875,0.47479248046875,-0.197021484375,19.375,-24.5625,16.0,-8.61,4.06,2.32,Climbing Up,4
4.57,4.507970461,27,3,3,3,0,-5.35,3.13,1.97,3.25,-0.92,-0.37,-30.375,-1.1875,3.3125,0.762451171875,0.393310546875,0.47509765625,-0.195556640625,20.75,-24.1875,15.5625,-8.61,4.05,2.34,Climbing Up,4
4.58,4.522075849,27,3,3,3,0,-5.27,3.09,1.81,3.33,-0.95,-0.54,-28.625,1.875,5.0,0.763427734375,0.39166259765625,0.47552490234375,-0.1939697265625,20.75,-24.1875,15.5625,-8.61,4.05,2.36,Climbing Up,4
4.59,4.522075849,27,3,3,3,0,-5.28,3.06,1.83,3.32,-0.99,-0.53,-25.875,5.0625,6.9375,0.76422119140625,0.39031982421875,0.47607421875,-0.1922607421875,20.75,-24.1875,15.5625,-8.6,4.05,2.37,Climbing Up,4
4.6,4.536855797,27,3,3,3,0,-5.35,3.02,1.86,3.24,-1.03,-0.5,-23.0625,9.1875,8.9375,0.7647705078125,0.3892822265625,0.476806640625,-0.19036865234375,20.75,-24.1875,15.5625,-8.6,4.05,2.37,Climbing Up,4
4.61,4.536855797,27,3,3,3,0,-5.58,3.05,1.91,3.02,-1.01,-0.45,-20.3125,13.6875,11.1875,0.76507568359375,0.38861083984375,0.4776611328125,-0.18829345703125,20.75,-24.1875,15.5625,-8.6,4.06,2.36,Climbing Up,4
4.62,4.567247927,27,3,3,3,0,-5.72,3.04,1.91,2.87,-1.03,-0.43,-17.1875,17.6875,13.375,0.76513671875,0.38836669921875,0.4786376953125,-0.18609619140625,19.375,-25.0,13.6875,-8.6,4.08,2.35,Climbing Up,4
4.63,4.567247927,27,3,3,3,0,-5.9,3.07,1.96,2.69,-1.01,-0.36,-14.0625,21.1875,15.4375,0.76495361328125,0.38836669921875,0.47979736328125,-0.1837158203125,19.375,-25.0,13.6875,-8.59,4.09,2.33,Climbing Up,4
4.63,4.572935753,27,3,3,3,0,-5.9,3.07,1.96,2.69,-1.01,-0.36,-14.0625,21.1875,15.4375,0.76495361328125,0.38836669921875,0.47979736328125,-0.1837158203125,19.375,-25.0,13.6875,-8.59,4.09,2.33,Climbing Up,4
4.64,4.572935753,27,3,3,3,0,-6.17,3.13,2.03,2.41,-0.98,-0.26,-11.9375,24.8125,17.3125,0.7646484375,0.38873291015625,0.48101806640625,-0.18121337890625,19.375,-25.0,13.6875,-8.59,4.11,2.3,Climbing Up,4
4.65,4.597163292,27,3,3,3,0,-6.79,3.18,2.12,1.79,-0.95,-0.14,-10.4375,27.75,19.0,0.76409912109375,0.3892822265625,0.482421875,-0.1785888671875,19.375,-25.0,13.6875,-8.59,4.14,2.27,Climbing Up,4
4.66,4.597163292,27,3,3,3,0,-7.09,3.26,2.14,1.49,-0.91,-0.08,-8.3125,30.0,20.5,0.763427734375,0.39007568359375,0.48382568359375,-0.17584228515625,19.375,-25.0,13.6875,-8.59,4.17,2.23,Climbing Up,4
4.67,4.612812421,27,3,3,3,0,-7.36,3.35,2.12,1.21,-0.85,-0.05,-5.625,31.875,21.875,0.76263427734375,0.39111328125,0.48529052734375,-0.17303466796875,19.375,-24.1875,14.0,-8.58,4.2,2.18,Climbing Up,4
4.68,4.612812421,27,3,3,3,0,-7.64,3.49,2.05,0.93,-0.74,-0.08,-2.9375,32.5625,22.875,0.76165771484375,0.392333984375,0.48675537109375,-0.1702880859375,19.375,-24.1875,14.0,-8.58,4.23,2.14,Climbing Up,4
4.69,4.627310875,27,3,3,3,0,-8.22,3.78,2.26,0.35,-0.48,0.17,0.0,31.4375,23.9375,0.76068115234375,0.39385986328125,0.48797607421875,-0.1676025390625,19.375,-24.1875,14.0,-8.57,4.27,2.09,Climbing Up,4
4.7,4.627310875,27,3,3,3,0,-8.47,3.95,2.38,0.08,-0.35,0.34,2.8125,31.125,24.6875,0.7596435546875,0.3955078125,0.48919677734375,-0.1650390625,19.375,-24.1875,14.0,-8.56,4.3,2.04,Climbing Up,4
4.71,4.658037559,27,3,3,3,0,-8.77,4.11,2.42,-0.21,-0.22,0.43,4.6875,29.6875,24.625,0.758544921875,0.3973388671875,0.490234375,-0.16253662109375,19.375,-24.1875,14.0,-8.56,4.34,1.99,Climbing Up,4
4.72,4.658037559,27,3,3,3,0,-9.36,4.47,2.57,-0.81,0.09,0.62,6.8125,26.625,23.875,0.75750732421875,0.399169921875,0.49102783203125,-0.16033935546875,20.0625,-25.375,15.5625,-8.55,4.38,1.95,Climbing Up,4
4.73,4.672594688,27,3,3,3,0,-9.63,4.65,2.68,-1.09,0.23,0.77,8.8125,23.0,22.0625,0.75653076171875,0.4010009765625,0.49169921875,-0.158447265625,20.0625,-25.375,15.5625,-8.54,4.42,1.91,Climbing Up,4
4.74,4.672594688,27,3,3,3,0,-9.74,4.77,2.77,-1.21,0.31,0.9,9.6875,19.5625,19.875,0.755615234375,0.40277099609375,0.49212646484375,-0.1568603515625,20.0625,-25.375,15.5625,-8.53,4.45,1.87,Climbing Up,4
4.75,4.68683476,27,3,3,3,0,-9.71,4.94,2.88,-1.19,0.46,1.04,8.5625,17.0,17.5625,0.75482177734375,0.40435791015625,0.49249267578125,-0.155517578125,20.0625,-25.375,15.5625,-8.52,4.48,1.84,Climbing Up,4
4.76,4.68683476,27,3,3,3,0,-9.62,5.23,2.79,-1.11,0.72,0.97,5.5,14.3125,15.5,0.75421142578125,0.40557861328125,0.49285888671875,-0.1541748046875,20.0625,-25.375,15.5625,-8.51,4.5,1.81,Climbing Up,4
4.77,4.71716024,27,3,3,3,0,-9.62,5.48,2.64,-1.11,0.95,0.85,2.5,10.8125,13.625,0.75384521484375,0.406494140625,0.4930419921875,-0.15301513671875,19.0,-24.5625,17.5625,-8.5,4.53,1.79,Climbing Up,4
4.78,4.71716024,27,3,3,3,0,-9.59,5.72,2.53,-1.08,1.17,0.75,-0.5625,7.125,11.8125,0.75372314453125,0.40704345703125,0.49310302734375,-0.1519775390625,19.0,-24.5625,17.5625,-8.5,4.54,1.78,Climbing Up,4
4.79,4.731872276,27,3,3,3,0,-9.7,6.07,2.29,-1.2,1.51,0.51,-3.125,5.5625,10.25,0.75372314453125,0.4073486328125,0.4931640625,-0.15093994140625,19.0,-24.5625,17.5625,-8.49,4.56,1.78,Climbing Up,4
4.8,4.731872276,27,3,3,3,0,-10.05,6.73,2.41,-1.56,2.15,0.64,-3.0,5.5625,8.75,0.75372314453125,0.4075927734375,0.49322509765625,-0.1500244140625,19.0,-24.5625,17.5625,-8.49,4.57,1.77,Climbing Up,4
4.81,4.74720272,27,3,3,3,0,-10.19,6.92,2.71,-1.71,2.33,0.94,-0.875,5.4375,7.8125,0.75360107421875,0.407958984375,0.49334716796875,-0.1492919921875,19.0,-24.5625,17.5625,-8.48,4.58,1.76,Climbing Up,4
4.82,4.74720272,27,3,3,3,0,-10.35,7.13,3.02,-1.87,2.53,1.26,1.3125,4.8125,6.875,0.75341796875,0.40838623046875,0.49334716796875,-0.14874267578125,18.5625,-25.375,17.1875,-8.48,4.59,1.76,Climbing Up,4
4.83,4.77757003,27,3,3,3,0,-10.53,7.29,3.23,-2.05,2.69,1.48,2.875,2.8125,5.1875,0.7532958984375,0.40887451171875,0.49334716796875,-0.14837646484375,18.5625,-25.375,17.1875,-8.47,4.6,1.75,Climbing Up,4
4.84,4.77757003,27,3,3,3,0,-10.81,7.27,3.5,-2.33,2.66,1.75,3.3125,-0.1875,3.0625,0.75323486328125,0.4091796875,0.4931640625,-0.1483154296875,18.5625,-25.375,17.1875,-8.47,4.61,1.75,Climbing Up,4
4.85,4.791879438,27,3,3,3,0,-10.98,7.14,3.69,-2.51,2.53,1.94,2.625,-1.4375,0.625,0.753173828125,0.409423828125,0.49298095703125,-0.1484375,18.5625,-25.375,17.1875,-8.47,4.61,1.75,Climbing Up,4
4.86,4.791879438,27,3,3,3,0,-11.31,6.89,3.8,-2.83,2.28,2.05,1.625,-2.125,-1.6875,0.75323486328125,0.409423828125,0.492919921875,-0.148681640625,18.5625,-25.375,17.1875,-8.47,4.61,1.75,Climbing Up,4
4.87,4.806758995,27,3,3,3,0,-11.61,6.19,3.45,-3.13,1.58,1.68,0.375,-6.75,-3.9375,0.75347900390625,0.40911865234375,0.4925537109375,-0.149169921875,19.6875,-25.6875,16.75,-8.47,4.6,1.76,Climbing Up,4
4.88,4.806758995,27,3,3,3,0,-11.68,6.01,2.98,-3.21,1.42,1.2,-0.3125,-13.3125,-6.25,0.75396728515625,0.40869140625,0.491943359375,-0.15008544921875,19.6875,-25.6875,16.75,-8.47,4.59,1.78,Climbing Up,4
4.88,4.822131391,27,3,3,3,0,-11.68,6.01,2.98,-3.21,1.42,1.2,-0.3125,-13.3125,-6.25,0.75396728515625,0.40869140625,0.491943359375,-0.15008544921875,19.6875,-25.6875,16.75,-8.47,4.59,1.78,Climbing Up,4
4.89,4.822131391,27,3,3,3,0,-11.78,5.92,2.59,-3.3,1.33,0.78,-0.3125,-17.625,-7.9375,0.754638671875,0.40814208984375,0.49102783203125,-0.1512451171875,19.6875,-25.6875,16.75,-8.47,4.58,1.81,Climbing Up,4
4.9,4.853131513,27,3,3,3,0,-12.0,5.9,2.12,-3.52,1.33,0.28,-1.625,-18.25,-8.375,0.75537109375,0.40740966796875,0.4901123046875,-0.15234375,19.6875,-25.6875,16.75,-8.47,4.57,1.83,Climbing Up,4
4.91,4.853131513,27,3,3,3,0,-12.04,5.58,1.17,-3.56,1.02,-0.69,-3.0625,-17.1875,-8.1875,0.756103515625,0.4066162109375,0.48931884765625,-0.15338134765625,19.6875,-25.6875,16.75,-8.47,4.55,1.86,Climbing Up,4
4.92,4.867832237,27,3,3,3,0,-11.85,5.43,0.81,-3.37,0.89,-1.07,-2.8125,-15.375,-7.5,0.75677490234375,0.40594482421875,0.48858642578125,-0.154296875,19.5625,-24.5625,17.1875,-8.48,4.54,1.89,Climbing Up,4
4.93,4.867832237,27,3,3,3,0,-11.55,5.27,0.59,-3.07,0.74,-1.32,-2.75,-12.875,-6.4375,0.75732421875,0.4052734375,0.488037109375,-0.155029296875,19.5625,-24.5625,17.1875,-8.48,4.53,1.91,Climbing Up,4
4.94,4.88199748,27,3,3,3,0,-11.23,5.08,0.33,-2.75,0.55,-1.6,-4.375,-11.75,-4.8125,0.7579345703125,0.40460205078125,0.48748779296875,-0.15557861328125,19.5625,-24.5625,17.1875,-8.48,4.52,1.93,Climbing Up,4
4.95,4.88199748,27,3,3,3,0,-10.33,4.53,0.15,-1.85,0.01,-1.8,-5.875,-12.125,-3.625,0.75860595703125,0.4039306640625,0.48687744140625,-0.156005859375,19.5625,-24.5625,17.1875,-8.47,4.51,1.95,Climbing Up,4
4.96,4.915813316,27,3,3,3,0,-9.9,4.32,-0.05,-1.42,-0.18,-2.03,-7.1875,-14.3125,-3.25,0.7593994140625,0.40313720703125,0.48614501953125,-0.15643310546875,19.5625,-24.5625,17.1875,-8.47,4.51,1.98,Climbing Up,4
4.97,4.915813316,27,3,3,3,0,-9.61,4.09,-0.21,-1.13,-0.41,-2.23,-6.5,-17.9375,-3.8125,0.7603759765625,0.40228271484375,0.48516845703125,-0.15704345703125,19.5625,-24.1875,16.75,-8.47,4.5,2.01,Climbing Up,4
4.98,4.927037885,27,3,3,3,0,-9.44,3.87,-0.5,-0.97,-0.62,-2.55,-3.25,-21.3125,-5.375,0.76129150390625,0.40155029296875,0.4840087890625,-0.15802001953125,19.5625,-24.1875,16.75,-8.47,4.49,2.05,Climbing Up,4
4.99,4.927037885,27,3,3,3,0,-9.36,3.64,-0.67,-0.89,-0.84,-2.76,1.625,-23.0,-7.1875,0.7620849609375,0.4010009765625,0.482666015625,-0.15936279296875,19.5625,-24.1875,16.75,-8.46,4.48,2.08,Climbing Up,4
5.0,4.941684084,27,3,3,3,0,-9.29,3.56,-0.64,-0.83,-0.91,-2.75,7.875,-20.4375,-7.875,0.7625732421875,0.40093994140625,0.48150634765625,-0.16094970703125,19.5625,-24.1875,16.75,-8.46,4.47,2.1,Climbing Up,4
5.01,4.941684084,27,3,3,3,0,-9.2,3.57,-0.54,-0.73,-0.89,-2.66,14.6875,-16.0625,-7.625,0.76263427734375,0.4013671875,0.48046875,-0.16259765625,19.5625,-24.1875,16.75,-8.46,4.47,2.11,Climbing Up,4
5.02,4.972664838,27,3,3,3,0,-8.85,3.61,-0.39,-0.38,-0.85,-2.51,21.0625,-12.875,-7.0625,0.7623291015625,0.40228271484375,0.4796142578125,-0.1644287109375,20.0,-23.875,15.875,-8.46,4.46,2.12,Climbing Up,4
5.03,4.972664838,27,3,3,3,0,-8.13,3.91,0.25,0.33,-0.55,-1.86,27.5,-11.0,-7.375,0.76165771484375,0.4036865234375,0.478759765625,-0.16644287109375,20.0,-23.875,15.875,-8.46,4.46,2.11,Climbing Up,4
5.04,4.986988975,27,3,3,3,0,-7.96,3.91,0.59,0.51,-0.55,-1.5,34.0,-7.875,-7.625,0.76068115234375,0.405517578125,0.47802734375,-0.16864013671875,20.0,-23.875,15.875,-8.47,4.46,2.1,Climbing Up,4
5.05,4.986988975,27,3,3,3,0,-7.89,3.96,0.86,0.58,-0.5,-1.2,39.3125,-1.9375,-8.0625,0.75921630859375,0.40777587890625,0.47760009765625,-0.1708984375,20.0,-23.875,15.875,-8.47,4.47,2.07,Climbing Up,4
5.06,5.00341496,27,3,3,3,0,-8.01,4.15,1.32,0.46,-0.31,-0.7,42.75,3.5625,-8.625,0.7574462890625,0.4102783203125,0.47747802734375,-0.17315673828125,20.0,-23.875,15.875,-8.48,4.47,2.03,Climbing Up,4
5.07,5.00341496,27,3,3,3,0,-8.16,4.23,1.37,0.32,-0.24,-0.61,42.6875,5.9375,-9.8125,0.7554931640625,0.41278076171875,0.47760009765625,-0.17535400390625,20.6875,-23.1875,15.5,-8.49,4.47,1.99,Climbing Up,4
5.08,5.033987877,27,3,3,3,0,-8.23,4.23,1.5,0.26,-0.23,-0.44,40.25,5.4375,-11.625,0.75360107421875,0.4150390625,0.477783203125,-0.1776123046875,20.6875,-23.1875,15.5,-8.5,4.47,1.95,Climbing Up,4
5.09,5.033987877,27,3,3,3,0,-8.21,4.25,1.65,0.3,-0.2,-0.25,37.0625,4.1875,-13.875,0.7518310546875,0.4169921875,0.47802734375,-0.17987060546875,20.6875,-23.1875,15.5,-8.52,4.46,1.91,Climbing Up,4
5.1,5.047641319,27,3,3,3,0,-8.2,4.36,1.98,0.32,-0.08,0.09,32.875,2.0,-16.0625,0.75030517578125,0.41851806640625,0.47821044921875,-0.1822509765625,20.6875,-23.1875,15.5,-8.53,4.44,1.88,Climbing Up,4
5.11,5.047641319,27,3,3,3,0,-8.15,4.31,1.97,0.39,-0.11,0.11,26.6875,0.0,-17.75,0.7490234375,0.41949462890625,0.47845458984375,-0.18450927734375,20.6875,-23.1875,15.5,-8.54,4.43,1.86,Climbing Up,4
5.12,5.062794924,27,3,3,3,0,-8.03,4.19,1.91,0.52,-0.2,0.06,19.0625,-3.8125,-18.8125,0.7481689453125,0.419921875,0.4786376953125,-0.18670654296875,19.25,-22.75,15.5,-8.56,4.4,1.85,Climbing Up,4
5.13,5.062794924,27,3,3,3,0,-7.82,4.01,1.9,0.74,-0.36,0.04,12.3125,-7.9375,-19.9375,0.7476806640625,0.41973876953125,0.4786376953125,-0.18878173828125,19.25,-22.75,15.5,-8.57,4.38,1.85,Climbing Up,4
5.14,5.076630496,27,3,3,3,0,-7.34,3.66,1.88,1.24,-0.68,0.01,6.5,-11.4375,-20.1875,0.74761962890625,0.419189453125,0.478515625,-0.1907958984375,19.25,-22.75,15.5,-8.58,4.35,1.86,Climbing Up,4
5.14,5.076630496,27,3,3,3,0,-7.34,3.66,1.88,1.24,-0.68,0.01,6.5,-11.4375,-20.1875,0.74761962890625,0.419189453125,0.478515625,-0.1907958984375,19.25,-22.75,15.5,-8.58,4.35,1.86,Climbing Up,4
5.15,5.092425743,27,3,3,3,0,-7.04,3.55,1.8,1.55,-0.76,-0.08,1.875,-13.375,-19.3125,0.74774169921875,0.41827392578125,0.47833251953125,-0.192626953125,19.25,-22.75,15.5,-8.59,4.32,1.88,Climbing Up,4
5.16,5.092425743,27,3,3,3,0,-6.7,3.39,1.75,1.89,-0.89,-0.15,-0.625,-14.0,-18.5,0.748046875,0.417236328125,0.4781494140625,-0.1943359375,19.25,-22.75,15.5,-8.6,4.29,1.9,Climbing Up,4
5.17,5.107955203,27,3,3,3,0,-6.37,3.19,1.69,2.23,-1.07,-0.23,-1.0625,-13.8125,-16.75,0.74835205078125,0.41619873046875,0.47784423828125,-0.1959228515625,19.5625,-22.375,14.375,-8.61,4.27,1.93,Climbing Up,4
5.18,5.107955203,27,3,3,3,0,-5.91,3.01,1.8,2.7,-1.23,-0.14,-0.0625,-11.9375,-15.3125,0.74859619140625,0.41534423828125,0.4776611328125,-0.19732666015625,19.5625,-22.375,14.375,-8.62,4.24,1.94,Climbing Up,4
5.19,5.138872968,27,3,3,3,0,-5.63,2.89,1.8,2.99,-1.33,-0.15,1.9375,-8.3125,-14.0,0.74859619140625,0.414794921875,0.47760009765625,-0.1986083984375,19.5625,-22.375,14.375,-8.62,4.22,1.95,Climbing Up,4
5.2,5.138872968,27,3,3,3,0,-5.43,2.75,1.85,3.2,-1.45,-0.1,5.0625,-4.25,-13.125,0.74835205078125,0.41448974609375,0.47772216796875,-0.1998291015625,19.5625,-22.375,14.375,-8.63,4.21,1.96,Climbing Up,4
5.21,5.153196454,27,3,3,3,0,-5.25,2.47,1.62,3.39,-1.72,-0.33,8.4375,0.125,-12.8125,0.747802734375,0.41448974609375,0.47802734375,-0.2010498046875,19.5625,-22.375,14.375,-8.64,4.19,1.95,Climbing Up,4
5.22,5.153196454,27,3,3,3,0,-5.16,2.32,1.5,3.49,-1.85,-0.43,11.3125,3.1875,-12.75,0.7470703125,0.414794921875,0.478515625,-0.20220947265625,20.6875,-21.0,13.25,-8.65,4.17,1.94,Climbing Up,4
5.23,5.167919843,27,3,3,3,0,-5.15,2.26,1.49,3.51,-1.89,-0.43,14.25,5.4375,-13.1875,0.74609375,0.415283203125,0.4791259765625,-0.2034912109375,20.6875,-21.0,13.25,-8.66,4.16,1.92,Climbing Up,4
5.24,5.167919843,27,3,3,3,0,-5.18,2.2,1.52,3.49,-1.94,-0.36,16.375,7.625,-14.5,0.744873046875,0.41583251953125,0.4798583984375,-0.204833984375,20.6875,-21.0,13.25,-8.68,4.14,1.89,Climbing Up,4
5.25,5.197695803,27,3,3,3,0,-5.43,2.1,1.55,3.26,-2.02,-0.31,16.25,9.6875,-15.75,0.74359130859375,0.41644287109375,0.48077392578125,-0.2061767578125,20.6875,-21.0,13.25,-8.69,4.12,1.87,Climbing Up,4
5.26,5.197695803,27,3,3,3,0,-5.58,2.13,1.55,3.12,-1.97,-0.28,15.5625,11.1875,-16.25,0.74224853515625,0.4169921875,0.4818115234375,-0.20751953125,20.6875,-21.0,13.25,-8.71,4.1,1.84,Climbing Up,4
5.27,5.215501305,27,3,3,3,0,-5.8,2.21,1.6,2.92,-1.87,-0.2,16.625,12.125,-16.9375,0.7408447265625,0.41754150390625,0.48291015625,-0.2088623046875,22.5,-20.25,12.875,-8.72,4.08,1.81,Climbing Up,4
5.28,5.215501305,27,3,3,3,0,-6.03,2.31,1.66,2.7,-1.75,-0.11,18.0625,13.8125,-17.125,0.7392578125,0.41827392578125,0.484130859375,-0.210205078125,22.5,-20.25,12.875,-8.74,4.06,1.77,Climbing Up,4
5.29,5.242917483,27,3,3,3,0,-6.66,2.78,1.69,2.09,-1.26,-0.04,19.0625,16.4375,-17.0625,0.737548828125,0.4190673828125,0.4854736328125,-0.2115478515625,22.5,-20.25,12.875,-8.76,4.04,1.74,Climbing Up,4
5.3,5.242917483,27,3,3,3,0,-7.1,2.99,1.75,1.66,-1.03,0.05,20.3125,17.6875,-16.5,0.7357177734375,0.41998291015625,0.48681640625,-0.21282958984375,22.5,-20.25,12.875,-8.77,4.02,1.69,Climbing Up,4
5.31,5.258263756,27,3,3,3,0,-7.65,3.2,1.81,1.13,-0.8,0.16,22.3125,17.6875,-15.6875,0.73388671875,0.42108154296875,0.4881591796875,-0.214111328125,22.5,-20.25,12.875,-8.79,4.01,1.65,Climbing Up,4
5.32,5.258263756,27,3,3,3,0,-8.21,3.46,1.88,0.59,-0.53,0.27,25.25,16.8125,-15.375,0.73193359375,0.42236328125,0.48931884765625,-0.215576171875,22.875,-20.0625,13.6875,-8.81,3.99,1.61,Climbing Up,4
5.33,5.27169324,27,3,3,3,0,-9.14,3.97,2.39,-0.32,0.0,0.82,29.625,15.4375,-14.0,0.72991943359375,0.4239501953125,0.490234375,-0.2171630859375,22.875,-20.0625,13.6875,-8.82,3.98,1.56,Climbing Up,4
5.34,5.27169324,27,3,3,3,0,-9.57,4.17,2.6,-0.73,0.2,1.08,33.6875,15.625,-12.125,0.72772216796875,0.42584228515625,0.4910888671875,-0.21881103515625,22.875,-20.0625,13.6875,-8.83,3.97,1.51,Climbing Up,4
5.35,5.303329999,27,3,3,3,0,-10.0,4.21,2.78,-1.15,0.24,1.31,36.5,15.4375,-10.625,0.72552490234375,0.42803955078125,0.49176025390625,-0.220458984375,22.875,-20.0625,13.6875,-8.84,3.96,1.47,Climbing Up,4
5.36,5.303329999,27,3,3,3,0,-10.97,4.37,3.02,-2.11,0.41,1.6,36.8125,13.5625,-9.8125,0.723388671875,0.43017578125,0.49224853515625,-0.22216796875,22.875,-20.0625,13.6875,-8.85,3.95,1.42,Climbing Up,4
5.37,5.317167646,27,3,3,3,0,-11.61,4.46,3.02,-2.74,0.51,1.64,33.625,10.25,-8.875,0.72149658203125,0.43212890625,0.49261474609375,-0.22381591796875,22.5,-19.0625,15.1875,-8.86,3.95,1.38,Climbing Up,4
5.38,5.317167646,27,3,3,3,0,-12.14,4.53,2.89,-3.27,0.58,1.54,28.125,7.625,-8.25,0.71990966796875,0.43365478515625,0.49285888671875,-0.2252197265625,22.5,-19.0625,15.1875,-8.87,3.94,1.35,Climbing Up,4
5.39,5.332168826,27,3,3,3,0,-12.74,4.68,2.84,-3.85,0.74,1.51,21.375,5.625,-7.0625,0.71875,0.434814453125,0.4930419921875,-0.22637939453125,22.5,-19.0625,15.1875,-8.88,3.94,1.33,Climbing Up,4
5.4,5.332168826,27,3,3,3,0,-13.35,4.53,2.89,-4.46,0.59,1.57,14.4375,4.0,-5.3125,0.7178955078125,0.435546875,0.49322509765625,-0.22723388671875,22.5,-19.0625,15.1875,-8.88,3.93,1.31,Climbing Up,4
5.41,5.362990807,27,3,3,3,0,-13.49,4.34,2.96,-4.6,0.41,1.65,7.3125,0.25,-3.375,0.717529296875,0.43585205078125,0.49322509765625,-0.22772216796875,22.5,-19.0625,15.1875,-8.88,3.93,1.3,Climbing Up,4
5.42,5.362990807,27,3,3,3,0,-13.47,4.22,2.97,-4.58,0.29,1.66,1.0,-3.5625,-1.75,0.7176513671875,0.435791015625,0.4930419921875,-0.22802734375,22.875,-17.5625,15.5625,-8.88,3.92,1.31,Climbing Up,4
5.43,5.379119469,27,3,3,3,0,-13.34,4.08,2.91,-4.46,0.15,1.59,-5.8125,-5.875,0.25,0.7181396484375,0.435302734375,0.4927978515625,-0.22802734375,22.875,-17.5625,15.5625,-8.88,3.92,1.32,Climbing Up,4
5.44,5.379119469,27,3,3,3,0,-12.92,3.99,2.65,-4.03,0.07,1.3,-13.25,-6.75,2.25,0.71893310546875,0.43438720703125,0.4925537109375,-0.22760009765625,22.875,-17.5625,15.5625,-8.88,3.92,1.34,Climbing Up,4
5.45,5.392882408,27,3,3,3,0,-12.92,3.99,2.65,-4.03,0.07,1.3,-13.25,-6.75,2.25,0.71893310546875,0.43438720703125,0.4925537109375,-0.22760009765625,22.875,-17.5625,15.5625,-8.88,3.92,1.34,Climbing Up,4
5.45,5.392882408,27,3,3,3,0,-12.68,3.9,2.72,-3.8,-0.02,1.35,-18.75,-7.875,4.1875,0.7200927734375,0.4332275390625,0.49224853515625,-0.226806640625,22.875,-17.5625,15.5625,-8.87,3.92,1.37,Climbing Up,4
5.46,5.407833987,27,3,3,3,0,-12.48,3.94,2.86,-3.61,0.01,1.45,-21.0625,-8.625,6.8125,0.72137451171875,0.4320068359375,0.49188232421875,-0.225830078125,22.875,-17.5625,15.5625,-8.87,3.93,1.4,Climbing Up,4
5.47,5.407833987,27,3,3,3,0,-12.22,4.0,2.9,-3.35,0.06,1.47,-20.25,-9.375,8.9375,0.72271728515625,0.430908203125,0.4913330078125,-0.2247314453125,22.5,-16.875,15.1875,-8.86,3.94,1.42,Climbing Up,4
5.48,5.422136599,27,3,3,3,0,-11.85,4.33,2.47,-2.99,0.38,1.01,-16.75,-11.75,11.3125,0.72412109375,0.43011474609375,0.49053955078125,-0.2237548828125,22.5,-16.875,15.1875,-8.85,3.95,1.45,Climbing Up,4
5.49,5.422136599,27,3,3,3,0,-11.58,4.31,2.04,-2.74,0.34,0.55,-11.625,-15.0,13.4375,0.7254638671875,0.42962646484375,0.48931884765625,-0.2230224609375,22.5,-16.875,15.1875,-8.84,3.97,1.49,Climbing Up,4
5.5,5.437947065,27,3,3,3,0,-11.36,4.2,1.83,-2.53,0.21,0.31,-7.9375,-17.125,14.375,0.72674560546875,0.42938232421875,0.48785400390625,-0.222412109375,22.5,-16.875,15.1875,-8.82,3.99,1.52,Climbing Up,4
5.51,5.437947065,27,3,3,3,0,-11.13,4.2,1.72,-2.32,0.19,0.17,-7.375,-17.0,13.875,0.72802734375,0.42919921875,0.48638916015625,-0.22186279296875,22.5,-16.875,15.1875,-8.81,4.01,1.55,Climbing Up,4
5.52,5.467582888,27,3,3,3,0,-10.9,4.64,1.2,-2.1,0.62,-0.37,-9.0625,-16.0,12.0,0.729248046875,0.42877197265625,0.485107421875,-0.2213134765625,23.5625,-17.25,14.0625,-8.79,4.02,1.58,Climbing Up,4
5.53,5.467582888,27,3,3,3,0,-10.63,4.95,0.92,-1.84,0.91,-0.69,-11.0625,-14.5625,9.9375,0.73046875,0.42822265625,0.4840087890625,-0.22076416015625,23.5625,-17.25,14.0625,-8.78,4.03,1.61,Climbing Up,4
5.54,5.482823001,27,3,3,3,0,-10.11,5.23,0.78,-1.33,1.19,-0.85,-13.6875,-11.5625,8.0,0.73162841796875,0.42742919921875,0.48321533203125,-0.22015380859375,23.5625,-17.25,14.0625,-8.78,4.04,1.64,Climbing Up,4
5.55,5.482823001,27,3,3,3,0,-8.69,5.54,0.48,0.07,1.49,-1.18,-18.5,-7.9375,6.125,0.7327880859375,0.42633056640625,0.48284912109375,-0.21929931640625,23.5625,-17.25,14.0625,-8.77,4.05,1.66,Climbing Up,4
5.56,5.513066246,27,3,3,3,0,-8.07,5.66,0.27,0.69,1.6,-1.41,-24.875,-7.5625,5.375,0.734130859375,0.4248046875,0.482666015625,-0.2181396484375,23.5625,-17.25,14.0625,-8.76,4.05,1.69,Climbing Up,4
5.57,5.513066246,27,3,3,3,0,-7.69,5.79,-0.07,1.06,1.74,-1.81,-29.375,-9.5625,5.6875,0.7357177734375,0.4229736328125,0.482421875,-0.2169189453125,22.875,-18.0,12.5625,-8.76,4.05,1.73,Climbing Up,4
5.58,5.527524824,27,3,3,3,0,-7.49,5.97,-0.37,1.25,1.92,-2.15,-29.5,-13.6875,5.8125,0.73748779296875,0.42108154296875,0.48187255859375,-0.2158203125,22.875,-18.0,12.5625,-8.75,4.05,1.77,Climbing Up,4
5.59,5.527524824,27,3,3,3,0,-7.71,6.22,-0.47,1.03,2.16,-2.29,-26.3125,-18.625,5.3125,0.7393798828125,0.41925048828125,0.48095703125,-0.215087890625,22.875,-18.0,12.5625,-8.74,4.05,1.82,Climbing Up,4
5.6,5.542205854,27,3,3,3,0,-8.0,6.24,-0.47,0.72,2.19,-2.34,-23.1875,-20.625,4.0625,0.74114990234375,0.41754150390625,0.47991943359375,-0.214599609375,22.875,-18.0,12.5625,-8.73,4.04,1.86,Climbing Up,4
5.61,5.542205854,27,3,3,3,0,-8.08,6.08,-0.45,0.64,2.03,-2.37,-19.5625,-21.3125,2.625,0.7427978515625,0.41595458984375,0.47882080078125,-0.21435546875,22.875,-18.0,12.5625,-8.72,4.04,1.91,Climbing Up,4
5.62,5.572581302,27,3,3,3,0,-7.8,5.61,-0.15,0.9,1.56,-2.11,-15.1875,-20.8125,2.3125,0.7442626953125,0.4146728515625,0.4776611328125,-0.21435546875,24.375,-17.25,11.0,-8.71,4.04,1.95,Climbing Up,4
5.63,5.572581302,27,3,3,3,0,-7.34,4.63,0.7,1.35,0.59,-1.28,-13.6875,-16.875,2.8125,0.7454833984375,0.41363525390625,0.47674560546875,-0.21417236328125,24.375,-17.25,11.0,-8.7,4.04,1.99,Climbing Up,4
5.64,5.586645551,27,3,3,3,0,-7.29,4.29,1.16,1.4,0.24,-0.86,-15.75,-10.8125,3.4375,0.74658203125,0.41253662109375,0.4761962890625,-0.21368408203125,24.375,-17.25,11.0,-8.7,4.04,2.02,Climbing Up,4
5.65,5.586645551,27,3,3,3,0,-7.35,4.01,1.74,1.34,-0.03,-0.29,-19.375,-2.4375,3.625,0.7474365234375,0.411376953125,0.47625732421875,-0.21270751953125,24.375,-17.25,11.0,-8.69,4.04,2.03,Climbing Up,4
5.66,5.60205998,27,3,3,3,0,-7.44,3.84,2.18,1.25,-0.19,0.13,-26.0625,6.375,2.625,0.7481689453125,0.409912109375,0.47711181640625,-0.21124267578125,24.375,-17.25,11.0,-8.69,4.03,2.04,Climbing Up,4
5.67,5.60205998,27,3,3,3,0,-7.64,3.78,2.33,1.06,-0.24,0.27,-32.875,9.9375,1.8125,0.74896240234375,0.40802001953125,0.478271484375,-0.20941162109375,24.6875,-16.875,8.6875,-8.7,4.02,2.05,Climbing Up,4
5.68,5.631383222,27,3,3,3,0,-7.81,3.88,2.21,0.89,-0.13,0.14,-36.75,10.3125,1.5,0.74981689453125,0.4058837890625,0.47955322265625,-0.2073974609375,24.6875,-16.875,8.6875,-8.7,4.01,2.06,Climbing Up,4
5.69,5.631383222,27,3,3,3,0,-7.9,3.97,2.03,0.79,-0.03,-0.03,-36.8125,11.125,2.0625,0.75067138671875,0.40374755859375,0.48089599609375,-0.205322265625,24.6875,-16.875,8.6875,-8.7,4.0,2.07,Climbing Up,4
5.7,5.64736422,27,3,3,3,0,-7.68,4.19,1.78,1.01,0.19,-0.29,-35.9375,12.25,3.1875,0.75146484375,0.40179443359375,0.48223876953125,-0.20318603515625,24.6875,-16.875,8.6875,-8.7,4.0,2.07,Climbing Up,4
5.71,5.64736422,27,3,3,3,0,-7.43,4.2,1.84,1.27,0.2,-0.23,-34.5,12.3125,5.125,0.75225830078125,0.39996337890625,0.48345947265625,-0.200927734375,24.6875,-16.875,8.6875,-8.7,3.99,2.08,Climbing Up,4
5.72,5.66292375,27,3,3,3,0,-7.21,4.14,1.89,1.49,0.14,-0.19,-33.8125,12.375,7.125,0.7530517578125,0.39825439453125,0.484619140625,-0.1986083984375,23.5625,-16.875,8.6875,-8.7,3.99,2.08,Climbing Up,4
5.73,5.66292375,27,3,3,3,0,-7.02,4.09,1.86,1.68,0.09,-0.23,-34.4375,11.3125,9.0625,0.75390625,0.3966064453125,0.48565673828125,-0.1961669921875,23.5625,-16.875,8.6875,-8.7,3.99,2.09,Climbing Up,4
5.73,5.677000125,27,3,3,3,0,-7.02,4.09,1.86,1.68,0.09,-0.23,-34.4375,11.3125,9.0625,0.75390625,0.3966064453125,0.48565673828125,-0.1961669921875,23.5625,-16.875,8.6875,-8.7,3.99,2.09,Climbing Up,4
5.74,5.677000125,27,3,3,3,0,-6.74,3.75,1.91,1.96,-0.24,-0.19,-35.1875,8.5625,10.9375,0.75494384765625,0.3948974609375,0.4864501953125,-0.193603515625,23.5625,-16.875,8.6875,-8.7,3.99,2.1,Climbing Up,4
5.75,5.69237956,27,3,3,3,0,-6.67,3.5,1.9,2.02,-0.5,-0.22,-36.0,5.875,12.1875,0.756103515625,0.39312744140625,0.487060546875,-0.19110107421875,23.5625,-16.875,8.6875,-8.69,4.0,2.12,Climbing Up,4
5.76,5.69237956,27,3,3,3,0,-6.6,3.27,1.83,2.08,-0.73,-0.31,-37.1875,3.8125,12.75,0.7574462890625,0.39129638671875,0.48748779296875,-0.18853759765625,23.5625,-16.875,8.6875,-8.68,4.01,2.14,Climbing Up,4
5.77,5.722279178,27,3,3,3,0,-6.53,3.08,1.65,2.14,-0.92,-0.51,-38.3125,2.625,13.0,0.75885009765625,0.38934326171875,0.48785400390625,-0.1859130859375,23.5625,-17.5625,7.5625,-8.68,4.01,2.16,Climbing Up,4
5.78,5.722279178,27,3,3,3,0,-6.24,2.83,1.32,2.42,-1.18,-0.86,-38.375,2.9375,12.8125,0.76025390625,0.38739013671875,0.48822021484375,-0.183349609375,23.5625,-17.5625,7.5625,-8.67,4.02,2.18,Climbing Up,4
5.79,5.738647179,27,3,3,3,0,-6.11,2.72,1.11,2.54,-1.29,-1.08,-37.0625,5.5625,12.5,0.76141357421875,0.38555908203125,0.48876953125,-0.18072509765625,23.5625,-17.5625,7.5625,-8.66,4.02,2.2,Climbing Up,4
5.8,5.738647179,27,3,3,3,0,-6.04,2.61,0.94,2.61,-1.41,-1.26,-34.4375,9.75,12.25,0.7623291015625,0.38397216796875,0.489501953125,-0.1781005859375,23.5625,-17.5625,7.5625,-8.66,4.03,2.21,Climbing Up,4
5.81,5.753178877,27,3,3,3,0,-6.01,2.54,0.94,2.64,-1.49,-1.26,-30.5625,14.3125,11.875,0.762939453125,0.3826904296875,0.49053955078125,-0.175537109375,23.5625,-17.5625,7.5625,-8.65,4.03,2.21,Climbing Up,4
5.82,5.753178877,27,3,3,3,0,-6.08,2.42,0.93,2.56,-1.61,-1.26,-26.25,18.6875,11.5625,0.76318359375,0.3817138671875,0.4918212890625,-0.17303466796875,24.0625,-16.875,6.75,-8.65,4.04,2.2,Climbing Up,4
5.83,5.78358476,27,3,3,3,0,-6.26,2.49,0.99,2.39,-1.55,-1.19,-21.9375,22.5,10.875,0.76312255859375,0.381103515625,0.4932861328125,-0.17059326171875,24.0625,-16.875,6.75,-8.65,4.05,2.18,Climbing Up,4
5.84,5.78358476,27,3,3,3,0,-6.44,2.59,1.17,2.21,-1.46,-0.98,-17.0625,25.6875,10.125,0.7626953125,0.3807373046875,0.49493408203125,-0.1683349609375,24.0625,-16.875,6.75,-8.66,4.06,2.15,Climbing Up,4
5.85,5.801889529,27,3,3,3,0,-6.67,2.65,1.41,1.99,-1.41,-0.71,-13.0,27.5,9.1875,0.7620849609375,0.3807373046875,0.49664306640625,-0.16619873046875,24.0625,-16.875,6.75,-8.66,4.07,2.12,Climbing Up,4
5.86,5.801889529,27,3,3,3,0,-7.01,2.9,1.66,1.65,-1.17,-0.42,-9.25,27.875,8.4375,0.76129150390625,0.380859375,0.49835205078125,-0.164306640625,24.0625,-16.875,6.75,-8.66,4.08,2.09,Climbing Up,4
5.87,5.813688602,27,3,3,3,0,-7.11,3.04,1.83,1.55,-1.04,-0.22,-5.4375,27.1875,7.75,0.76043701171875,0.3812255859375,0.5,-0.16265869140625,24.0625,-17.5625,7.0625,-8.67,4.09,2.05,Climbing Up,4
5.88,5.813688602,27,3,3,3,0,-7.22,3.11,1.99,1.44,-0.98,-0.01,-1.75,25.25,7.4375,0.75946044921875,0.3818359375,0.50146484375,-0.1612548828125,24.0625,-17.5625,7.0625,-8.67,4.1,2.01,Climbing Up,4
5.89,5.841583011,27,3,3,3,0,-7.51,3.4,2.3,1.16,-0.7,0.32,1.8125,21.9375,7.1875,0.758544921875,0.382568359375,0.50262451171875,-0.16009521484375,24.0625,-17.5625,7.0625,-8.67,4.11,1.98,Climbing Up,4
5.9,5.841583011,27,3,3,3,0,-7.67,3.54,2.33,1.0,-0.57,0.38,5.3125,20.5,6.5625,0.757568359375,0.38348388671875,0.50372314453125,-0.15924072265625,24.0625,-17.5625,7.0625,-8.68,4.12,1.94,Climbing Up,4
5.91,5.856554853,27,3,3,3,0,-7.8,3.66,2.33,0.87,-0.47,0.42,7.125,18.75,6.5625,0.756591796875,0.384521484375,0.504638671875,-0.158447265625,24.0625,-17.5625,7.0625,-8.68,4.13,1.91,Climbing Up,4
5.92,5.856554853,27,3,3,3,0,-7.81,3.74,2.41,0.86,-0.4,0.52,7.25,16.5,6.625,0.75567626953125,0.385498046875,0.50537109375,-0.15777587890625,24.0625,-17.375,7.0625,-8.68,4.14,1.88,Climbing Up,4
5.93,5.871189863,27,3,3,3,0,-7.89,3.93,2.52,0.78,-0.23,0.66,6.875,14.5625,6.6875,0.7548828125,0.386474609375,0.50604248046875,-0.15716552734375,24.0625,-17.375,7.0625,-8.68,4.16,1.85,Climbing Up,4
5.94,5.871189863,27,3,3,3,0,-8.01,4.02,2.49,0.66,-0.14,0.66,6.5,12.875,7.0,0.75421142578125,0.38739013671875,0.50653076171875,-0.15655517578125,24.0625,-17.375,7.0625,-8.68,4.17,1.83,Climbing Up,4
5.95,5.902747806,27,3,3,3,0,-8.1,4.09,2.41,0.57,-0.09,0.6,6.0625,10.5,7.0625,0.75360107421875,0.38824462890625,0.50689697265625,-0.156005859375,24.0625,-17.375,7.0625,-8.68,4.18,1.8,Climbing Up,4
5.96,5.902747806,27,3,3,3,0,-8.13,4.09,2.36,0.54,-0.1,0.57,5.25,8.5625,6.875,0.753173828125,0.3890380859375,0.5072021484375,-0.15545654296875,24.0625,-17.375,7.0625,-8.67,4.19,1.79,Climbing Up,4
5.97,5.91705054,27,3,3,3,0,-8.2,4.25,2.24,0.47,0.04,0.46,3.1875,8.4375,6.25,0.75274658203125,0.3896484375,0.50750732421875,-0.1549072265625,23.375,-18.0625,8.25,-8.67,4.21,1.77,Climbing Up,4
5.98,5.91705054,27,3,3,3,0,-8.27,4.43,2.17,0.39,0.21,0.4,1.1875,9.0625,5.5,0.75238037109375,0.39007568359375,0.50787353515625,-0.154296875,23.375,-18.0625,8.25,-8.67,4.21,1.76,Climbing Up,4
5.99,5.931648685,27,3,3,3,0,-8.53,4.65,2.06,0.14,0.43,0.31,0.125,10.5,4.8125,0.75201416015625,0.39044189453125,0.5084228515625,-0.15362548828125,23.375,-18.0625,8.25,-8.67,4.22,1.74,Climbing Up,4
5.99,5.931648685,27,3,3,3,0,-8.53,4.65,2.06,0.14,0.43,0.31,0.125,10.5,4.8125,0.75201416015625,0.39044189453125,0.5084228515625,-0.15362548828125,23.375,-18.0625,8.25,-8.67,4.22,1.74,Climbing Up,4
6.0,5.948571658,27,3,3,3,0,-8.85,4.9,1.99,-0.18,0.67,0.26,0.5625,10.8125,4.125,0.75152587890625,0.39080810546875,0.50897216796875,-0.15301513671875,23.375,-18.0625,8.25,-8.67,4.23,1.73,Climbing Up,4
6.01,5.948571658,27,3,3,3,0,-9.64,5.51,2.13,-0.97,1.27,0.42,2.0625,10.75,3.625,0.75103759765625,0.3912353515625,0.509521484375,-0.1524658203125,23.375,-18.0625,8.25,-8.67,4.23,1.71,Climbing Up,4
6.02,5.962847374,27,3,3,3,0,-10.04,5.83,2.34,-1.36,1.58,0.65,4.875,10.4375,3.0625,0.75042724609375,0.391845703125,0.510009765625,-0.15216064453125,24.0625,-18.0625,8.5625,-8.67,4.24,1.69,Climbing Up,4
6.03,5.962847374,27,3,3,3,0,-10.42,6.16,2.65,-1.74,1.91,0.98,8.3125,9.1875,2.4375,0.749755859375,0.39263916015625,0.51043701171875,-0.15203857421875,24.0625,-18.0625,8.5625,-8.67,4.25,1.67,Climbing Up,4
6.04,5.992412031,27,3,3,3,0,-11.12,6.62,3.24,-2.44,2.37,1.59,11.5625,7.5625,1.1875,0.74908447265625,0.3935546875,0.5107421875,-0.1522216796875,24.0625,-18.0625,8.5625,-8.67,4.25,1.65,Climbing Up,4
6.05,5.992412031,27,3,3,3,0,-11.47,6.83,3.4,-2.79,2.57,1.76,14.5,4.875,-0.5,0.74835205078125,0.39459228515625,0.5108642578125,-0.1527099609375,24.0625,-18.0625,8.5625,-8.67,4.26,1.63,Climbing Up,4
6.06,6.007805301,27,3,3,3,0,-11.78,6.97,3.5,-3.1,2.71,1.88,15.875,0.6875,-3.375,0.74774169921875,0.39544677734375,0.51080322265625,-0.153564453125,24.0625,-18.0625,8.5625,-8.68,4.26,1.62,Climbing Up,4
6.07,6.007805301,27,3,3,3,0,-12.08,7.01,3.59,-3.4,2.75,1.97,14.125,-3.8125,-6.75,0.747314453125,0.39605712890625,0.51055908203125,-0.15478515625,23.6875,-18.0625,8.1875,-8.68,4.25,1.61,Climbing Up,4
6.08,6.029809533,27,3,3,3,0,-12.78,6.86,3.33,-4.09,2.62,1.71,10.4375,-9.625,-9.875,0.74725341796875,0.39617919921875,0.5101318359375,-0.15625,23.6875,-18.0625,8.1875,-8.69,4.24,1.62,Climbing Up,4
6.09,6.029809533,27,3,3,3,0,-13.18,6.7,3.08,-4.49,2.47,1.43,7.25,-15.0,-12.75,0.74749755859375,0.3958740234375,0.509521484375,-0.15789794921875,23.6875,-18.0625,8.1875,-8.69,4.22,1.64,Climbing Up,4
6.1,6.054425296,27,3,3,3,0,-13.28,6.46,2.83,-4.58,2.26,1.16,4.5,-19.5,-15.375,0.74798583984375,0.39520263671875,0.5086669921875,-0.1597900390625,23.6875,-18.0625,8.1875,-8.7,4.2,1.66,Climbing Up,4
6.11,6.054425296,27,3,3,3,0,-13.14,6.26,2.62,-4.43,2.08,0.92,1.5,-24.875,-17.0,0.74884033203125,0.39422607421875,0.50762939453125,-0.16180419921875,23.6875,-18.0625,8.1875,-8.7,4.17,1.7,Climbing Up,4
6.12,6.067424523,27,3,3,3,0,-12.52,5.97,1.81,-3.81,1.81,0.05,-2.375,-29.875,-17.125,0.75,0.39288330078125,0.50628662109375,-0.163818359375,24.0,-17.375,9.375,-8.7,4.15,1.75,Climbing Up,4
6.13,6.067424523,27,3,3,3,0,-12.05,5.68,1.28,-3.34,1.56,-0.52,-4.875,-33.1875,-15.9375,0.75140380859375,0.391357421875,0.50469970703125,-0.165771484375,24.0,-17.375,9.375,-8.71,4.12,1.8,Climbing Up,4
6.14,6.083143802,27,3,3,3,0,-11.5,5.39,0.84,-2.79,1.29,-1.01,-4.0625,-33.875,-14.75,0.7528076171875,0.38995361328125,0.5030517578125,-0.167724609375,24.0,-17.375,9.375,-8.71,4.1,1.86,Climbing Up,4
6.15,6.083143802,27,3,3,3,0,-10.91,4.99,0.51,-2.2,0.91,-1.39,-2.125,-33.5,-13.8125,0.754150390625,0.38873291015625,0.5013427734375,-0.169677734375,24.0,-17.375,9.375,-8.7,4.08,1.91,Climbing Up,4
6.16,6.113147993,27,3,3,3,0,-9.93,4.17,0.15,-1.22,0.11,-1.8,-0.1875,-32.0,-13.8125,0.75537109375,0.38763427734375,0.49969482421875,-0.17169189453125,24.0,-17.375,9.375,-8.7,4.06,1.96,Climbing Up,4
6.17,6.113147993,27,3,3,3,0,-9.6,3.77,0.08,-0.89,-0.26,-1.92,0.625,-29.875,-15.125,0.75640869140625,0.3865966796875,0.49822998046875,-0.1737060546875,24.375,-16.25,6.25,-8.7,4.03,2.0,Climbing Up,4
6.18,6.127381758,27,3,3,3,0,-9.54,3.45,0.0,-0.83,-0.56,-2.05,2.5625,-27.875,-16.1875,0.75726318359375,0.3856201171875,0.49688720703125,-0.17584228515625,24.375,-16.25,6.25,-8.7,4.01,2.04,Climbing Up,4
6.19,6.127381758,27,3,3,3,0,-9.7,2.88,-0.15,-0.98,-1.1,-2.23,5.5,-25.9375,-16.75,0.7579345703125,0.3848876953125,0.49566650390625,-0.17803955078125,24.375,-16.25,6.25,-8.71,3.99,2.08,Climbing Up,4
6.2,6.142256269,27,3,3,3,0,-9.81,2.72,-0.13,-1.09,-1.24,-2.24,9.8125,-22.125,-16.3125,0.75830078125,0.38446044921875,0.49456787109375,-0.1802978515625,24.375,-16.25,6.25,-8.71,3.96,2.1,Climbing Up,4
6.21,6.142256269,27,3,3,3,0,-9.74,2.54,-0.1,-1.02,-1.4,-2.23,13.375,-17.8125,-14.6875,0.7584228515625,0.38446044921875,0.49365234375,-0.18243408203125,24.375,-16.25,6.25,-8.71,3.95,2.12,Climbing Up,4
6.22,6.172560265,27,3,3,3,0,-9.54,2.42,0.02,-0.82,-1.51,-2.11,16.9375,-14.375,-13.4375,0.75823974609375,0.384765625,0.492919921875,-0.1845703125,24.375,-15.25,5.0625,-8.72,3.93,2.13,Climbing Up,4
6.23,6.172560265,27,3,3,3,0,-9.25,2.53,0.26,-0.53,-1.38,-1.87,20.125,-11.625,-12.875,0.75787353515625,0.3853759765625,0.49224853515625,-0.1866455078125,24.375,-15.25,5.0625,-8.72,3.92,2.14,Climbing Up,4
6.24,6.187944095,27,3,3,3,0,-9.11,2.59,0.44,-0.38,-1.32,-1.68,24.6875,-7.75,-11.5625,0.75714111328125,0.38641357421875,0.49176025390625,-0.188720703125,24.375,-15.25,5.0625,-8.73,3.91,2.13,Climbing Up,4
6.25,6.187944095,27,3,3,3,0,-8.89,2.68,0.69,-0.15,-1.23,-1.42,29.3125,-2.125,-9.625,0.756103515625,0.38787841796875,0.491455078125,-0.190673828125,24.375,-15.25,5.0625,-8.73,3.91,2.11,Climbing Up,4
6.26,6.2034432,27,3,3,3,0,-8.89,2.68,0.69,-0.15,-1.23,-1.42,29.3125,-2.125,-9.625,0.756103515625,0.38787841796875,0.491455078125,-0.190673828125,24.375,-15.25,5.0625,-8.73,3.91,2.11,Climbing Up,4
6.26,6.2034432,27,3,3,3,0,-8.71,2.83,0.98,0.02,-1.07,-1.1,31.0,3.75,-7.9375,0.75469970703125,0.3896484375,0.491455078125,-0.19244384765625,24.375,-15.25,5.0625,-8.74,3.91,2.09,Climbing Up,4
6.27,6.217117923,27,3,3,3,0,-8.73,2.97,1.32,0.01,-0.93,-0.72,29.6875,9.125,-7.0,0.753173828125,0.3914794921875,0.4918212890625,-0.19384765625,24.6875,-14.1875,3.1875,-8.75,3.91,2.05,Climbing Up,4
6.28,6.217117923,27,3,3,3,0,-8.75,3.08,1.43,0.0,-0.82,-0.58,26.5625,12.0,-6.5,0.75164794921875,0.39312744140625,0.49237060546875,-0.19500732421875,24.6875,-14.1875,3.1875,-8.76,3.91,2.01,Climbing Up,4
6.29,6.232056115,27,3,3,3,0,-8.73,3.19,1.59,0.03,-0.71,-0.39,23.75,12.5625,-6.3125,0.75018310546875,0.3946533203125,0.4930419921875,-0.19598388671875,24.6875,-14.1875,3.1875,-8.77,3.91,1.98,Climbing Up,4
6.3,6.232056115,27,3,3,3,0,-8.73,3.38,1.91,0.04,-0.52,-0.03,24.75,12.0,-5.8125,0.7486572265625,0.396240234375,0.49365234375,-0.197021484375,24.6875,-14.1875,3.1875,-8.77,3.91,1.94,Climbing Up,4
6.31,6.263281619,27,3,3,3,0,-8.85,3.51,2.3,-0.06,-0.39,0.39,29.0,11.125,-5.5,0.7470703125,0.3980712890625,0.49407958984375,-0.19830322265625,24.6875,-14.1875,3.1875,-8.78,3.91,1.91,Climbing Up,4
6.32,6.263281619,27,3,3,3,0,-8.85,3.42,2.28,-0.05,-0.48,0.4,32.25,7.9375,-5.3125,0.7454833984375,0.40008544921875,0.49420166015625,-0.19976806640625,25.375,-14.1875,4.25,-8.79,3.91,1.87,Climbing Up,4
6.33,6.277059695,27,3,3,3,0,-8.77,3.33,2.2,0.02,-0.58,0.35,32.0625,3.1875,-5.1875,0.744140625,0.40203857421875,0.49407958984375,-0.20135498046875,25.375,-14.1875,4.25,-8.79,3.91,1.84,Climbing Up,4
6.34,6.277059695,27,3,3,3,0,-8.69,3.25,2.08,0.1,-0.66,0.26,29.375,0.0,-6.125,0.74298095703125,0.4036865234375,0.4937744140625,-0.2030029296875,25.375,-14.1875,4.25,-8.8,3.91,1.82,Climbing Up,4
6.35,6.292416833,27,3,3,3,0,-8.51,3.0,1.96,0.28,-0.9,0.15,25.625,-2.0,-7.125,0.74200439453125,0.40496826171875,0.49346923828125,-0.20465087890625,25.375,-14.1875,4.25,-8.8,3.91,1.81,Climbing Up,4
6.36,6.292416833,27,3,3,3,0,-8.36,2.93,1.93,0.44,-0.97,0.13,22.375,-3.1875,-7.9375,0.7412109375,0.406005859375,0.4931640625,-0.20623779296875,25.375,-14.1875,4.25,-8.81,3.9,1.8,Climbing Up,4
6.37,6.322123904,27,3,3,3,0,-8.15,2.84,1.8,0.66,-1.05,0.01,19.375,-4.0625,-8.5,0.74053955078125,0.4068603515625,0.49285888671875,-0.20782470703125,24.375,-13.5,4.6875,-8.81,3.9,1.79,Climbing Up,4
6.38,6.322123904,27,3,3,3,0,-7.64,2.74,1.46,1.17,-1.14,-0.32,17.5,-5.3125,-8.9375,0.739990234375,0.407470703125,0.49249267578125,-0.2093505859375,24.375,-13.5,4.6875,-8.82,3.89,1.79,Climbing Up,4
6.39,6.336986697,27,3,3,3,0,-7.41,2.74,1.33,1.41,-1.13,-0.45,17.125,-7.125,-9.625,0.739501953125,0.4080810546875,0.4920654296875,-0.2109375,24.375,-13.5,4.6875,-8.82,3.88,1.79,Climbing Up,4
6.4,6.336986697,27,3,3,3,0,-7.2,2.76,1.28,1.62,-1.1,-0.5,18.5,-8.625,-11.125,0.739013671875,0.40863037109375,0.4915771484375,-0.2127685546875,24.375,-13.5,4.6875,-8.83,3.87,1.79,Climbing Up,4
6.41,6.357098473,27,3,3,3,0,-6.97,2.72,1.28,1.86,-1.13,-0.51,19.8125,-9.125,-13.3125,0.7384033203125,0.40911865234375,0.49114990234375,-0.21478271484375,24.375,-13.5,4.6875,-8.83,3.85,1.79,Climbing Up,4
6.42,6.357098473,27,3,3,3,0,-6.49,2.61,1.37,2.34,-1.22,-0.41,19.5625,-8.4375,-15.25,0.73779296875,0.40960693359375,0.49078369140625,-0.2169189453125,24.75,-12.375,4.25,-8.84,3.83,1.79,Climbing Up,4
6.43,6.383323774,27,3,3,3,0,-6.23,2.54,1.41,2.61,-1.27,-0.37,18.1875,-7.625,-16.625,0.73712158203125,0.409912109375,0.49053955078125,-0.21905517578125,24.75,-12.375,4.25,-8.85,3.81,1.79,Climbing Up,4
6.44,6.383323774,27,3,3,3,0,-5.93,2.52,1.44,2.93,-1.26,-0.34,16.4375,-6.125,-17.0,0.7364501953125,0.41009521484375,0.490478515625,-0.2210693359375,24.75,-12.375,4.25,-8.86,3.79,1.79,Climbing Up,4
6.45,6.397029585,27,3,3,3,0,-5.61,2.48,1.41,3.26,-1.28,-0.36,14.5,-5.0,-16.8125,0.73583984375,0.41021728515625,0.490478515625,-0.22296142578125,24.75,-12.375,4.25,-8.87,3.77,1.78,Climbing Up,4
6.46,6.397029585,27,3,3,3,0,-5.22,2.48,1.4,3.65,-1.26,-0.37,14.4375,-4.5,-16.25,0.73516845703125,0.41033935546875,0.490478515625,-0.22479248046875,24.75,-12.375,4.25,-8.88,3.75,1.78,Climbing Up,4
6.47,6.412231326,27,3,3,3,0,-5.25,2.52,1.33,3.63,-1.21,-0.44,15.4375,-4.375,-15.6875,0.7344970703125,0.41058349609375,0.490478515625,-0.22662353515625,26.25,-12.75,2.25,-8.89,3.73,1.78,Climbing Up,4
6.48,6.412231326,27,3,3,3,0,-5.35,2.57,1.16,3.54,-1.13,-0.6,17.3125,-3.8125,-15.3125,0.73370361328125,0.41094970703125,0.49041748046875,-0.228515625,26.25,-12.75,2.25,-8.89,3.71,1.77,Climbing Up,4
6.49,6.441785159,27,3,3,3,0,-5.45,2.58,1.0,3.45,-1.11,-0.76,20.625,-3.0625,-14.8125,0.7327880859375,0.41162109375,0.4903564453125,-0.23046875,26.25,-12.75,2.25,-8.9,3.69,1.76,Climbing Up,4
6.5,6.441785159,27,3,3,3,0,-5.8,2.6,1.0,3.1,-1.07,-0.75,23.875,-3.9375,-14.25,0.7318115234375,0.41241455078125,0.49017333984375,-0.2325439453125,26.25,-12.75,2.25,-8.91,3.68,1.75,Climbing Up,4
6.51,6.45771737,27,3,3,3,0,-6.08,2.63,1.01,2.83,-1.03,-0.73,26.0,-5.8125,-13.625,0.7308349609375,0.41339111328125,0.48974609375,-0.2347412109375,26.25,-12.75,2.25,-8.92,3.67,1.75,Climbing Up,4
6.52,6.45771737,27,3,3,3,0,-6.08,2.63,1.01,2.83,-1.03,-0.73,26.0,-5.8125,-13.625,0.7308349609375,0.41339111328125,0.48974609375,-0.2347412109375,26.25,-12.75,2.25,-8.92,3.67,1.75,Climbing Up,4
6.52,6.462389367,27,3,3,3,0,-6.38,2.6,1.11,2.54,-1.04,-0.63,26.6875,-7.0,-12.8125,0.72991943359375,0.41436767578125,0.4892578125,-0.2369384765625,25.875,-11.5625,2.25,-8.92,3.65,1.74,Climbing Up,4
6.53,6.462389367,27,3,3,3,0,-7.13,2.57,1.25,1.79,-1.07,-0.48,26.3125,-7.4375,-11.5,0.72900390625,0.4154052734375,0.4886474609375,-0.23907470703125,25.875,-11.5625,2.25,-8.93,3.64,1.73,Climbing Up,4
6.54,6.488467777,27,3,3,3,0,-7.59,2.56,1.27,1.34,-1.07,-0.45,25.1875,-7.1875,-10.125,0.72821044921875,0.41644287109375,0.488037109375,-0.2410888671875,25.875,-11.5625,2.25,-8.93,3.64,1.73,Climbing Up,4
6.55,6.488467777,27,3,3,3,0,-8.11,2.63,1.29,0.83,-0.99,-0.42,23.9375,-6.5,-9.3125,0.7274169921875,0.41741943359375,0.48748779296875,-0.242919921875,25.875,-11.5625,2.25,-8.94,3.63,1.72,Climbing Up,4
6.56,6.502305749,27,3,3,3,0,-8.7,2.69,1.33,0.23,-0.93,-0.38,22.8125,-6.125,-8.0625,0.7266845703125,0.41839599609375,0.48687744140625,-0.24462890625,25.875,-11.5625,2.25,-8.94,3.62,1.72,Climbing Up,4
6.57,6.502305749,27,3,3,3,0,-9.9,2.9,1.5,-0.95,-0.71,-0.21,22.5625,-5.3125,-7.625,0.72589111328125,0.41937255859375,0.48638916015625,-0.24627685546875,24.5,-11.0,0.75,-8.95,3.62,1.71,Climbing Up,4
6.58,6.532362756,27,3,3,3,0,-10.46,3.08,1.76,-1.51,-0.53,0.05,22.1875,-3.5625,-6.4375,0.72509765625,0.42041015625,0.48590087890625,-0.24774169921875,24.5,-11.0,0.75,-8.95,3.61,1.7,Climbing Up,4
6.59,6.532362756,27,3,3,3,0,-11.0,3.26,2.21,-2.04,-0.35,0.52,20.875,-1.9375,-4.4375,0.72430419921875,0.4215087890625,0.4854736328125,-0.2490234375,24.5,-11.0,0.75,-8.95,3.61,1.69,Climbing Up,4
6.6,6.546921634,27,3,3,3,0,-11.63,3.38,2.89,-2.68,-0.23,1.21,20.25,2.375,-1.1875,0.723388671875,0.42279052734375,0.48529052734375,-0.2498779296875,24.5,-11.0,0.75,-8.95,3.62,1.68,Climbing Up,4
6.61,6.546921634,27,3,3,3,0,-12.95,3.51,3.65,-3.99,-0.11,2.0,20.3125,9.5625,2.625,0.7222900390625,0.42437744140625,0.4853515625,-0.250244140625,24.5,-11.0,0.75,-8.95,3.63,1.65,Climbing Up,4
6.62,6.56300627,27,3,3,3,0,-13.54,3.62,3.75,-4.58,-0.01,2.13,19.9375,11.3125,5.0,0.72119140625,0.42608642578125,0.4854736328125,-0.25030517578125,26.25,-10.875,2.0625,-8.95,3.64,1.62,Climbing Up,4
6.63,6.56300627,27,3,3,3,0,-14.06,3.74,3.92,-5.11,0.08,2.32,17.9375,3.875,7.5,0.72052001953125,0.4276123046875,0.48504638671875,-0.25048828125,26.25,-10.875,2.0625,-8.95,3.66,1.6,Climbing Up,4
6.64,6.592224409,27,3,3,3,0,-14.23,3.86,4.01,-5.28,0.19,2.4,13.6875,-8.5625,9.375,0.7205810546875,0.4287109375,0.48382568359375,-0.25079345703125,26.25,-10.875,2.0625,-8.94,3.67,1.61,Climbing Up,4
6.65,6.592224409,27,3,3,3,0,-14.08,3.97,4.28,-5.14,0.28,2.64,7.1875,-19.5625,10.6875,0.7213134765625,0.42913818359375,0.4820556640625,-0.25115966796875,26.25,-10.875,2.0625,-8.93,3.69,1.63,Climbing Up,4
6.66,6.60766724,27,3,3,3,0,-13.94,3.92,4.17,-5.02,0.21,2.5,-0.9375,-24.625,10.3125,0.72265625,0.428955078125,0.48016357421875,-0.25140380859375,26.25,-10.875,2.0625,-8.92,3.71,1.67,Climbing Up,4
6.67,6.60766724,27,3,3,3,0,-13.64,3.95,3.95,-4.73,0.23,2.22,-9.1875,-26.6875,9.0,0.72430419921875,0.42816162109375,0.47833251953125,-0.25146484375,25.875,-9.0,0.875,-8.9,3.72,1.72,Climbing Up,4
6.68,6.622302331,27,3,3,3,0,-12.89,4.13,3.29,-4.0,0.4,1.51,-15.625,-28.75,8.1875,0.72625732421875,0.4268798828125,0.4765625,-0.25140380859375,25.875,-9.0,0.875,-8.89,3.73,1.77,Climbing Up,4
6.69,6.622302331,27,3,3,3,0,-12.51,4.16,3.07,-3.63,0.42,1.23,-18.9375,-30.625,8.25,0.7283935546875,0.42535400390625,0.4747314453125,-0.251220703125,25.875,-9.0,0.875,-8.87,3.73,1.83,Climbing Up,4
6.7,6.653193119,27,3,3,3,0,-12.07,4.01,2.99,-3.21,0.26,1.09,-19.4375,-30.375,8.75,0.7305908203125,0.42376708984375,0.472900390625,-0.25103759765625,25.875,-9.0,0.875,-8.86,3.74,1.89,Climbing Up,4
6.71,6.653193119,27,3,3,3,0,-11.77,3.89,2.89,-2.92,0.14,0.94,-18.5625,-28.5,9.5625,0.732666015625,0.42236328125,0.47119140625,-0.250732421875,25.875,-9.0,0.875,-8.84,3.75,1.95,Climbing Up,4
6.72,6.667248864,27,3,3,3,0,-11.28,4.05,2.51,-2.45,0.28,0.5,-17.125,-28.6875,10.1875,0.73468017578125,0.4210205078125,0.4693603515625,-0.25042724609375,27.0625,-10.75,-0.5625,-8.83,3.76,2.0,Climbing Up,4
6.73,6.667248864,27,3,3,3,0,-11.01,4.28,2.25,-2.19,0.5,0.18,-16.25,-31.4375,11.0625,0.73681640625,0.41973876953125,0.46728515625,-0.250244140625,27.0625,-10.75,-0.5625,-8.81,3.77,2.06,Climbing Up,4
6.74,6.681988773,27,3,3,3,0,-10.7,4.53,1.81,-1.91,0.74,-0.31,-16.5625,-32.8125,12.0625,0.739013671875,0.41839599609375,0.465087890625,-0.25,27.0625,-10.75,-0.5625,-8.79,3.78,2.13,Climbing Up,4
6.75,6.681988773,27,3,3,3,0,-10.37,4.75,1.45,-1.6,0.95,-0.73,-17.6875,-31.125,12.8125,0.7412109375,0.4171142578125,0.4630126953125,-0.24957275390625,27.0625,-10.75,-0.5625,-8.77,3.79,2.18,Climbing Up,4
6.76,6.713008223,27,3,3,3,0,-9.5,5.07,1.23,-0.75,1.26,-1.0,-18.75,-27.1875,13.0625,0.74322509765625,0.415771484375,0.461181640625,-0.24896240234375,27.0625,-10.75,-0.5625,-8.75,3.8,2.24,Climbing Up,4
6.77,6.713008223,27,3,3,3,0,-8.99,5.23,1.11,-0.25,1.41,-1.18,-21.25,-23.875,13.5,0.7452392578125,0.4144287109375,0.45965576171875,-0.24810791015625,26.0,-10.6875,-2.0625,-8.73,3.82,2.29,Climbing Up,4
6.78,6.727487349,27,3,3,3,0,-8.53,5.43,0.95,0.18,1.59,-1.38,-24.1875,-21.0,14.5,0.747314453125,0.4129638671875,0.458251953125,-0.24700927734375,26.0,-10.6875,-2.0625,-8.71,3.83,2.34,Climbing Up,4
6.79,6.727487349,27,3,3,3,0,-8.14,5.64,0.73,0.55,1.79,-1.65,-27.1875,-17.9375,16.25,0.74932861328125,0.41143798828125,0.45709228515625,-0.2454833984375,26.0,-10.6875,-2.0625,-8.69,3.84,2.38,Climbing Up,4
6.8,6.742405968,27,3,3,3,0,-8.14,5.64,0.73,0.55,1.79,-1.65,-27.1875,-17.9375,16.25,0.74932861328125,0.41143798828125,0.45709228515625,-0.2454833984375,26.0,-10.6875,-2.0625,-8.69,3.84,2.38,Climbing Up,4
6.8,6.742405968,27,3,3,3,0,-7.36,5.86,0.66,1.31,2.0,-1.76,-29.1875,-14.125,18.1875,0.7513427734375,0.409912109375,0.4561767578125,-0.24365234375,26.0,-10.6875,-2.0625,-8.68,3.86,2.42,Climbing Up,4
