timestamp,android_nano_timestamp,temperature,calib_mag,calib_accel,calib_gyro,calib_sys,acc_x,acc_y,acc_z,lacc_x,lacc_y,lacc_z,gyro_x,gyro_y,gyro_z,quat_w,quat_x,quat_y,quat_z,mag_x,mag_y,mag_z,gravity_x,gravity_y,gravity_z,label,person
0.98,0.945338013,24,3,3,3,0,-359.0,8.29,-3.75,0.05,-0.03,-0.08,-0.23,-1.4375,0.0,478.0,0.4508056640625,0.69573974609375,0.30780029296875,0.0215,-17.75,27.6875,-22.75,8.32,-3.67,Standing,2
0.99,0.945338013,24,3,3,3,0,-356.0,8.26,-3.74,0.08,-0.06,-0.07,-0.15,-1.25,-0.1875,478.125,0.4508056640625,0.6956787109375,0.30780029296875,0.0215,-17.75,27.6875,-22.75,8.32,-3.67,Standing,2
1.0,0.948615112,24,3,3,3,0,-360.0,8.23,-3.59,0.04,-0.08,0.07,-0.11,-0.75,-0.5,478.1875,0.4508056640625,0.69561767578125,0.307861328125,0.0215,-17.75,27.6875,-22.75,8.32,-3.67,Standing,2
1.01,0.948615112,24,3,3,3,0,-358.0,8.21,-3.53,0.06,-0.11,0.12,-0.18,-0.5,-0.75,478.25,0.45074462890625,0.69561767578125,0.307861328125,0.0215,-17.75,27.6875,-22.8125,8.32,-3.66,Standing,2
1.02,0.979691203,24,3,3,3,0,-359.0,8.23,-3.56,0.05,-0.09,0.1,-0.26,-1.0625,-0.6875,478.4375,0.45062255859375,0.695556640625,0.30792236328125,0.0215,-17.75,27.6875,-22.8125,8.33,-3.66,Standing,2
1.03,0.979691203,24,3,3,3,0,-360.0,8.26,-3.63,0.04,-0.06,0.02,-0.41,-1.1875,-0.5625,478.625,0.4505615234375,0.69549560546875,0.3079833984375,0.0212,-17.75,27.25,-22.8125,8.33,-3.66,Standing,2
1.04,0.992422648,24,3,3,3,0,-362.0,8.29,-3.72,0.03,-0.03,-0.06,-0.47,-1.0625,-0.5625,478.8125,0.450439453125,0.69537353515625,0.30810546875,0.0212,-17.75,27.25,-22.8125,8.33,-3.65,Standing,2
1.05,0.992422648,24,3,3,3,0,-365.0,8.34,-3.74,0.0,0.01,-0.08,-0.46,-0.625,-0.625,479.0,0.45025634765625,0.6953125,0.3082275390625,0.0212,-17.75,27.25,-22.8125,8.33,-3.65,Standing,2
1.06,1.011786011,24,3,3,3,0,-365.0,8.38,-3.71,0.0,0.05,-0.06,-0.35,-0.0625,-0.625,479.0625,0.45013427734375,0.69525146484375,0.308349609375,0.0212,-17.75,27.25,-22.8125,8.33,-3.64,Standing,2
1.07,1.011786011,24,3,3,3,0,-361.0,8.39,-3.64,0.04,0.05,0.0,-0.22,-0.375,-0.75,479.1875,0.4500732421875,0.69525146484375,0.30841064453125,0.0212,-17.75,27.25,-22.8125,8.33,-3.64,Standing,2
1.08,1.039215983,24,3,3,3,0,-359.0,8.36,-3.65,0.06,0.02,0.0,-0.2,-0.8125,-0.6875,479.3125,0.449951171875,0.69525146484375,0.30841064453125,0.0215,-17.75,25.375,-22.875,8.33,-3.64,Standing,2
1.09,1.039215983,24,3,3,3,0,-359.0,8.36,-3.69,0.06,0.03,-0.05,-0.22,-1.0,-0.75,479.4375,0.44989013671875,0.6951904296875,0.30841064453125,0.0215,-17.75,25.375,-22.875,8.33,-3.64,Standing,2
1.1,1.0528302,24,3,3,3,0,-359.0,8.35,-3.7,0.06,0.02,-0.06,-0.2,-1.0625,-0.75,479.5625,0.4498291015625,0.69512939453125,0.30841064453125,0.0215,-17.75,25.375,-22.875,8.33,-3.63,Standing,2
1.11,1.0528302,24,3,3,3,0,-359.0,8.31,-3.65,0.07,-0.02,-0.02,-0.16,-1.0625,-0.75,479.6875,0.44976806640625,0.695068359375,0.30841064453125,0.0215,-17.75,25.375,-22.875,8.33,-3.63,Standing,2
1.12,1.082677857,24,3,3,3,0,-356.0,8.32,-3.63,0.09,-0.01,0.0,-0.1,-1.25,-0.875,479.8125,0.44976806640625,0.695068359375,0.30841064453125,0.0215,-17.75,25.375,-22.875,8.33,-3.63,Standing,2
1.13,1.082677857,24,3,3,3,0,-358.0,8.3,-3.58,0.07,-0.03,0.04,-0.09,-0.6875,-1.0,479.875,0.44970703125,0.695068359375,0.308349609375,0.0222,-17.0625,26.1875,-22.875,8.33,-3.63,Standing,2
1.14,1.098179973,25,3,3,3,0,-358.0,8.3,-3.57,0.08,-0.03,0.05,-0.07,-0.625,-0.75,479.9375,0.44964599609375,0.695068359375,0.30828857421875,0.0222,-17.0625,26.1875,-22.9375,8.33,-3.63,Standing,2
1.15,1.098179973,25,3,3,3,0,-362.0,8.27,-3.59,0.04,-0.05,0.03,-0.08,-0.8125,-0.8125,480.0,0.44964599609375,0.695068359375,0.3082275390625,0.0222,-17.0625,26.1875,-22.9375,8.33,-3.63,Standing,2
1.16,1.113196533,25,3,3,3,0,-360.0,8.26,-3.59,0.06,-0.07,0.04,-0.09,-0.8125,-0.8125,480.125,0.4495849609375,0.69500732421875,0.3082275390625,0.0222,-17.0625,26.1875,-22.9375,8.33,-3.63,Standing,2
1.17,1.113196533,25,3,3,3,0,-362.0,8.26,-3.56,0.05,-0.07,0.06,-0.08,-0.6875,-0.6875,480.1875,0.4495849609375,0.69500732421875,0.30816650390625,0.0222,-17.0625,26.1875,-22.9375,8.33,-3.63,Standing,2
1.18,1.128637818,25,3,3,3,0,-364.0,8.27,-3.58,0.03,-0.05,0.04,-0.11,-0.875,-0.5,480.25,0.4495849609375,0.6949462890625,0.30816650390625,0.0222,-17.0625,26.1875,-22.9375,8.33,-3.62,Standing,2
1.19,1.128637818,25,3,3,3,0,-365.0,8.27,-3.62,0.02,-0.05,0.0,-0.14,-1.3125,-0.75,480.375,0.44952392578125,0.69488525390625,0.30810546875,0.0222,-17.0625,26.1875,-22.9375,8.33,-3.62,Standing,2
1.2,1.158541016,25,3,3,3,0,-368.0,8.29,-3.64,0.0,-0.03,-0.02,-0.19,-1.25,-0.625,480.5625,0.449462890625,0.69482421875,0.30810546875,0.0222,-17.0625,26.1875,-22.9375,8.33,-3.62,Standing,2
1.21,1.158541016,25,3,3,3,0,-368.0,8.28,-3.65,0.0,-0.04,-0.03,-0.21,-1.125,-0.75,480.6875,0.44940185546875,0.69482421875,0.30810546875,0.0222,-17.0625,26.1875,-23.0,8.33,-3.62,Standing,2
1.22,1.173195923,25,3,3,3,0,-371.0,8.33,-3.65,-0.03,0.0,-0.03,-0.18,-1.375,-0.75,480.875,0.4493408203125,0.69476318359375,0.30810546875,0.0222,-17.0625,26.1875,-23.0,8.33,-3.61,Standing,2
1.23,1.173195923,25,3,3,3,0,-368.0,8.36,-3.62,0.0,0.02,0.0,-0.18,-0.9375,-0.8125,481.0,0.44927978515625,0.6947021484375,0.30810546875,0.0233,-17.75,25.75,-23.0,8.33,-3.61,Standing,2
1.24,1.187662354,25,3,3,3,0,-367.0,8.34,-3.58,0.01,0.01,0.02,-0.18,-0.9375,-0.875,481.125,0.44915771484375,0.6947021484375,0.30810546875,0.0233,-17.75,25.75,-23.0,8.33,-3.61,Standing,2
1.25,1.187662354,25,3,3,3,0,-365.0,8.37,-3.61,0.03,0.04,0.0,-0.23,-0.6875,-0.9375,481.25,0.4490966796875,0.69464111328125,0.30810546875,0.0233,-17.75,25.75,-23.0,8.33,-3.61,Standing,2
1.26,1.217607056,25,3,3,3,0,-367.0,8.35,-3.62,0.01,0.02,-0.01,-0.27,-0.5625,-0.6875,481.375,0.448974609375,0.694580078125,0.30816650390625,0.0233,-17.75,25.75,-23.0625,8.33,-3.6,Standing,2
1.27,1.217607056,25,3,3,3,0,-368.0,8.35,-3.62,0.0,0.01,-0.01,-0.29,-0.5,-0.5,481.4375,0.44891357421875,0.69451904296875,0.30828857421875,0.0233,-17.75,25.75,-23.0625,8.33,-3.6,Standing,2
1.28,1.233159994,25,3,3,3,0,-369.0,8.34,-3.62,0.0,0.0,-0.01,-0.29,-0.3125,-0.4375,481.5,0.4488525390625,0.69451904296875,0.30841064453125,0.0237,-17.375,25.0625,-23.0625,8.34,-3.6,Standing,2
1.29,1.233159994,25,3,3,3,0,-367.0,8.32,-3.61,0.01,-0.01,-0.01,-0.2,-0.5,-0.3125,481.5625,0.44879150390625,0.6944580078125,0.3084716796875,0.0237,-17.375,25.0625,-23.0625,8.34,-3.6,Standing,2
1.3,1.247622925,25,3,3,3,0,-363.0,8.34,-3.63,0.05,0.0,-0.03,-0.12,-0.375,-0.5625,481.625,0.44873046875,0.6944580078125,0.30853271484375,0.0237,-17.375,25.0625,-23.0625,8.34,-3.6,Standing,2
1.31,1.247622925,25,3,3,3,0,-359.0,8.35,-3.6,0.09,0.01,0.0,-0.09,-0.3125,-0.5625,481.625,0.44866943359375,0.6944580078125,0.30853271484375,0.0237,-17.375,25.0625,-23.0625,8.34,-3.6,Standing,2
1.32,1.293436198,25,3,3,3,0,-364.0,8.29,-3.54,0.05,-0.04,0.05,-0.08,0.125,-0.625,481.625,0.4486083984375,0.69451904296875,0.3084716796875,0.0237,-17.375,25.0625,-23.0625,8.34,-3.6,Standing,2
1.33,1.293436198,25,3,3,3,0,-362.0,8.28,-3.55,0.06,-0.05,0.04,-0.15,0.4375,-0.3125,481.6875,0.4486083984375,0.6944580078125,0.30853271484375,0.0226,-17.375,26.1875,-23.0625,8.34,-3.59,Standing,2
1.34,1.29637732,25,3,3,3,0,-370.0,8.25,-3.53,-0.01,-0.08,0.06,-0.21,0.375,-0.1875,481.75,0.44854736328125,0.6944580078125,0.30865478515625,0.0226,-17.375,26.1875,-23.0625,8.34,-3.59,Standing,2
1.35,1.29637732,25,3,3,3,0,-375.0,8.29,-3.61,-0.05,-0.04,-0.01,-0.25,0.0,0.0,481.8125,0.448486328125,0.69439697265625,0.3087158203125,0.0226,-17.375,26.1875,-23.0625,8.34,-3.59,Standing,2
1.36,1.307756022,25,3,3,3,0,-375.0,8.34,-3.67,-0.06,0.0,-0.08,-0.22,-1.0,-0.1875,481.9375,0.44842529296875,0.6943359375,0.30877685546875,0.0226,-17.375,26.1875,-23.0625,8.34,-3.59,Standing,2
1.37,1.307756022,25,3,3,3,0,-371.0,8.34,-3.71,-0.01,0.0,-0.12,-0.14,-1.375,-0.375,482.0625,0.44842529296875,0.6942138671875,0.30877685546875,0.0226,-17.375,26.1875,-23.0625,8.34,-3.59,Standing,2
1.38,1.338314657,25,3,3,3,0,-366.0,8.32,-3.67,0.03,-0.02,-0.08,-0.05,-1.0625,-0.8125,482.125,0.44842529296875,0.6942138671875,0.3087158203125,0.0222,-17.75,24.6875,-23.0625,8.34,-3.58,Standing,2
1.39,1.338314657,25,3,3,3,0,-365.0,8.33,-3.59,0.04,-0.01,0.0,0.04,-0.5,-1.1875,482.125,0.4483642578125,0.69427490234375,0.30865478515625,0.0222,-17.75,24.6875,-23.0625,8.34,-3.59,Standing,2
1.4,1.353217245,25,3,3,3,0,-365.0,8.31,-3.54,0.04,-0.02,0.04,0.04,-0.1875,-1.0625,482.1875,0.44830322265625,0.6943359375,0.30859375,0.0222,-17.75,24.6875,-23.0625,8.34,-3.59,Standing,2
1.41,1.353217245,25,3,3,3,0,-366.0,8.3,-3.47,0.03,-0.03,0.11,-0.02,0.0625,-0.9375,482.1875,0.4482421875,0.6943359375,0.30853271484375,0.0222,-17.75,24.6875,-23.125,8.34,-3.59,Standing,2
1.42,1.383205689,25,3,3,3,0,-365.0,8.26,-3.5,0.04,-0.07,0.08,-0.15,0.0625,-0.8125,482.25,0.4481201171875,0.69439697265625,0.30859375,0.0222,-17.75,24.6875,-23.125,8.34,-3.58,Standing,2
1.43,1.383205689,25,3,3,3,0,-365.0,8.28,-3.55,0.04,-0.05,0.02,-0.27,-0.5,-0.6875,482.375,0.447998046875,0.6943359375,0.30865478515625,0.022,-17.0625,26.1875,-23.125,8.34,-3.58,Standing,2
1.44,1.412927043,25,3,3,3,0,-368.0,8.31,-3.62,0.01,-0.03,-0.04,-0.31,-0.5625,-0.6875,482.5,0.44793701171875,0.69427490234375,0.3087158203125,0.022,-17.0625,26.1875,-23.125,8.34,-3.58,Standing,2
1.45,1.412927043,25,3,3,3,0,-366.0,8.35,-3.7,0.04,0.01,-0.12,-0.3,-0.5625,-0.25,482.5625,0.4478759765625,0.6942138671875,0.308837890625,0.022,-17.0625,26.1875,-23.125,8.34,-3.57,Standing,2
1.46,1.41606958,25,3,3,3,0,-366.0,8.34,-3.67,0.04,0.0,-0.09,-0.21,-0.4375,-0.125,482.625,0.44781494140625,0.6942138671875,0.30889892578125,0.022,-17.0625,26.1875,-23.125,8.34,-3.57,Standing,2
1.47,1.41606958,25,3,3,3,0,-363.0,8.35,-3.63,0.07,0.01,-0.05,-0.13,-0.125,-0.4375,482.6875,0.44775390625,0.69415283203125,0.3089599609375,0.022,-17.0625,26.1875,-23.125,8.34,-3.57,Standing,2
1.48,1.427875489,25,3,3,3,0,-363.0,8.35,-3.57,0.06,0.01,0.0,-0.08,0.0,-0.5,482.625,0.44775390625,0.69415283203125,0.3089599609375,0.0233,-17.375,25.75,-23.125,8.34,-3.57,Standing,2
1.49,1.427875489,25,3,3,3,0,-362.0,8.32,-3.47,0.08,-0.02,0.1,-0.04,-0.1875,-0.4375,482.625,0.44775390625,0.69415283203125,0.3089599609375,0.0233,-17.375,25.75,-23.125,8.34,-3.57,Standing,2
1.5,1.458154541,25,3,3,3,0,-364.0,8.29,-3.48,0.06,-0.04,0.09,-0.06,-0.3125,-0.1875,482.625,0.44781494140625,0.69415283203125,0.3089599609375,0.0233,-17.375,25.75,-23.125,8.34,-3.57,Standing,2
1.51,1.458154541,25,3,3,3,0,-362.0,8.29,-3.49,0.08,-0.05,0.08,-0.1,-0.375,-0.3125,482.6875,0.44775390625,0.69415283203125,0.30902099609375,0.0233,-17.375,25.75,-23.125,8.34,-3.57,Standing,2
1.52,1.475260376,25,3,3,3,0,-362.0,8.27,-3.52,0.07,-0.06,0.04,-0.16,-1.0,-0.375,482.8125,0.44775390625,0.694091796875,0.30902099609375,0.0233,-17.375,25.75,-23.125,8.34,-3.57,Standing,2
1.53,1.475260376,25,3,3,3,0,-366.0,8.3,-3.55,0.04,-0.04,0.01,-0.17,-0.875,-0.1875,482.875,0.44775390625,0.69403076171875,0.30902099609375,0.0226,-18.1875,26.5625,-23.125,8.34,-3.57,Standing,2
1.54,1.488782308,25,3,3,3,0,-368.0,8.32,-3.56,0.01,-0.02,0.0,-0.15,-0.6875,-0.4375,482.9375,0.44769287109375,0.6939697265625,0.30908203125,0.0226,-18.1875,26.5625,-23.125,8.34,-3.57,Standing,2
1.55,1.488782308,25,3,3,3,0,-368.0,8.31,-3.56,0.02,-0.03,0.0,-0.1,-0.625,-0.5625,483.0625,0.4476318359375,0.69390869140625,0.30908203125,0.0226,-18.1875,26.5625,-23.125,8.34,-3.56,Standing,2
1.56,1.518589397,25,3,3,3,0,-368.0,8.32,-3.53,0.01,-0.02,0.03,-0.06,-0.75,-0.5,483.125,0.44769287109375,0.69390869140625,0.30902099609375,0.0226,-18.1875,26.5625,-23.125,8.34,-3.56,Standing,2
1.58,1.518589397,25,3,3,3,0,-365.0,8.32,-3.55,0.05,-0.02,0.01,-0.04,-0.625,-0.5,483.125,0.44769287109375,0.69390869140625,0.30902099609375,0.0226,-18.1875,26.5625,-23.125,8.34,-3.56,Standing,2
1.58,1.533103028,25,3,3,3,0,-365.0,8.32,-3.54,0.05,-0.02,0.02,-0.06,-0.875,-0.5625,483.1875,0.44769287109375,0.69384765625,0.3089599609375,0.0226,-17.0625,24.25,-23.125,8.34,-3.56,Standing,2
1.59,1.533103028,25,3,3,3,0,-370.0,8.34,-3.57,0.0,0.0,0.0,-0.13,-0.8125,-0.4375,483.3125,0.44769287109375,0.69378662109375,0.3089599609375,0.0226,-17.0625,24.25,-23.125,8.34,-3.56,Standing,2
1.6,1.547702108,25,3,3,3,0,-368.0,8.35,-3.6,0.02,0.0,-0.04,-0.16,-0.75,-0.25,483.375,0.4476318359375,0.6937255859375,0.30902099609375,0.0226,-17.0625,24.25,-23.1875,8.34,-3.56,Standing,2
1.61,1.547702108,25,3,3,3,0,-369.0,8.34,-3.6,0.01,0.0,-0.04,-0.12,-0.3125,-0.3125,483.4375,0.4476318359375,0.6937255859375,0.30908203125,0.0226,-17.0625,24.25,-23.125,8.34,-3.56,Standing,2
1.62,1.592760051,25,3,3,3,0,-370.0,8.37,-3.57,0.0,0.02,-0.01,-0.07,-0.3125,-0.25,483.4375,0.4476318359375,0.6937255859375,0.30908203125,0.0226,-17.0625,24.25,-23.125,8.34,-3.56,Standing,2
1.63,1.592760051,25,3,3,3,0,-371.0,8.36,-3.57,0.0,0.01,-0.01,0.01,0.0,-0.3125,483.4375,0.4476318359375,0.6937255859375,0.30908203125,0.0215,-17.75,25.0,-23.125,8.34,-3.56,Standing,2
1.64,1.595931438,25,3,3,3,0,-367.0,8.31,-3.58,0.03,-0.03,-0.01,0.01,-0.3125,-0.375,483.4375,0.4476318359375,0.6937255859375,0.30908203125,0.0215,-17.75,25.0,-23.125,8.34,-3.56,Standing,2
1.66,1.595931438,25,3,3,3,0,-369.0,8.31,-3.55,0.01,-0.03,0.0,0.01,-0.5625,-0.375,483.4375,0.4476318359375,0.6937255859375,0.30902099609375,0.0215,-17.75,25.0,-23.1875,8.34,-3.56,Standing,2
1.66,1.607424032,25,3,3,3,0,-370.0,8.29,-3.57,0.0,-0.05,-0.01,0.03,-0.4375,-0.5,483.4375,0.4476318359375,0.6937255859375,0.30902099609375,0.0215,-17.75,25.0,-23.1875,8.34,-3.56,Standing,2
1.67,1.607424032,25,3,3,3,0,-372.0,8.27,-3.53,-0.01,-0.07,0.02,0.04,-0.3125,-0.5625,483.4375,0.4476318359375,0.6937255859375,0.30902099609375,0.0215,-17.75,25.0,-23.1875,8.34,-3.56,Standing,2
1.68,1.638133179,25,3,3,3,0,-371.0,8.23,-3.44,0.0,-0.1,0.11,0.04,0.125,-0.9375,483.5,0.44757080078125,0.69378662109375,0.3089599609375,0.0222,-17.375,25.75,-23.1875,8.34,-3.56,Standing,2
1.69,1.638133179,25,3,3,3,0,-369.0,8.23,-3.47,0.01,-0.1,0.08,0.01,0.0625,-0.875,483.5,0.447509765625,0.69378662109375,0.3089599609375,0.0222,-17.375,25.75,-23.1875,8.34,-3.56,Standing,2
1.7,1.6534257,25,3,3,3,0,-368.0,8.24,-3.51,0.03,-0.1,0.04,-0.09,-0.375,-0.75,483.5625,0.44744873046875,0.69378662109375,0.3089599609375,0.0222,-17.375,25.75,-23.1875,8.34,-3.56,Standing,2
1.71,1.6534257,25,3,3,3,0,-369.0,8.28,-3.55,0.02,-0.06,0.0,-0.19,-0.625,-0.4375,483.625,0.4473876953125,0.6937255859375,0.3089599609375,0.0222,-17.375,25.75,-23.1875,8.34,-3.55,Standing,2
1.73,1.667465048,25,3,3,3,0,-372.0,8.32,-3.62,-0.01,-0.02,-0.06,-0.25,-0.625,-0.3125,483.75,0.44732666015625,0.69366455078125,0.30908203125,0.0222,-17.375,25.75,-23.1875,8.34,-3.55,Standing,2
1.74,1.667465048,25,3,3,3,0,-374.0,8.31,-3.62,-0.02,-0.03,-0.07,-0.18,-0.5,-0.4375,483.8125,0.44732666015625,0.69366455078125,0.30914306640625,0.0222,-17.75,26.1875,-23.1875,8.35,-3.55,Standing,2
1.74,1.697623902,25,3,3,3,0,-374.0,8.33,-3.64,-0.03,-0.01,-0.08,-0.07,-0.375,-0.5,483.8125,0.44732666015625,0.69366455078125,0.30914306640625,0.0222,-17.75,26.1875,-23.1875,8.35,-3.55,Standing,2
1.75,1.697623902,25,3,3,3,0,-374.0,8.31,-3.59,-0.02,-0.03,-0.03,0.0,-0.3125,-0.625,483.8125,0.447265625,0.69366455078125,0.30908203125,0.0222,-17.75,26.1875,-23.1875,8.35,-3.55,Standing,2
1.76,1.728767416,25,3,3,3,0,-373.0,8.3,-3.56,-0.01,-0.04,-0.01,0.03,-0.4375,-0.625,483.8125,0.44720458984375,0.6937255859375,0.30908203125,0.0222,-17.75,26.1875,-23.1875,8.34,-3.55,Standing,2
1.77,1.728767416,25,3,3,3,0,-372.0,8.3,-3.57,0.0,-0.04,-0.02,0.01,-0.5625,-0.625,483.875,0.44720458984375,0.6937255859375,0.30902099609375,0.0222,-17.75,26.1875,-23.1875,8.34,-3.55,Standing,2
1.78,1.731907797,25,3,3,3,0,-372.0,8.29,-3.56,0.0,-0.05,0.0,0.0,-0.5,-0.75,483.9375,0.4471435546875,0.6937255859375,0.3089599609375,0.0215,-17.375,25.75,-23.25,8.34,-3.55,Standing,2
1.79,1.731907797,25,3,3,3,0,-370.0,8.29,-3.53,0.01,-0.05,0.01,0.0,-0.375,-0.8125,483.9375,0.44708251953125,0.69378662109375,0.3089599609375,0.0215,-17.375,25.75,-23.25,8.34,-3.55,Standing,2
1.81,1.775051555,25,3,3,3,0,-368.0,8.3,-3.57,0.03,-0.04,-0.01,0.03,-0.5,-0.875,483.9375,0.447021484375,0.69378662109375,0.30889892578125,0.0215,-17.375,25.75,-23.25,8.34,-3.55,Standing,2
1.82,1.775051555,25,3,3,3,0,-368.0,8.29,-3.54,0.03,-0.04,0.01,0.04,-0.4375,-0.8125,484.0,0.447021484375,0.69384765625,0.30889892578125,0.0215,-17.375,25.75,-23.25,8.34,-3.55,Standing,2
1.83,1.778184489,25,3,3,3,0,-368.0,8.28,-3.54,0.04,-0.06,0.01,0.03,-0.5,-0.8125,484.0,0.44696044921875,0.69384765625,0.308837890625,0.0215,-17.375,25.75,-23.25,8.34,-3.55,Standing,2
1.83,1.778184489,25,3,3,3,0,-368.0,8.3,-3.53,0.04,-0.03,0.01,0.0,-0.5625,-0.5625,484.0625,0.4468994140625,0.69384765625,0.30877685546875,0.0215,-18.1875,25.75,-23.25,8.34,-3.55,Standing,2
1.84,1.788307455,25,3,3,3,0,-369.0,8.3,-3.54,0.02,-0.03,0.0,-0.02,-0.4375,-0.4375,484.0625,0.4468994140625,0.69384765625,0.30877685546875,0.0215,-18.1875,25.75,-23.25,8.34,-3.55,Standing,2
1.85,1.788307455,25,3,3,3,0,-370.0,8.33,-3.59,0.02,-0.01,-0.04,-0.04,-0.625,-0.125,484.0625,0.44696044921875,0.69384765625,0.30877685546875,0.0215,-18.1875,25.75,-23.25,8.34,-3.55,Standing,2
1.86,1.81769397,25,3,3,3,0,-370.0,8.31,-3.55,0.01,-0.02,0.0,-0.02,-0.3125,-0.1875,484.0625,0.44696044921875,0.69384765625,0.30877685546875,0.0215,-18.1875,25.75,-23.25,8.34,-3.55,Standing,2
1.88,1.81769397,25,3,3,3,0,-372.0,8.29,-3.57,0.0,-0.04,-0.02,-0.03,-0.3125,0.0,484.0625,0.44696044921875,0.69384765625,0.30877685546875,0.0215,-18.1875,25.75,-23.25,8.34,-3.55,Standing,2
1.89,1.832923951,25,3,3,3,0,-373.0,8.31,-3.53,0.0,-0.02,0.01,0.0,-0.25,0.125,484.0625,0.44696044921875,0.69384765625,0.30877685546875,0.0212,-17.375,25.0625,-23.25,8.34,-3.55,Standing,2
1.9,1.832923951,25,3,3,3,0,-374.0,8.33,-3.55,-0.01,-0.01,0.0,-0.03,-0.5,0.0625,484.0625,0.44696044921875,0.69384765625,0.30877685546875,0.0212,-17.375,25.0625,-23.25,8.34,-3.55,Standing,2
1.91,1.86260197,25,3,3,3,0,-373.0,8.31,-3.55,0.0,-0.02,0.0,-0.04,-0.4375,0.25,484.0625,0.44696044921875,0.69384765625,0.30877685546875,0.0212,-17.375,25.0625,-23.25,8.34,-3.55,Standing,2
1.91,1.86260197,25,3,3,3,0,-372.0,8.31,-3.56,0.0,-0.03,-0.01,-0.05,-0.625,0.1875,484.125,0.44696044921875,0.69378662109375,0.3087158203125,0.0212,-17.375,25.0625,-23.25,8.34,-3.55,Standing,2
1.92,1.878910604,25,3,3,3,0,-370.0,8.32,-3.56,0.01,-0.02,-0.01,-0.02,-0.8125,0.3125,484.1875,0.44696044921875,0.69378662109375,0.3087158203125,0.0212,-17.375,25.0625,-23.25,8.34,-3.55,Standing,2
1.93,1.878910604,25,3,3,3,0,-368.0,8.33,-3.56,0.04,-0.01,-0.01,0.0,-0.6875,0.1875,484.25,0.447021484375,0.6937255859375,0.30865478515625,0.0215,-17.75,26.1875,-23.25,8.34,-3.55,Standing,2
1.94,1.892923869,25,3,3,3,0,-369.0,8.29,-3.55,0.03,-0.05,0.0,0.0,-0.6875,0.25,484.25,0.447021484375,0.6937255859375,0.30865478515625,0.0215,-17.75,26.1875,-23.25,8.34,-3.55,Standing,2
1.95,1.892923869,25,3,3,3,0,-370.0,8.3,-3.55,0.02,-0.03,0.0,0.0,-0.6875,0.1875,484.3125,0.447021484375,0.69366455078125,0.30859375,0.0215,-17.75,26.1875,-23.25,8.34,-3.55,Standing,2
1.97,1.924259726,25,3,3,3,0,-368.0,8.28,-3.55,0.03,-0.06,0.0,0.0,-0.375,0.5,484.3125,0.447021484375,0.69366455078125,0.30859375,0.0215,-17.75,26.1875,-23.25,8.34,-3.55,Standing,2
1.98,1.924259726,25,3,3,3,0,-372.0,8.27,-3.56,0.0,-0.07,-0.01,0.0,-0.5625,0.375,484.375,0.44708251953125,0.69366455078125,0.30859375,0.0215,-17.75,26.1875,-23.25,8.34,-3.55,Standing,2
1.99,1.937767253,25,3,3,3,0,-376.0,8.27,-3.55,-0.03,-0.07,0.0,0.0,-0.6875,0.4375,484.375,0.44708251953125,0.69366455078125,0.30859375,0.0226,-19.1875,26.5625,-23.25,8.34,-3.55,Standing,2
1.99,1.937767253,25,3,3,3,0,-373.0,8.27,-3.53,0.0,-0.07,0.01,0.01,-0.5,0.3125,484.375,0.44708251953125,0.69366455078125,0.30859375,0.0226,-19.1875,26.5625,-23.25,8.34,-3.55,Standing,2
2.0,1.952915284,25,3,3,3,0,-376.0,8.27,-3.51,-0.03,-0.06,0.03,0.0,-0.375,0.1875,484.375,0.44708251953125,0.69366455078125,0.30859375,0.0226,-19.1875,26.5625,-23.25,8.34,-3.55,Standing,2
2.01,1.952915284,25,3,3,3,0,-374.0,8.28,-3.54,-0.01,-0.05,0.0,0.0,-0.375,0.3125,484.375,0.44708251953125,0.69366455078125,0.30859375,0.0226,-19.1875,26.5625,-23.25,8.34,-3.55,Standing,2
2.02,1.982891602,25,3,3,3,0,-373.0,8.29,-3.54,0.0,-0.04,0.0,0.0,-0.5,0.125,484.375,0.44708251953125,0.69366455078125,0.30859375,0.0226,-19.1875,26.5625,-23.25,8.34,-3.55,Standing,2
2.04,1.982891602,25,3,3,3,0,-372.0,8.27,-3.54,0.0,-0.06,0.0,-0.03,-0.5625,0.375,484.4375,0.44708251953125,0.693603515625,0.30853271484375,0.023,-17.75,25.75,-23.3125,8.34,-3.55,Standing,2
2.05,1.997263062,25,3,3,3,0,-373.0,8.29,-3.57,0.0,-0.04,-0.02,-0.03,-0.625,0.375,484.5,0.4471435546875,0.693603515625,0.30853271484375,0.023,-17.75,25.75,-23.3125,8.34,-3.54,Standing,2
2.06,1.997263062,25,3,3,3,0,-372.0,8.25,-3.6,0.0,-0.09,-0.05,-0.05,-0.875,0.25,484.5,0.4471435546875,0.69354248046875,0.3084716796875,0.023,-17.75,25.75,-23.3125,8.34,-3.54,Standing,2
2.07,2.012956951,25,3,3,3,0,-373.0,8.26,-3.57,0.0,-0.07,-0.02,-0.04,-0.6875,0.4375,484.5625,0.4471435546875,0.69354248046875,0.3084716796875,0.023,-17.75,25.75,-23.3125,8.34,-3.54,Standing,2
2.08,2.012956951,25,3,3,3,0,-376.0,8.27,-3.57,-0.03,-0.06,-0.02,-0.02,-0.5625,0.4375,484.625,0.44720458984375,0.6934814453125,0.30841064453125,0.023,-17.75,25.75,-23.3125,8.34,-3.54,Standing,2
2.08,2.044040894,25,3,3,3,0,-376.0,8.28,-3.58,-0.03,-0.06,-0.03,-0.02,-0.75,0.4375,484.625,0.44720458984375,0.6934814453125,0.30841064453125,0.0226,-17.375,26.1875,-23.3125,8.34,-3.54,Standing,2
2.09,2.044040894,25,3,3,3,0,-375.0,8.3,-3.56,-0.02,-0.03,-0.02,0.0,-0.625,0.1875,484.6875,0.44720458984375,0.69342041015625,0.308349609375,0.0226,-17.375,26.1875,-23.3125,8.34,-3.54,Standing,2
2.1,2.058633179,25,3,3,3,0,-373.0,8.34,-3.55,0.0,0.0,0.0,0.0,-0.5,0.0625,484.6875,0.44720458984375,0.69342041015625,0.308349609375,0.0226,-17.375,26.1875,-23.3125,8.34,-3.54,Standing,2
2.12,2.058633179,25,3,3,3,0,-373.0,8.26,-3.51,0.0,-0.07,0.03,-0.05,-0.25,0.0,484.6875,0.44720458984375,0.69342041015625,0.308349609375,0.0226,-17.375,26.1875,-23.3125,8.34,-3.54,Standing,2
2.13,2.072587525,25,3,3,3,0,-373.0,8.23,-3.55,0.0,-0.1,0.0,-0.09,0.0,0.0,484.6875,0.44720458984375,0.69342041015625,0.30841064453125,0.0226,-17.375,26.1875,-23.3125,8.34,-3.54,Standing,2
2.14,2.072587525,25,3,3,3,0,-384.0,8.24,-3.57,-0.11,-0.1,-0.03,-0.09,0.0,0.1875,484.75,0.44720458984375,0.69342041015625,0.3084716796875,0.0226,-17.375,25.75,-23.3125,8.34,-3.54,Standing,2
2.15,2.103112183,25,3,3,3,0,-384.0,8.26,-3.66,-0.11,-0.08,-0.11,-0.05,-0.125,0.3125,484.75,0.44720458984375,0.69342041015625,0.3084716796875,0.0226,-17.375,25.75,-23.3125,8.34,-3.54,Standing,2
2.16,2.103112183,25,3,3,3,0,-382.0,8.27,-3.69,-0.09,-0.06,-0.14,0.02,-1.3125,0.25,484.8125,0.44720458984375,0.693359375,0.30841064453125,0.0226,-17.375,25.75,-23.3125,8.34,-3.54,Standing,2
2.16,2.132979412,25,3,3,3,0,-377.0,8.28,-3.67,-0.04,-0.06,-0.13,0.09,-1.4375,0.0,484.875,0.447265625,0.69329833984375,0.30828857421875,0.0226,-17.375,25.75,-23.3125,8.34,-3.54,Standing,2
2.17,2.132979412,25,3,3,3,0,-372.0,8.26,-3.59,0.0,-0.08,-0.04,0.18,-1.4375,-0.3125,484.9375,0.4473876953125,0.69329833984375,0.30816650390625,0.0226,-17.375,25.75,-23.3125,8.34,-3.54,Standing,2
2.18,2.13595398,25,3,3,3,0,-371.0,8.27,-3.54,0.02,-0.07,0.0,0.24,-1.0,-0.375,484.9375,0.44744873046875,0.69329833984375,0.30804443359375,0.0222,-17.75,25.375,-23.3125,8.34,-3.54,Standing,2
2.2,2.13595398,25,3,3,3,0,-370.0,8.26,-3.47,0.02,-0.08,0.07,0.22,-0.6875,-0.1875,484.9375,0.447509765625,0.69329833984375,0.30792236328125,0.0222,-17.75,25.375,-23.3125,8.34,-3.54,Standing,2
2.21,2.164364218,25,3,3,3,0,-372.0,8.25,-3.47,0.01,-0.08,0.07,0.11,-0.3125,-0.25,484.875,0.44757080078125,0.69329833984375,0.307861328125,0.0222,-17.75,25.375,-23.3125,8.34,-3.54,Standing,2
2.22,2.164364218,25,3,3,3,0,-374.0,8.23,-3.49,0.0,-0.11,0.05,-0.01,-0.6875,0.0,484.9375,0.44757080078125,0.69329833984375,0.307861328125,0.0222,-17.75,25.375,-23.3125,8.34,-3.54,Standing,2
2.23,2.178539836,25,3,3,3,0,-373.0,8.26,-3.58,0.0,-0.08,-0.03,-0.15,-1.125,0.1875,485.0625,0.44757080078125,0.69317626953125,0.307861328125,0.0222,-17.75,25.375,-23.3125,8.34,-3.54,Standing,2
2.24,2.178539836,25,3,3,3,0,-378.0,8.28,-3.66,-0.04,-0.06,-0.11,-0.22,-1.25,0.625,485.1875,0.44757080078125,0.69305419921875,0.30792236328125,0.022,-17.375,25.0,-23.3125,8.34,-3.54,Standing,2
2.24,2.196093466,25,3,3,3,0,-379.0,8.26,-3.73,-0.05,-0.07,-0.18,-0.19,-1.125,0.5,485.3125,0.44757080078125,0.6929931640625,0.30792236328125,0.022,-17.375,25.0,-23.3125,8.34,-3.54,Standing,2
2.25,2.196093466,25,3,3,3,0,-380.0,8.26,-3.69,-0.06,-0.08,-0.15,-0.1,-0.6875,0.5,485.375,0.44757080078125,0.69293212890625,0.3079833984375,0.022,-17.375,25.0,-23.3125,8.34,-3.54,Standing,2
2.27,2.207877117,25,3,3,3,0,-378.0,8.27,-3.63,-0.04,-0.07,-0.09,0.0,-0.1875,0.4375,485.375,0.44757080078125,0.69293212890625,0.3079833984375,0.022,-17.375,25.0,-23.3125,8.34,-3.54,Standing,2
2.28,2.207877117,25,3,3,3,0,-376.0,8.25,-3.54,-0.02,-0.08,0.0,0.04,-0.25,0.1875,485.375,0.44757080078125,0.69293212890625,0.3079833984375,0.022,-17.375,25.0,-23.3125,8.34,-3.54,Standing,2
2.29,2.238799154,25,3,3,3,0,-371.0,8.26,-3.54,0.02,-0.07,0.0,0.03,-0.375,0.375,485.375,0.44757080078125,0.69293212890625,0.30792236328125,0.022,-17.375,24.6875,-23.3125,8.34,-3.54,Standing,2
2.3,2.238799154,25,3,3,3,0,-371.0,8.28,-3.57,0.02,-0.06,-0.03,-0.02,-0.5625,0.375,485.375,0.44757080078125,0.69293212890625,0.30792236328125,0.022,-17.375,24.6875,-23.3125,8.34,-3.54,Standing,2
2.31,2.252762004,25,3,3,3,0,-373.0,8.27,-3.6,0.0,-0.06,-0.06,-0.06,-0.8125,0.4375,485.4375,0.4476318359375,0.69293212890625,0.307861328125,0.022,-17.375,24.6875,-23.3125,8.34,-3.53,Standing,2
2.32,2.252762004,25,3,3,3,0,-374.0,8.26,-3.65,0.0,-0.08,-0.11,-0.07,-0.4375,0.6875,485.4375,0.4476318359375,0.69287109375,0.30792236328125,0.022,-17.375,24.6875,-23.3125,8.34,-3.53,Standing,2
2.33,2.267624838,25,3,3,3,0,-379.0,8.21,-3.64,-0.06,-0.13,-0.1,-0.03,-0.125,0.5,485.4375,0.4476318359375,0.69287109375,0.30792236328125,0.022,-17.375,24.6875,-23.3125,8.34,-3.53,Standing,2
2.33,2.267624838,25,3,3,3,0,-381.0,8.19,-3.62,-0.08,-0.15,-0.08,0.04,0.125,0.375,485.4375,0.4476318359375,0.69287109375,0.30792236328125,0.0233,-18.1875,25.375,-23.3125,8.34,-3.53,Standing,2
2.35,2.29797636,25,3,3,3,0,-382.0,8.19,-3.59,-0.08,-0.14,-0.05,0.08,0.25,0.25,485.4375,0.4476318359375,0.69287109375,0.30792236328125,0.0233,-18.1875,25.375,-23.3125,8.34,-3.53,Standing,2
2.36,2.29797636,25,3,3,3,0,-382.0,8.2,-3.55,-0.08,-0.13,-0.01,0.1,0.0,0.0,485.375,0.44769287109375,0.69287109375,0.307861328125,0.0233,-18.1875,25.375,-23.3125,8.34,-3.54,Standing,2
2.37,2.312807577,25,3,3,3,0,-384.0,8.18,-3.54,-0.1,-0.15,0.0,0.08,-0.125,0.0,485.375,0.44769287109375,0.69287109375,0.307861328125,0.0233,-18.1875,25.375,-23.3125,8.34,-3.54,Standing,2
2.38,2.312807577,25,3,3,3,0,-381.0,8.18,-3.5,-0.07,-0.15,0.03,0.0,-0.4375,0.0,485.375,0.44769287109375,0.69287109375,0.307861328125,0.0233,-18.1875,25.375,-23.3125,8.34,-3.54,Standing,2
2.39,2.327751873,25,3,3,3,0,-385.0,8.22,-3.52,-0.11,-0.12,0.01,-0.09,-0.6875,0.0,485.4375,0.44769287109375,0.69287109375,0.307861328125,0.022,-17.75,25.375,-23.3125,8.34,-3.53,Standing,2
2.4,2.327751873,25,3,3,3,0,-387.0,8.2,-3.56,-0.13,-0.14,-0.02,-0.18,-0.9375,0.0625,485.5625,0.4476318359375,0.69281005859375,0.30792236328125,0.022,-17.75,25.375,-23.3125,8.34,-3.53,Standing,2
2.41,2.358185304,25,3,3,3,0,-387.0,8.21,-3.56,-0.13,-0.13,-0.03,-0.22,-0.9375,0.0625,485.6875,0.4476318359375,0.69268798828125,0.30792236328125,0.022,-17.75,25.375,-23.375,8.34,-3.53,Standing,2
2.41,2.358185304,25,3,3,3,0,-388.0,8.2,-3.57,-0.13,-0.14,-0.04,-0.25,-1.25,0.25,485.8125,0.44757080078125,0.692626953125,0.3079833984375,0.022,-17.75,25.375,-23.375,8.34,-3.53,Standing,2
2.43,2.373172934,25,3,3,3,0,-389.0,8.25,-3.59,-0.15,-0.09,-0.06,-0.25,-1.1875,0.125,485.9375,0.44757080078125,0.6925048828125,0.30804443359375,0.022,-17.75,25.375,-23.375,8.34,-3.52,Standing,2
2.44,2.373172934,25,3,3,3,0,-385.0,8.25,-3.6,-0.1,-0.09,-0.07,-0.28,-1.8125,0.25,486.125,0.447509765625,0.6923828125,0.30804443359375,0.0226,-18.1875,25.375,-23.375,8.35,-3.52,Standing,2
2.45,2.387932537,25,3,3,3,0,-385.0,8.27,-3.59,-0.11,-0.07,-0.07,-0.25,-2.375,0.25,486.375,0.447509765625,0.6922607421875,0.30804443359375,0.0226,-18.1875,25.375,-23.375,8.35,-3.52,Standing,2
2.46,2.387932537,25,3,3,3,0,-387.0,8.27,-3.63,-0.13,-0.07,-0.11,-0.16,-2.25,0.375,486.5625,0.44757080078125,0.692138671875,0.30804443359375,0.0226,-18.1875,25.375,-23.375,8.35,-3.51,Standing,2
2.47,2.417815186,25,3,3,3,0,-390.0,8.24,-3.63,-0.15,-0.1,-0.11,-0.08,-1.9375,0.3125,486.6875,0.44757080078125,0.69207763671875,0.3079833984375,0.0226,-18.1875,25.375,-23.375,8.35,-3.51,Standing,2
2.48,2.417815186,25,3,3,3,0,-388.0,8.19,-3.48,-0.13,-0.16,0.02,0.0,-1.5625,0.125,486.75,0.4476318359375,0.6920166015625,0.30792236328125,0.0226,-18.1875,25.375,-23.375,8.35,-3.51,Standing,2
2.49,2.432497315,25,3,3,3,0,-387.0,8.19,-3.49,-0.12,-0.15,0.01,0.04,-1.5625,0.125,486.875,0.44769287109375,0.69195556640625,0.307861328125,0.0222,-18.1875,27.0,-23.375,8.35,-3.51,Standing,2
2.5,2.432497315,25,3,3,3,0,-386.0,8.2,-3.51,-0.11,-0.15,0.0,0.01,-1.8125,0.3125,486.9375,0.44775390625,0.69183349609375,0.3077392578125,0.0222,-18.1875,27.0,-23.4375,8.35,-3.51,Standing,2
2.51,2.463056235,25,3,3,3,0,-385.0,8.21,-3.55,-0.1,-0.13,-0.04,0.0,-2.1875,0.4375,487.125,0.44781494140625,0.6917724609375,0.30767822265625,0.0222,-18.1875,27.0,-23.4375,8.35,-3.51,Standing,2
2.52,2.463056235,25,3,3,3,0,-386.0,8.22,-3.59,-0.1,-0.12,-0.08,-0.04,-2.3125,0.625,487.25,0.4478759765625,0.691650390625,0.3076171875,0.0222,-18.1875,27.0,-23.4375,8.35,-3.51,Standing,2
2.53,2.477801555,25,3,3,3,0,-389.0,8.24,-3.59,-0.13,-0.1,-0.08,-0.02,-1.875,0.5625,487.3125,0.447998046875,0.6915283203125,0.30755615234375,0.0222,-18.1875,27.0,-23.4375,8.35,-3.5,Standing,2
2.54,2.477801555,25,3,3,3,0,-388.0,8.22,-3.6,-0.12,-0.12,-0.09,0.02,-2.0625,0.8125,487.4375,0.44805908203125,0.69140625,0.3074951171875,0.022,-18.1875,26.1875,-23.4375,8.35,-3.5,Standing,2
2.55,2.494059775,25,3,3,3,0,-390.0,8.22,-3.59,-0.14,-0.12,-0.08,0.07,-2.1875,0.75,487.5625,0.44818115234375,0.69134521484375,0.30743408203125,0.022,-18.1875,26.1875,-23.4375,8.35,-3.5,Standing,2
2.56,2.494059775,25,3,3,3,0,-387.0,8.24,-3.61,-0.12,-0.1,-0.1,0.13,-2.3125,0.9375,487.625,0.4483642578125,0.69122314453125,0.30731201171875,0.022,-18.1875,26.1875,-23.4375,8.35,-3.5,Standing,2
2.57,2.523933961,25,3,3,3,0,-387.0,8.24,-3.58,-0.12,-0.1,-0.07,0.13,-2.3125,0.9375,487.6875,0.448486328125,0.69110107421875,0.3072509765625,0.022,-18.1875,26.1875,-23.4375,8.35,-3.5,Standing,2
2.58,2.523933961,25,3,3,3,0,-385.0,8.24,-3.57,-0.1,-0.1,-0.06,0.16,-2.3125,1.1875,487.75,0.44866943359375,0.69097900390625,0.30712890625,0.022,-18.1875,26.1875,-23.4375,8.35,-3.5,Standing,2
2.59,2.538010662,25,3,3,3,0,-380.0,8.2,-3.54,-0.05,-0.15,-0.03,0.16,-2.3125,1.3125,487.8125,0.4488525390625,0.69085693359375,0.3070068359375,0.0222,-18.1875,26.5625,-23.4375,8.35,-3.5,Standing,2
2.6,2.538010662,25,3,3,3,0,-378.0,8.19,-3.53,-0.03,-0.15,-0.02,0.1,-2.5,1.5,487.9375,0.44903564453125,0.69073486328125,0.30694580078125,0.0222,-18.1875,26.5625,-23.4375,8.35,-3.5,Standing,2
2.61,2.552861207,25,3,3,3,0,-379.0,8.14,-3.54,-0.04,-0.21,-0.04,0.01,-2.6875,1.75,488.0625,0.44921875,0.6905517578125,0.306884765625,0.0222,-18.1875,26.5625,-23.4375,8.35,-3.5,Standing,2
2.62,2.552861207,25,3,3,3,0,-379.0,8.14,-3.51,-0.05,-0.21,-0.01,-0.03,-2.8125,2.0625,488.1875,0.44940185546875,0.69036865234375,0.306884765625,0.0222,-18.1875,26.5625,-23.375,8.35,-3.5,Standing,2
2.63,2.582848919,25,3,3,3,0,-382.0,8.14,-3.55,-0.08,-0.21,-0.05,-0.07,-2.875,2.3125,488.3125,0.44964599609375,0.69012451171875,0.306884765625,0.0222,-18.1875,26.5625,-23.375,8.35,-3.5,Standing,2
2.64,2.582848919,25,3,3,3,0,-384.0,8.13,-3.58,-0.09,-0.22,-0.08,-0.06,-2.75,2.4375,488.375,0.44989013671875,0.68994140625,0.30682373046875,0.0233,-17.75,25.375,-23.375,8.36,-3.49,Standing,2
2.65,2.59807719,25,3,3,3,0,-382.0,8.14,-3.55,-0.08,-0.21,-0.05,-0.02,-2.4375,2.375,488.5,0.4500732421875,0.68975830078125,0.30682373046875,0.0233,-17.75,25.375,-23.375,8.36,-3.49,Standing,2
2.66,2.59807719,25,3,3,3,0,-384.0,8.15,-3.55,-0.1,-0.2,-0.05,0.0,-2.0,2.625,488.5,0.45025634765625,0.68951416015625,0.306884765625,0.0233,-17.75,25.375,-23.375,8.36,-3.49,Standing,2
2.67,2.613923381,25,3,3,3,0,-387.0,8.17,-3.58,-0.13,-0.19,-0.09,0.0,-1.625,2.5625,488.5625,0.45050048828125,0.68939208984375,0.306884765625,0.0233,-17.75,25.375,-23.3125,8.36,-3.49,Standing,2
2.68,2.613923381,25,3,3,3,0,-389.0,8.17,-3.55,-0.15,-0.19,-0.05,-0.01,-1.4375,2.75,488.5625,0.45068359375,0.68927001953125,0.306884765625,0.0233,-17.75,25.375,-23.3125,8.36,-3.49,Standing,2
2.69,2.644264365,25,3,3,3,0,-387.0,8.18,-3.58,-0.13,-0.18,-0.09,-0.03,-1.4375,2.75,488.625,0.45086669921875,0.68914794921875,0.306884765625,0.0233,-18.875,25.75,-23.3125,8.36,-3.49,Standing,2
2.7,2.644264365,25,3,3,3,0,-387.0,8.18,-3.63,-0.14,-0.18,-0.13,-0.05,-1.1875,2.6875,488.5625,0.45098876953125,0.68902587890625,0.30682373046875,0.0233,-18.875,25.75,-23.3125,8.36,-3.49,Standing,2
2.71,2.660496664,25,3,3,3,0,-387.0,8.18,-3.69,-0.14,-0.18,-0.19,-0.01,-1.1875,2.875,488.5625,0.451171875,0.68896484375,0.3067626953125,0.0233,-18.875,25.75,-23.3125,8.36,-3.49,Standing,2
2.72,2.660496664,25,3,3,3,0,-390.0,8.2,-3.69,-0.17,-0.16,-0.19,0.0,-1.0,3.0625,488.5,0.451416015625,0.68890380859375,0.3067626953125,0.0233,-18.875,25.75,-23.3125,8.36,-3.49,Standing,2
2.73,2.672896241,25,3,3,3,0,-387.0,8.19,-3.69,-0.14,-0.17,-0.19,0.0,-0.4375,2.875,488.4375,0.4515380859375,0.6888427734375,0.30670166015625,0.0233,-18.875,25.75,-23.25,8.36,-3.49,Standing,2
2.74,2.672896241,25,3,3,3,0,-389.0,8.17,-3.64,-0.17,-0.19,-0.14,0.03,-0.0625,3.0,488.3125,0.45172119140625,0.6888427734375,0.30670166015625,0.0215,-18.5,25.0625,-23.25,8.36,-3.5,Standing,2
2.75,2.711215292,25,3,3,3,0,-388.0,8.11,-3.59,-0.15,-0.24,-0.09,0.03,0.6875,2.625,488.1875,0.4517822265625,0.6888427734375,0.30670166015625,0.0215,-18.5,25.0625,-23.25,8.36,-3.5,Walking,2
2.76,2.711215292,25,3,3,3,0,-389.0,8.07,-3.57,-0.16,-0.29,-0.06,0.0,0.875,2.5625,488.0625,0.451904296875,0.6888427734375,0.30670166015625,0.0215,-18.5,25.0625,-23.25,8.36,-3.5,Walking,2
2.77,2.71779655,25,3,3,3,0,-390.0,8.1,-3.51,-0.18,-0.26,0.0,-0.06,0.75,2.1875,488.0,0.45196533203125,0.68890380859375,0.30670166015625,0.0215,-18.5,25.0625,-23.1875,8.36,-3.5,Walking,2
2.78,2.71779655,25,3,3,3,0,-389.0,8.16,-3.54,-0.17,-0.2,-0.03,-0.22,0.25,2.0625,488.0,0.45196533203125,0.6888427734375,0.3067626953125,0.0215,-18.5,25.0625,-23.1875,8.36,-3.5,Walking,2
2.79,2.732487591,25,3,3,3,0,-391.0,8.19,-3.59,-0.2,-0.17,-0.09,-0.43,0.0625,2.125,488.0625,0.45196533203125,0.688720703125,0.30694580078125,0.022,-17.75,26.1875,-23.1875,8.37,-3.5,Walking,2
2.8,2.732487591,25,3,3,3,0,-393.0,8.22,-3.64,-0.22,-0.15,-0.14,-0.63,0.0,2.4375,488.1875,0.451904296875,0.6885986328125,0.30712890625,0.022,-17.75,26.1875,-23.1875,8.37,-3.49,Walking,2
2.81,2.763251181,25,3,3,3,0,-396.0,8.25,-3.75,-0.24,-0.12,-0.26,-0.75,0.0625,2.3125,488.3125,0.4517822265625,0.6884765625,0.30731201171875,0.022,-17.75,26.1875,-23.1875,8.37,-3.49,Walking,2
2.82,2.763251181,25,3,3,3,0,-401.0,8.29,-3.78,-0.3,-0.08,-0.29,-0.79,0.625,2.5,488.375,0.45166015625,0.68841552734375,0.30755615234375,0.022,-17.75,26.1875,-23.1875,8.37,-3.49,Walking,2
2.83,2.778501954,25,3,3,3,0,-406.0,8.3,-3.75,-0.34,-0.07,-0.27,-0.71,1.1875,2.3125,488.4375,0.4515380859375,0.68841552734375,0.3077392578125,0.022,-17.75,26.1875,-23.1875,8.37,-3.48,Walking,2
2.84,2.778501954,25,3,3,3,0,-406.0,8.31,-3.72,-0.35,-0.06,-0.23,-0.61,2.125,2.0625,488.375,0.45135498046875,0.6884765625,0.30792236328125,0.0226,-18.1875,26.1875,-23.1875,8.37,-3.48,Walking,2
2.85,2.79404533,25,3,3,3,0,-410.0,8.3,-3.66,-0.38,-0.07,-0.17,-0.55,2.875,2.0625,488.3125,0.451171875,0.68853759765625,0.30810546875,0.0226,-18.1875,26.1875,-23.1875,8.38,-3.48,Walking,2
2.86,2.79404533,25,3,3,3,0,-413.0,8.32,-3.74,-0.41,-0.05,-0.26,-0.56,3.125,1.875,488.25,0.45098876953125,0.68865966796875,0.3082275390625,0.0226,-18.1875,26.1875,-23.1875,8.38,-3.48,Walking,2
2.87,2.822943605,25,3,3,3,0,-412.0,8.34,-3.78,-0.4,-0.04,-0.29,-0.64,3.25,1.625,488.1875,0.45074462890625,0.68878173828125,0.30841064453125,0.0226,-18.1875,26.1875,-23.1875,8.38,-3.48,Walking,2
2.88,2.822943605,25,3,3,3,0,-411.0,8.35,-3.86,-0.4,-0.02,-0.38,-0.64,3.6875,1.375,488.0625,0.450439453125,0.68902587890625,0.30853271484375,0.0226,-18.1875,26.1875,-23.1875,8.38,-3.48,Walking,2
2.89,2.839323487,25,3,3,3,0,-407.0,8.35,-3.89,-0.35,-0.02,-0.41,-0.58,4.4375,1.25,487.875,0.4501953125,0.68927001953125,0.30865478515625,0.0215,-18.1875,26.5625,-23.1875,8.37,-3.48,Walking,2
2.9,2.839323487,25,3,3,3,0,-390.0,8.3,-3.98,-0.19,-0.07,-0.49,-0.47,5.1875,0.75,487.5625,0.449951171875,0.6895751953125,0.30877685546875,0.0215,-18.1875,26.5625,-23.1875,8.37,-3.49,Walking,2
2.91,2.853988038,25,3,3,3,0,-380.0,8.26,-3.93,-0.09,-0.11,-0.43,-0.36,5.75,0.6875,487.125,0.44976806640625,0.68994140625,0.30889892578125,0.0215,-18.1875,26.5625,-23.1875,8.37,-3.49,Walking,2
2.92,2.853988038,25,3,3,3,0,-369.0,8.22,-3.87,0.0,-0.15,-0.38,-0.3,6.25,1.0,486.75,0.4495849609375,0.69012451171875,0.30926513671875,0.0215,-18.1875,26.5625,-23.125,8.37,-3.49,Walking,2
2.93,2.884212932,25,3,3,3,0,-347.0,8.13,-3.72,0.22,-0.24,-0.22,-0.37,6.4375,1.4375,486.4375,0.44940185546875,0.69024658203125,0.30975341796875,0.0215,-18.1875,26.5625,-23.125,8.38,-3.49,Walking,2
2.94,2.884212932,25,3,3,3,0,-340.0,8.01,-3.7,0.29,-0.36,-0.2,-0.47,6.5,2.125,486.0625,0.44921875,0.69036865234375,0.31024169921875,0.0226,-18.1875,27.25,-23.0625,8.38,-3.49,Walking,2
2.95,2.897632936,25,3,3,3,0,-329.0,7.89,-3.67,0.39,-0.49,-0.17,-0.7,6.625,2.5,485.75,0.44903564453125,0.6904296875,0.31085205078125,0.0226,-18.1875,27.25,-23.0,8.38,-3.49,Walking,2
2.96,2.897632936,25,3,3,3,0,-314.0,7.75,-3.74,0.53,-0.64,-0.25,-0.91,5.6875,3.3125,485.5625,0.44879150390625,0.69036865234375,0.31158447265625,0.0226,-18.1875,27.25,-22.9375,8.39,-3.49,Walking,2
2.97,2.912529868,25,3,3,3,0,-277.0,7.45,-3.84,0.88,-0.94,-0.35,-1.13,4.0625,4.25,485.4375,0.44866943359375,0.690185546875,0.31231689453125,0.0226,-18.1875,27.25,-22.875,8.4,-3.48,Walking,2
2.98,2.912529868,25,3,3,3,0,-256.0,7.45,-3.87,1.09,-0.94,-0.4,-1.42,1.75,5.125,485.5625,0.44854736328125,0.6898193359375,0.31317138671875,0.0226,-18.1875,27.25,-22.875,8.4,-3.47,Walking,2
2.99,2.94378121,25,3,3,3,0,-234.0,7.46,-3.89,1.3,-0.95,-0.44,-1.66,-1.25,6.3125,485.875,0.44854736328125,0.68927001953125,0.31396484375,0.023,-18.1875,27.6875,-22.8125,8.41,-3.45,Walking,2
3.0,2.94378121,25,3,3,3,0,-216.0,7.47,-3.91,1.48,-0.95,-0.47,-1.73,-3.6875,7.875,486.3125,0.44866943359375,0.6884765625,0.3148193359375,0.023,-18.1875,27.6875,-22.75,8.43,-3.43,Walking,2
3.01,2.958369264,25,3,3,3,0,-217.0,8.0,-3.72,1.45,-0.43,-0.29,-1.66,-4.8125,8.8125,486.75,0.44891357421875,0.68768310546875,0.31561279296875,0.023,-18.1875,27.6875,-22.6875,8.44,-3.42,Walking,2
3.02,2.958369264,25,3,3,3,0,-228.0,8.27,-3.6,1.33,-0.17,-0.19,-1.43,-4.6875,9.9375,487.125,0.44927978515625,0.68682861328125,0.31634521484375,0.023,-18.1875,27.6875,-22.625,8.45,-3.4,Walking,2
3.03,2.973066733,25,3,3,3,0,-238.0,8.42,-3.59,1.22,-0.04,-0.19,-1.11,-3.6875,10.5625,487.3125,0.44970703125,0.68609619140625,0.31707763671875,0.023,-18.1875,27.6875,-22.5,8.46,-3.39,Walking,2
3.04,2.973066733,25,3,3,3,0,-251.0,8.43,-3.62,1.08,-0.04,-0.24,-1.17,-2.375,11.125,487.4375,0.45013427734375,0.68536376953125,0.31787109375,0.0222,-18.5,27.25,-22.4375,8.47,-3.38,Walking,2
3.05,3.010481569,25,3,3,3,0,-300.0,8.76,-4.09,0.57,0.27,-0.73,-1.63,-2.8125,12.1875,487.6875,0.4505615234375,0.68450927734375,0.31884765625,0.0222,-18.5,27.25,-22.3125,8.48,-3.36,Walking,2
3.06,3.010481569,25,3,3,3,0,-338.0,9.12,-4.54,0.17,0.61,-1.2,-2.38,-4.25,12.75,488.1875,0.4508056640625,0.68341064453125,0.32012939453125,0.0222,-18.5,27.25,-22.1875,8.5,-3.33,Walking,2
3.07,3.017515626,25,3,3,3,0,-371.0,9.44,-5.09,-0.17,0.92,-1.78,-2.93,-5.75,13.3125,488.875,0.45098876953125,0.68212890625,0.321533203125,0.0222,-18.5,27.25,-22.125,8.52,-3.3,Walking,2
3.08,3.017515626,25,3,3,3,0,-418.0,9.67,-5.81,-0.65,1.12,-2.53,-2.96,-5.125,12.25,489.5625,0.45111083984375,0.680908203125,0.32293701171875,0.0222,-18.5,27.25,-22.0,8.54,-3.27,Walking,2
3.09,3.033418417,25,3,3,3,0,-419.0,9.64,-5.76,-0.67,1.08,-2.5,-2.16,-1.375,10.375,489.875,0.45123291015625,0.6800537109375,0.3240966796875,0.0215,-18.5,28.0625,-21.9375,8.55,-3.25,Walking,2
3.1,3.033418417,25,3,3,3,0,-402.0,9.45,-5.41,-0.52,0.89,-2.16,-0.7,4.25,7.375,489.5625,0.45135498046875,0.67987060546875,0.3248291015625,0.0215,-18.5,28.0625,-21.8125,8.56,-3.25,Walking,2
3.11,3.063455608,25,3,3,3,0,-379.0,9.15,-4.88,-0.3,0.59,-1.61,0.6,8.75,4.875,488.75,0.4515380859375,0.68011474609375,0.32513427734375,0.0215,-18.5,28.0625,-21.75,8.56,-3.26,Walking,2
3.12,3.063455608,25,3,3,3,0,-336.0,8.57,-4.02,0.11,0.0,-0.74,0.95,9.4375,3.375,487.8125,0.45172119140625,0.6805419921875,0.3253173828125,0.0215,-18.5,28.0625,-21.6875,8.56,-3.28,Walking,2
3.13,3.078903199,25,3,3,3,0,-318.0,8.28,-3.83,0.28,-0.28,-0.55,0.06,6.5625,3.1875,487.3125,0.4517822265625,0.68072509765625,0.32568359375,0.0215,-18.5,28.0625,-21.625,8.56,-3.28,Walking,2
3.14,3.078903199,25,3,3,3,0,-305.0,7.98,-3.87,0.4,-0.59,-0.6,-1.32,1.875,3.6875,487.375,0.45159912109375,0.680419921875,0.326416015625,0.0215,-18.875,27.6875,-21.625,8.57,-3.27,Walking,2
3.15,3.093876792,25,3,3,3,0,-302.0,7.76,-4.0,0.42,-0.82,-0.76,-2.59,-2.375,4.375,488.0625,0.45123291015625,0.6796875,0.32745361328125,0.0215,-18.875,27.6875,-21.5625,8.58,-3.24,Walking,2
3.16,3.093876792,25,3,3,3,0,-295.0,7.31,-4.22,0.49,-1.28,-1.01,-3.27,-4.25,4.625,489.0,0.4508056640625,0.67877197265625,0.32867431640625,0.0215,-18.875,27.6875,-21.5625,8.59,-3.21,Walking,2
3.17,3.124125815,25,3,3,3,0,-288.0,7.13,-4.11,0.55,-1.47,-0.93,-3.34,-3.9375,4.4375,489.9375,0.4503173828125,0.6778564453125,0.3299560546875,0.0215,-18.875,27.6875,-21.5,8.61,-3.18,Walking,2
3.18,3.124125815,25,3,3,3,0,-279.0,6.98,-3.95,0.64,-1.64,-0.79,-2.96,-2.5,3.6875,490.6875,0.4498291015625,0.67706298828125,0.3310546875,0.0215,-18.875,27.6875,-21.5,8.62,-3.15,Walking,2
3.19,3.138578859,25,3,3,3,0,-267.0,6.84,-3.7,0.75,-1.79,-0.57,-2.53,-0.8125,3.1875,491.25,0.44940185546875,0.67645263671875,0.33209228515625,0.0222,-18.875,30.0625,-21.4375,8.63,-3.12,Walking,2
3.2,3.138578859,25,3,3,3,0,-245.0,6.7,-3.28,0.97,-1.94,-0.17,-2.39,-0.375,2.875,491.75,0.448974609375,0.6759033203125,0.33306884765625,0.0222,-18.875,30.0625,-21.4375,8.64,-3.1,Walking,2
3.21,3.152977337,25,3,3,3,0,-239.0,6.74,-3.15,1.03,-1.91,-0.06,-2.56,-1.25,2.8125,492.375,0.448486328125,0.67529296875,0.3341064453125,0.0222,-18.875,30.0625,-21.375,8.65,-3.08,Walking,2
3.22,3.152977337,25,3,3,3,0,-239.0,6.8,-3.09,1.03,-1.86,-0.04,-3.02,-3.375,2.9375,493.25,0.447998046875,0.67449951171875,0.335205078125,0.0222,-18.875,30.0625,-21.375,8.66,-3.05,Walking,2
3.23,3.185516928,25,3,3,3,0,-245.0,6.95,-3.36,0.96,-1.72,-0.34,-3.5,-5.25,3.0625,494.3125,0.44744873046875,0.67352294921875,0.33642578125,0.0222,-18.875,30.0625,-21.375,8.67,-3.01,Walking,2
3.24,3.185516928,25,3,3,3,0,-251.0,7.08,-3.56,0.91,-1.61,-0.58,-3.9,-6.0625,3.0,495.5625,0.44677734375,0.67242431640625,0.33770751953125,0.0222,-18.1875,28.875,-21.375,8.69,-2.97,Walking,2
3.25,3.197861736,25,3,3,3,0,-255.0,7.14,-3.81,0.86,-1.56,-0.87,-3.99,-5.625,3.0,496.75,0.446044921875,0.67132568359375,0.33905029296875,0.0222,-18.1875,28.875,-21.375,8.7,-2.93,Walking,2
3.26,3.197861736,25,3,3,3,0,-258.0,7.29,-4.02,0.83,-1.43,-1.12,-3.74,-3.75,2.75,497.8125,0.44537353515625,0.67041015625,0.34039306640625,0.0222,-18.1875,28.875,-21.3125,8.72,-2.89,Walking,2
3.27,3.212655193,25,3,3,3,0,-249.0,7.38,-4.22,0.91,-1.34,-1.36,-3.18,-1.0,2.125,498.5625,0.4447021484375,0.669677734375,0.34161376953125,0.0222,-18.1875,28.875,-21.3125,8.73,-2.86,Walking,2
3.28,3.212655193,25,3,3,3,0,-247.0,7.52,-4.22,0.93,-1.22,-1.37,-2.44,2.375,1.3125,499.0,0.44403076171875,0.6693115234375,0.3426513671875,0.0222,-18.1875,28.875,-21.3125,8.74,-2.84,Walking,2
3.29,3.244254274,25,3,3,3,0,-245.0,7.55,-4.22,0.95,-1.19,-1.38,-1.67,5.625,0.1875,499.0625,0.44342041015625,0.66925048828125,0.34344482421875,0.022,-18.75,29.5625,-21.25,8.74,-2.83,Walking,2
3.3,3.244254274,25,3,3,3,0,-242.0,7.46,-4.26,0.98,-1.28,-1.43,-0.96,7.5625,-0.75,498.8125,0.44293212890625,0.66943359375,0.34405517578125,0.022,-18.75,29.5625,-21.25,8.74,-2.83,Walking,2
3.31,3.25793506,25,3,3,3,0,-234.0,7.21,-4.21,1.05,-1.53,-1.38,-0.33,9.8125,-1.4375,498.3125,0.4425048828125,0.66986083984375,0.344482421875,0.022,-18.75,29.5625,-21.25,8.74,-2.83,Walking,2
3.32,3.25793506,25,3,3,3,0,-225.0,7.06,-4.17,1.14,-1.68,-1.33,0.17,11.375,-1.9375,497.625,0.44207763671875,0.67047119140625,0.34478759765625,0.022,-18.75,29.5625,-21.25,8.74,-2.84,Walking,2
3.33,3.272732708,25,3,3,3,0,-221.0,6.91,-4.11,1.17,-1.82,-1.25,0.56,12.5625,-2.375,496.8125,0.44171142578125,0.67120361328125,0.34490966796875,0.022,-18.75,29.5625,-21.1875,8.74,-2.85,Walking,2
3.34,3.272732708,25,3,3,3,0,-219.0,6.99,-4.1,1.2,-1.74,-1.23,0.82,13.1875,-2.8125,495.875,0.44140625,0.67205810546875,0.344970703125,0.023,-17.6875,30.75,-21.1875,8.73,-2.87,Walking,2
3.35,3.3032393,25,3,3,3,0,-218.0,7.36,-4.37,1.2,-1.37,-1.48,0.72,12.5625,-2.6875,495.0,0.4410400390625,0.6728515625,0.3450927734375,0.023,-17.6875,30.75,-21.1875,8.73,-2.88,Walking,2
3.36,3.3032393,25,3,3,3,0,-226.0,7.56,-4.76,1.12,-1.16,-1.86,0.4,10.6875,-2.4375,494.3125,0.44073486328125,0.6734619140625,0.34521484375,0.023,-17.6875,30.75,-21.1875,8.73,-2.89,Walking,2
3.37,3.333626792,25,3,3,3,0,-231.0,7.89,-5.22,1.08,-0.84,-2.32,-0.11,8.0,-2.0,493.875,0.44036865234375,0.67388916015625,0.34552001953125,0.023,-17.6875,30.75,-21.1875,8.73,-2.9,Walking,2
3.38,3.333626792,25,3,3,3,0,-236.0,8.26,-5.66,1.02,-0.46,-2.76,-0.55,4.5,-1.6875,493.75,0.44000244140625,0.674072265625,0.34576416015625,0.023,-17.6875,30.75,-21.1875,8.73,-2.9,Walking,2
3.39,3.336738079,25,3,3,3,0,-252.0,9.02,-6.3,0.87,0.29,-3.41,-0.73,1.375,-1.75,493.875,0.43963623046875,0.674072265625,0.34600830078125,0.023,-18.6875,30.0625,-21.1875,8.73,-2.89,Walking,2
3.4,3.336738079,25,3,3,3,0,-261.0,9.35,-6.55,0.77,0.62,-3.66,-0.72,-0.9375,-2.3125,494.125,0.43939208984375,0.67401123046875,0.34613037109375,0.023,-18.6875,30.0625,-21.1875,8.73,-2.88,Walking,2
3.41,3.363179241,25,3,3,3,0,-278.0,9.73,-6.76,0.61,0.99,-3.88,-0.69,-4.375,-2.875,494.625,0.43914794921875,0.673828125,0.3460693359375,0.023,-18.6875,30.0625,-21.25,8.73,-2.88,Walking,2
3.42,3.363179241,25,3,3,3,0,-317.0,10.35,-7.19,0.23,1.61,-4.32,-0.78,-8.125,-3.5625,495.375,0.43902587890625,0.6734619140625,0.34588623046875,0.023,-18.6875,30.0625,-21.3125,8.73,-2.86,Walking,2
3.43,3.377566692,25,3,3,3,0,-333.0,10.5,-7.3,0.08,1.77,-4.45,-0.75,-12.3125,-4.5,496.4375,0.43896484375,0.67303466796875,0.345458984375,0.023,-18.6875,30.0625,-21.375,8.73,-2.85,Walking,2
3.44,3.377566692,25,3,3,3,0,-347.0,10.51,-7.31,-0.03,1.78,-4.47,-0.36,-15.4375,-5.5,497.5625,0.43902587890625,0.67254638671875,0.34478759765625,0.0222,-18.0,31.1875,-21.5,8.73,-2.84,Walking,2
3.45,3.393162802,25,3,3,3,0,-356.0,10.34,-7.17,-0.1,1.62,-4.33,0.52,-16.8125,-6.9375,498.625,0.43927001953125,0.67218017578125,0.3436279296875,0.0222,-18.0,31.1875,-21.5625,8.72,-2.84,Walking,2
3.46,3.393162802,25,3,3,3,0,-362.0,9.88,-6.41,-0.14,1.16,-3.56,1.66,-17.0,-9.1875,499.4375,0.439697265625,0.67218017578125,0.3419189453125,0.0222,-18.0,31.1875,-21.75,8.71,-2.84,Walking,2
3.47,3.468972495,25,3,3,3,0,-387.0,9.85,-5.94,-0.36,1.15,-3.08,2.69,-17.375,-11.75,500.125,0.4403076171875,0.67242431640625,0.33978271484375,0.0222,-18.0,31.1875,-21.875,8.69,-2.86,Walking,2
3.48,3.468972495,25,3,3,3,0,-430.0,10.01,-5.54,-0.76,1.33,-2.65,3.42,-18.625,-14.0625,500.8125,0.44097900390625,0.6728515625,0.337158203125,0.0222,-18.0,31.1875,-22.0625,8.67,-2.88,Walking,2
3.49,3.47224813,25,3,3,3,0,-453.0,10.18,-5.27,-0.96,1.53,-2.36,3.68,-20.0625,-16.5625,501.5625,0.44158935546875,0.67333984375,0.33428955078125,0.0209,-17.5625,29.5625,-22.3125,8.65,-2.9,Walking,2
3.5,3.47224813,25,3,3,3,0,-434.0,10.4,-5.01,-0.72,1.77,-2.08,3.65,-20.5625,-18.9375,502.375,0.44207763671875,0.673828125,0.33135986328125,0.0209,-17.5625,29.5625,-22.5625,8.63,-2.93,Walking,2
3.51,3.475303956,25,3,3,3,0,-415.0,10.6,-4.98,-0.5,2.0,-2.03,3.15,-19.9375,-20.375,503.375,0.44232177734375,0.67437744140625,0.3284912109375,0.0209,-17.5625,29.5625,-22.8125,8.6,-2.95,Walking,2
3.52,3.475303956,25,3,3,3,0,-412.0,10.95,-5.11,-0.42,2.36,-2.15,1.84,-21.375,-19.625,504.75,0.44232177734375,0.674560546875,0.32611083984375,0.0209,-17.5625,29.5625,-23.0625,8.59,-2.95,Walking,2
3.53,3.484263958,25,3,3,3,0,-434.0,11.38,-5.45,-0.61,2.8,-2.51,0.24,-26.375,-16.6875,506.6875,0.442138671875,0.6741943359375,0.32427978515625,0.0209,-17.5625,29.5625,-23.3125,8.57,-2.94,Walking,2
3.54,3.484263958,25,3,3,3,0,-527.0,12.05,-6.02,-1.51,3.48,-3.1,-0.37,-28.75,-13.8125,508.875,0.44207763671875,0.67340087890625,0.32269287109375,0.022,-16.5,26.5,-23.5,8.57,-2.92,Walking,2
3.55,3.497944256,25,3,3,3,0,-568.0,12.2,-5.48,-1.89,3.64,-2.56,0.82,-23.5625,-12.0625,510.375,0.4422607421875,0.67303466796875,0.3209228515625,0.022,-16.5,26.5,-23.6875,8.55,-2.91,Walking,2
3.56,3.497944256,25,3,3,3,0,-576.0,12.13,-4.34,-1.94,3.59,-1.4,3.46,-10.75,-12.0625,510.4375,0.44281005859375,0.6737060546875,0.31866455078125,0.022,-16.5,26.5,-23.8125,8.54,-2.94,Walking,2
3.56,3.52834249,25,3,3,3,0,-576.0,12.13,-4.34,-1.94,3.59,-1.4,3.46,-10.75,-12.0625,510.4375,0.44281005859375,0.6737060546875,0.31866455078125,0.022,-16.5,26.5,-23.8125,8.54,-2.94,Walking,2
3.57,3.52834249,25,3,3,3,0,-535.0,11.05,-2.07,-1.51,2.54,0.92,5.92,2.1875,-12.6875,509.1875,0.44366455078125,0.67529296875,0.3160400390625,0.022,-16.5,26.5,-23.9375,8.51,-2.99,Walking,2
3.58,3.53133541,25,3,3,3,0,-510.0,10.39,-1.27,-1.25,1.91,1.78,6.33,7.8125,-12.9375,507.4375,0.44439697265625,0.67724609375,0.31341552734375,0.022,-16.5,26.5,-24.0625,8.48,-3.06,Walking,2
3.59,3.53133541,25,3,3,3,0,-501.0,9.92,-0.89,-1.14,1.46,2.21,4.73,5.3125,-11.6875,506.25,0.44488525390625,0.67877197265625,0.31134033203125,0.022,-16.5,23.75,-24.125,8.45,-3.11,Walking,2
3.6,3.558312013,25,3,3,3,0,-510.0,9.55,-0.89,-1.22,1.11,2.24,2.66,0.75,-9.8125,505.75,0.44500732421875,0.6796875,0.3099365234375,0.022,-16.5,23.75,-24.1875,8.44,-3.13,Walking,2
3.61,3.558312013,25,3,3,3,0,-527.0,8.75,-1.26,-1.38,0.32,1.88,1.16,-1.75,-8.5625,505.75,0.44488525390625,0.68017578125,0.30902099609375,0.022,-16.5,23.75,-24.3125,8.43,-3.14,Walking,2
3.62,3.573864829,25,3,3,3,0,-531.0,8.35,-1.19,-1.4,-0.06,1.95,0.52,-0.25,-8.25,505.8125,0.444580078125,0.68060302734375,0.3084716796875,0.022,-16.5,23.75,-24.375,8.42,-3.15,Walking,2
3.63,3.573864829,25,3,3,3,0,-525.0,8.04,-0.98,-1.34,-0.37,2.17,0.48,4.0,-8.375,505.625,0.444091796875,0.68121337890625,0.30804443359375,0.022,-16.5,23.75,-24.4375,8.41,-3.16,Walking,2
3.64,3.588713869,25,3,3,3,0,-521.0,7.75,-0.71,-1.28,-0.65,2.45,0.4,7.25,-8.375,505.3125,0.44354248046875,0.68194580078125,0.30780029296875,0.022,-15.0,23.0,-24.5,8.4,-3.17,Walking,2
3.65,3.588713869,25,3,3,3,0,-517.0,7.42,-0.23,-1.25,-0.98,2.93,-0.05,9.3125,-7.875,504.9375,0.44281005859375,0.68267822265625,0.30780029296875,0.022,-15.0,23.0,-24.5,8.4,-3.17,Walking,2
3.66,3.602738649,25,3,3,3,0,-520.0,7.36,-0.11,-1.26,-1.03,3.06,-0.75,10.75,-6.875,504.625,0.44189453125,0.68328857421875,0.3082275390625,0.022,-15.0,23.0,-24.5625,8.4,-3.18,Walking,2
3.67,3.602738649,25,3,3,3,0,-513.0,7.42,-0.1,-1.2,-0.97,3.07,-1.41,11.6875,-6.0,504.375,0.44085693359375,0.68377685546875,0.30889892578125,0.022,-15.0,23.0,-24.5625,8.4,-3.17,Walking,2
3.68,3.648555421,25,3,3,3,0,-503.0,7.54,-0.16,-1.09,-0.85,3.0,-1.97,12.25,-5.5,504.25,0.439697265625,0.6842041015625,0.30987548828125,0.022,-15.0,23.0,-24.5625,8.4,-3.16,Walking,2
3.69,3.648555421,25,3,3,3,0,-467.0,7.83,-0.54,-0.73,-0.57,2.6,-2.35,12.4375,-4.9375,504.1875,0.43841552734375,0.6845703125,0.31097412109375,0.022,-15.0,21.0625,-24.5625,8.4,-3.15,Walking,2
3.7,3.651784181,25,3,3,3,0,-443.0,7.8,-0.89,-0.49,-0.6,2.24,-2.56,11.75,-4.25,504.1875,0.43719482421875,0.684814453125,0.31219482421875,0.022,-15.0,21.0625,-24.5625,8.41,-3.13,Walking,2
3.71,3.651784181,25,3,3,3,0,-416.0,7.81,-1.21,-0.23,-0.6,1.9,-2.98,10.9375,-3.125,504.375,0.43585205078125,0.6849365234375,0.3135986328125,0.022,-15.0,21.0625,-24.5625,8.42,-3.12,Walking,2
3.72,3.662400067,25,3,3,3,0,-383.0,7.89,-1.81,0.09,-0.54,1.28,-3.7,10.3125,-1.875,504.6875,0.43450927734375,0.684814453125,0.31524658203125,0.022,-15.0,21.0625,-24.5625,8.43,-3.09,Walking,2
3.73,3.662400067,25,3,3,3,0,-382.0,7.96,-2.16,0.09,-0.48,0.89,-4.4,8.875,-0.3125,505.1875,0.43304443359375,0.6844482421875,0.31719970703125,0.022,-15.0,21.0625,-24.5,8.44,-3.05,Walking,2
3.74,3.693247194,25,3,3,3,0,-379.0,8.0,-2.48,0.12,-0.45,0.54,-4.78,8.5625,0.25,505.8125,0.4315185546875,0.6839599609375,0.3193359375,0.0226,-14.6875,20.6875,-24.5,8.46,-3.02,Walking,2
3.75,3.693247194,25,3,3,3,0,-376.0,7.88,-2.62,0.15,-0.59,0.35,-4.76,10.5625,0.1875,506.3125,0.429931640625,0.68359375,0.32147216796875,0.0226,-14.6875,20.6875,-24.4375,8.47,-2.98,Walking,2
3.76,3.722992352,25,3,3,3,0,-362.0,7.38,-2.34,0.28,-1.11,0.61,-4.3,15.4375,-0.625,506.375,0.4283447265625,0.68353271484375,0.3236083984375,0.0226,-14.6875,20.6875,-24.4375,8.49,-2.95,Walking,2
3.77,3.722992352,25,3,3,3,0,-358.0,7.05,-2.02,0.31,-1.44,0.91,-3.58,21.9375,-1.5625,505.9375,0.4266357421875,0.6839599609375,0.32568359375,0.0226,-14.6875,20.6875,-24.375,8.5,-2.93,Walking,2
3.79,3.738368084,25,3,3,3,0,-345.0,6.49,-1.54,0.42,-2.02,1.37,-3.02,28.75,-2.25,504.125,0.42315673828125,0.6854248046875,0.329833984375,0.0222,-14.375,20.5625,-24.25,8.51,-2.91,Walking,2
3.8,3.738368084,25,3,3,3,0,-328.0,6.02,-1.46,0.58,-2.5,1.44,-3.43,27.5,-1.875,503.25,0.42132568359375,0.68609619140625,0.33203125,0.0222,-14.375,20.5625,-24.125,8.52,-2.9,Walking,2
3.81,3.752891929,25,3,3,3,0,-315.0,5.86,-1.56,0.7,-2.67,1.32,-3.98,25.0625,-1.0,502.6875,0.41943359375,0.68646240234375,0.33441162109375,0.0222,-14.375,20.5625,-24.0625,8.54,-2.88,Walking,2
3.82,3.752891929,25,3,3,3,0,-308.0,5.74,-1.7,0.76,-2.81,1.15,-4.54,21.6875,-0.25,502.4375,0.4176025390625,0.68658447265625,0.33685302734375,0.0222,-14.375,20.5625,-24.0,8.55,-2.85,Walking,2
3.83,3.783032309,25,3,3,3,0,-302.0,5.7,-1.83,0.8,-2.86,0.99,-4.89,18.4375,0.8125,502.375,0.415771484375,0.68646240234375,0.33941650390625,0.0222,-14.375,20.5625,-23.9375,8.57,-2.82,Walking,2
3.84,3.783032309,25,3,3,3,0,-294.0,5.71,-2.0,0.88,-2.87,0.78,-4.96,15.8125,1.75,502.5,0.41412353515625,0.6861572265625,0.3419189453125,0.0226,-14.0,22.1875,-23.875,8.58,-2.79,Walking,2
3.85,3.797820762,25,3,3,3,0,-298.0,5.8,-2.1,0.83,-2.8,0.65,-4.79,13.125,2.625,502.75,0.41259765625,0.68572998046875,0.34429931640625,0.0226,-14.0,22.1875,-23.8125,8.6,-2.75,Walking,2
3.86,3.797820762,25,3,3,3,0,-302.0,5.92,-2.12,0.78,-2.69,0.59,-4.47,11.3125,2.875,503.0,0.41119384765625,0.68524169921875,0.34649658203125,0.0226,-14.0,22.1875,-23.75,8.61,-2.72,Walking,2
3.87,3.812625734,25,3,3,3,0,-302.0,5.92,-2.12,0.78,-2.69,0.59,-4.47,11.3125,2.875,503.0,0.41119384765625,0.68524169921875,0.34649658203125,0.0226,-14.0,22.1875,-23.75,8.61,-2.72,Walking,2
3.87,3.812625734,25,3,3,3,0,-306.0,6.08,-2.16,0.73,-2.54,0.51,-4.15,9.9375,2.875,503.25,0.40997314453125,0.684814453125,0.3485107421875,0.0226,-14.0,22.1875,-23.6875,8.63,-2.68,Walking,2
3.88,3.827703778,25,3,3,3,0,-321.0,6.4,-2.39,0.57,-2.23,0.26,-3.94,8.125,2.6875,503.5625,0.4088134765625,0.684326171875,0.350341796875,0.0226,-14.0,22.1875,-23.6875,8.64,-2.65,Walking,2
3.89,3.827703778,25,3,3,3,0,-335.0,6.55,-2.65,0.42,-2.09,-0.02,-3.82,6.6875,2.8125,503.9375,0.40777587890625,0.68377685546875,0.35211181640625,0.0215,-14.6875,22.5625,-23.625,8.65,-2.62,Walking,2
3.9,3.842823813,25,3,3,3,0,-351.0,6.72,-2.97,0.26,-1.94,-0.38,-3.77,4.8125,2.625,504.375,0.40673828125,0.68316650390625,0.35382080078125,0.0215,-14.6875,22.5625,-23.5625,8.67,-2.59,Walking,2
3.91,3.842823813,25,3,3,3,0,-371.0,7.02,-3.7,0.05,-1.65,-1.14,-3.67,3.5,2.375,504.9375,0.40582275390625,0.68255615234375,0.35540771484375,0.0215,-14.6875,22.5625,-23.5625,8.68,-2.56,Walking,2
3.92,3.87437374,25,3,3,3,0,-381.0,7.21,-4.0,-0.05,-1.48,-1.47,-3.25,2.5625,2.0,505.4375,0.40496826171875,0.68194580078125,0.35675048828125,0.0215,-14.6875,22.5625,-23.5,8.69,-2.53,Walking,2
3.93,3.87437374,25,3,3,3,0,-391.0,7.35,-4.05,-0.14,-1.34,-1.53,-2.23,3.1875,1.25,505.6875,0.40435791015625,0.681640625,0.3577880859375,0.0215,-14.6875,22.5625,-23.5,8.69,-2.51,Walking,2
3.94,3.888438112,25,3,3,3,0,-390.0,7.35,-3.93,-0.14,-1.34,-1.42,-0.9,7.25,0.125,505.4375,0.40386962890625,0.6817626953125,0.35833740234375,0.0209,-14.375,21.75,-23.5,8.7,-2.5,Walking,2
3.95,3.888438112,25,3,3,3,0,-363.0,7.31,-3.12,0.12,-1.38,-0.59,0.68,11.4375,-1.125,504.625,0.40362548828125,0.68243408203125,0.3583984375,0.0209,-14.375,21.75,-23.4375,8.69,-2.52,Walking,2
3.96,3.902544191,25,3,3,3,0,-357.0,7.31,-2.67,0.18,-1.38,-0.12,1.86,14.5625,-1.375,503.375,0.403564453125,0.68353271484375,0.358154296875,0.0209,-14.375,21.75,-23.4375,8.69,-2.55,Walking,2
3.97,3.902544191,25,3,3,3,0,-360.0,7.32,-2.37,0.14,-1.35,0.2,2.25,15.0625,-0.9375,501.9375,0.40362548828125,0.68463134765625,0.3577880859375,0.0209,-14.375,21.75,-23.375,8.68,-2.58,Walking,2
3.98,3.934306927,25,3,3,3,0,-390.0,7.41,-2.3,-0.15,-1.26,0.3,1.93,12.75,-0.125,500.75,0.40374755859375,0.68560791015625,0.35748291015625,0.0209,-14.375,21.75,-23.375,8.67,-2.6,Walking,2
3.99,3.934306927,25,3,3,3,0,-469.0,7.99,-2.77,-0.96,-0.68,-0.14,1.3,10.0625,0.4375,499.8125,0.40380859375,0.686279296875,0.35736083984375,0.0215,-14.0625,23.0,-23.3125,8.67,-2.62,Walking,2
4.0,3.948303224,25,3,3,3,0,-516.0,8.45,-3.17,-1.43,-0.22,-0.53,0.8,9.3125,0.4375,499.0625,0.40374755859375,0.68682861328125,0.35736083984375,0.0215,-14.0625,23.0,-23.3125,8.67,-2.64,Walking,2
4.01,3.948303224,25,3,3,3,0,-556.0,8.97,-3.63,-1.83,0.3,-0.98,0.73,9.0625,-0.25,498.3125,0.40362548828125,0.6873779296875,0.357421875,0.0215,-14.0625,23.0,-23.3125,8.67,-2.65,Walking,2
4.02,3.964555706,25,3,3,3,0,-581.0,9.37,-3.99,-2.08,0.7,-1.32,1.02,9.6875,-2.0,497.5625,0.40350341796875,0.6881103515625,0.35723876953125,0.0215,-14.0625,23.0,-23.3125,8.66,-2.67,Walking,2
4.03,3.964555706,25,3,3,3,0,-605.0,9.96,-4.56,-2.32,1.3,-1.87,1.39,10.9375,-3.25,496.6875,0.4033203125,0.68896484375,0.35693359375,0.0215,-14.0625,23.0,-23.3125,8.66,-2.69,Walking,2
4.04,3.993877646,25,3,3,3,0,-603.0,10.2,-4.85,-2.29,1.55,-2.13,1.66,11.3125,-4.0,495.75,0.40313720703125,0.68994140625,0.3565673828125,0.0205,-14.5,21.0625,-23.3125,8.65,-2.71,Walking,2
4.05,3.993877646,25,3,3,3,0,-594.0,10.64,-5.04,-2.2,1.99,-2.3,1.85,10.5,-4.0625,494.8125,0.403076171875,0.69085693359375,0.35601806640625,0.0205,-14.5,21.0625,-23.3125,8.64,-2.74,Walking,2
4.06,4.009937217,25,3,3,3,0,-540.0,11.43,-5.12,-1.66,2.8,-2.36,1.78,9.5,-3.8125,493.9375,0.40301513671875,0.6917724609375,0.35546875,0.0205,-14.5,21.0625,-23.3125,8.63,-2.76,Walking,2
4.07,4.009937217,25,3,3,3,0,-519.0,11.67,-5.22,-1.46,3.04,-2.43,1.97,9.5,-3.125,493.0,0.40301513671875,0.69268798828125,0.35491943359375,0.0205,-14.5,21.0625,-23.3125,8.62,-2.78,Walking,2
4.08,4.03953528,25,3,3,3,0,-497.0,11.76,-5.21,-1.23,3.14,-2.39,2.52,10.0,-1.5625,491.8125,0.40325927734375,0.69366455078125,0.354248046875,0.0205,-14.5,21.0625,-23.3125,8.61,-2.82,Walking,2
4.09,4.03953528,25,3,3,3,0,-482.0,11.85,-5.11,-1.1,3.25,-2.25,2.99,12.6875,-0.0625,490.375,0.4036865234375,0.69482421875,0.353515625,0.0198,-14.0625,20.6875,-23.25,8.6,-2.85,Walking,2
4.1,4.052797894,25,3,3,3,0,-478.0,11.86,-4.87,-1.06,3.26,-1.97,3.11,16.25,1.6875,488.625,0.404052734375,0.696044921875,0.35296630859375,0.0198,-14.0625,20.6875,-23.1875,8.6,-2.89,Walking,2
4.11,4.052797894,25,3,3,3,0,-479.0,11.91,-4.68,-1.08,3.32,-1.74,2.93,20.5625,3.0,486.5625,0.40435791015625,0.6973876953125,0.3526611328125,0.0198,-14.0625,20.6875,-23.125,8.59,-2.93,Walking,2
4.12,4.068325482,25,3,3,3,0,-476.0,12.09,-4.42,-1.07,3.5,-1.45,2.46,24.5,3.625,484.3125,0.40447998046875,0.69873046875,0.35272216796875,0.0198,-14.0625,20.6875,-23.0,8.58,-2.97,Walking,2
4.13,4.068325482,25,3,3,3,0,-466.0,12.17,-4.22,-1.0,3.58,-1.2,2.0,26.9375,3.1875,482.125,0.40435791015625,0.70013427734375,0.35302734375,0.0198,-14.0625,20.6875,-22.875,8.58,-3.01,Walking,2
4.14,4.082958864,25,3,3,3,0,-422.0,11.94,-3.87,-0.57,3.36,-0.82,1.82,27.625,2.3125,479.875,0.40411376953125,0.7015380859375,0.3533935546875,0.0212,-13.6875,20.25,-22.75,8.57,-3.05,Walking,2
4.15,4.082958864,25,3,3,3,0,-422.0,11.94,-3.87,-0.57,3.36,-0.82,1.82,27.625,2.3125,479.875,0.40411376953125,0.7015380859375,0.3533935546875,0.0212,-13.6875,20.25,-22.75,8.57,-3.05,Walking,2
4.15,4.112942222,25,3,3,3,0,-381.0,11.7,-3.56,-0.18,3.13,-0.48,1.84,26.8125,0.9375,477.75,0.40380859375,0.7030029296875,0.3536376953125,0.0212,-13.6875,20.25,-22.6875,8.57,-3.08,Walking,2
4.16,4.112942222,25,3,3,3,0,-339.0,11.42,-3.13,0.22,2.85,-0.01,1.95,23.625,-0.1875,475.8125,0.403564453125,0.704345703125,0.35369873046875,0.0212,-13.6875,20.25,-22.5625,8.56,-3.11,Walking,2
4.17,4.116333579,25,3,3,3,0,-302.0,11.23,-2.68,0.58,2.67,0.46,1.98,19.6875,-1.125,474.125,0.4034423828125,0.70556640625,0.35357666015625,0.0212,-13.6875,20.25,-22.5625,8.55,-3.14,Walking,2
4.18,4.116333579,25,3,3,3,0,-262.0,10.64,-2.03,0.97,2.09,1.14,2.03,15.125,-1.5,472.75,0.40338134765625,0.7066650390625,0.353271484375,0.0212,-13.6875,20.25,-22.5,8.54,-3.17,Walking,2
4.19,4.144298667,25,3,3,3,0,-257.0,10.15,-1.88,1.02,1.61,1.31,2.12,9.625,-1.8125,471.75,0.40350341796875,0.70751953125,0.3526611328125,0.022,-13.25,20.5625,-22.5,8.53,-3.2,Walking,2
4.2,4.144298667,25,3,3,3,0,-243.0,9.59,-1.83,1.16,1.06,1.39,2.19,4.5,-2.0625,471.0,0.40374755859375,0.70819091796875,0.3519287109375,0.022,-13.25,20.5625,-22.5,8.53,-3.22,Walking,2
4.21,4.15834717,25,3,3,3,0,-223.0,9.0,-1.83,1.37,0.47,1.4,2.17,-0.75,-2.0625,470.625,0.40423583984375,0.70867919921875,0.3509521484375,0.022,-13.25,20.5625,-22.5,8.52,-3.24,Walking,2
4.22,4.15834717,25,3,3,3,0,-185.0,8.1,-1.78,1.76,-0.41,1.47,2.16,-6.8125,-1.625,470.625,0.40484619140625,0.7088623046875,0.34979248046875,0.022,-13.25,20.5625,-22.5625,8.51,-3.26,Walking,2
4.23,4.189593833,25,3,3,3,0,-165.0,7.92,-1.65,1.96,-0.58,1.62,2.25,-13.25,-0.875,470.9375,0.40576171875,0.70880126953125,0.348388671875,0.022,-13.25,20.5625,-22.625,8.5,-3.27,Walking,2
4.24,4.189593833,25,3,3,3,0,-138.0,7.88,-1.48,2.24,-0.61,1.8,2.5,-19.6875,0.125,471.625,0.40704345703125,0.70849609375,0.34674072265625,0.0205,-12.5625,18.0,-22.6875,8.49,-3.28,Walking,2
4.25,4.217822471,25,3,3,3,0,-109.0,8.27,-1.08,2.55,-0.21,2.21,2.79,-25.9375,1.8125,472.5625,0.40863037109375,0.70794677734375,0.34478759765625,0.0205,-12.5625,18.0,-22.75,8.48,-3.29,Walking,2
4.26,4.217822471,25,3,3,3,0,-117.0,8.59,-1.02,2.48,0.11,2.27,2.9,-31.4375,4.5625,473.75,0.41058349609375,0.70703125,0.34271240234375,0.0205,-12.5625,18.0,-22.8125,8.47,-3.3,Walking,2
4.27,4.220908042,25,3,3,3,0,-146.0,8.84,-1.14,2.2,0.37,2.16,2.58,-35.5,7.6875,475.125,0.41278076171875,0.705810546875,0.34075927734375,0.0205,-12.5625,18.0,-22.875,8.47,-3.3,Walking,2
4.28,4.220908042,25,3,3,3,0,-184.0,8.98,-1.38,1.82,0.51,1.91,2.0,-37.75,10.8125,476.75,0.41510009765625,0.70428466796875,0.339111328125,0.0205,-12.5625,18.0,-22.9375,8.47,-3.3,Walking,2
4.29,4.232823854,25,3,3,3,0,-283.0,8.92,-2.32,0.83,0.44,0.96,1.32,-38.1875,13.625,478.375,0.4173583984375,0.70245361328125,0.3377685546875,0.0197,-12.0,16.0625,-22.9375,8.47,-3.28,Walking,2
4.3,4.232823854,25,3,3,3,0,-331.0,8.85,-2.8,0.35,0.36,0.46,0.62,-38.1875,15.875,480.1875,0.41961669921875,0.700439453125,0.3367919921875,0.0197,-12.0,16.0625,-22.875,8.48,-3.26,Walking,2
4.31,4.262679079,25,3,3,3,0,-363.0,8.75,-3.17,0.02,0.25,0.06,0.11,-38.125,17.0,482.0,0.42181396484375,0.6982421875,0.3360595703125,0.0197,-12.0,16.0625,-22.875,8.49,-3.24,Walking,2
4.32,4.262679079,25,3,3,3,0,-386.0,8.63,-3.35,-0.2,0.13,-0.13,0.15,-36.25,16.625,483.75,0.4239501953125,0.6961669921875,0.3353271484375,0.0197,-12.0,16.0625,-22.875,8.5,-3.22,Walking,2
4.33,4.278069134,25,3,3,3,0,-362.0,8.26,-2.92,0.03,-0.24,0.28,0.94,-32.625,15.1875,485.0625,0.42608642578125,0.6944580078125,0.33441162109375,0.0197,-12.0,16.0625,-22.8125,8.51,-3.21,Walking,2
4.34,4.278069134,25,3,3,3,0,-322.0,8.03,-2.49,0.42,-0.48,0.71,2.11,-30.4375,13.375,486.0625,0.4283447265625,0.69305419921875,0.3330078125,0.0208,-12.375,14.5,-22.8125,8.51,-3.21,Walking,2
4.35,4.309381349,25,3,3,3,0,-283.0,7.8,-2.09,0.82,-0.7,1.12,2.82,-30.25,12.1875,486.875,0.4306640625,0.69183349609375,0.33135986328125,0.0208,-12.375,14.5,-22.8125,8.51,-3.21,Walking,2
4.36,4.309381349,25,3,3,3,0,-249.0,7.55,-1.91,1.16,-0.95,1.3,2.72,-31.875,11.9375,487.8125,0.43304443359375,0.6905517578125,0.32958984375,0.0208,-12.375,14.5,-22.8125,8.51,-3.22,Walking,2
4.37,4.339008872,25,3,3,3,0,-214.0,7.06,-2.0,1.51,-1.44,1.21,1.95,-34.625,12.25,489.125,0.435302734375,0.68902587890625,0.32806396484375,0.0208,-12.375,14.5,-22.8125,8.51,-3.22,Walking,2
4.38,4.339008872,25,3,3,3,0,-211.0,6.74,-2.17,1.53,-1.77,1.03,1.0,-36.0625,13.0625,490.6875,0.4373779296875,0.68719482421875,0.326904296875,0.0208,-12.375,14.5,-22.8125,8.51,-3.2,Walking,2
4.39,4.342154461,25,3,3,3,0,-214.0,6.42,-2.39,1.5,-2.09,0.79,0.19,-35.5625,14.125,492.4375,0.43927001953125,0.6851806640625,0.3260498046875,0.0211,-11.875,13.0,-22.8125,8.52,-3.18,Walking,2
4.4,4.342154461,25,3,3,3,0,-227.0,5.96,-2.31,1.37,-2.56,0.84,0.19,-35.5625,14.125,494.125,0.44122314453125,0.68316650390625,0.3251953125,0.0211,-11.875,13.0,-22.8125,8.53,-3.16,Walking,2
4.41,4.352620444,25,3,3,3,0,-243.0,5.78,-2.26,1.21,-2.75,0.88,0.04,-32.6875,14.0625,495.75,0.4429931640625,0.68121337890625,0.3245849609375,0.0211,-11.875,13.0,-22.75,8.54,-3.14,Walking,2
4.42,4.352620444,25,3,3,3,0,-243.0,5.78,-2.26,1.21,-2.75,0.88,0.04,-32.6875,14.0625,495.75,0.4429931640625,0.68121337890625,0.3245849609375,0.0211,-11.875,13.0,-22.75,8.54,-3.14,Walking,2
4.42,4.367527549,25,3,3,3,0,-243.0,5.65,-2.11,1.21,-2.89,1.0,0.31,-31.6875,13.625,497.1875,0.44476318359375,0.67938232421875,0.32379150390625,0.0211,-11.875,13.0,-22.75,8.55,-3.12,Walking,2
4.43,4.367527549,25,3,3,3,0,-249.0,5.5,-2.04,1.14,-3.05,1.07,0.42,-29.5625,12.5625,498.5,0.44647216796875,0.677734375,0.32305908203125,0.0211,-11.875,13.0,-22.75,8.55,-3.11,Walking,2
4.44,4.398457847,25,3,3,3,0,-272.0,5.36,-1.95,0.91,-3.19,1.14,0.33,-24.3125,9.75,499.625,0.44781494140625,0.6763916015625,0.3223876953125,0.0208,-13.0,13.0,-22.75,8.56,-3.09,Walking,2
4.45,4.398457847,25,3,3,3,0,-282.0,5.33,-1.99,0.81,-3.22,1.09,0.33,-24.3125,9.75,500.6875,0.44915771484375,0.67498779296875,0.32171630859375,0.0208,-13.0,13.0,-22.6875,8.56,-3.08,Walking,2
4.46,4.412670127,25,3,3,3,0,-290.0,5.32,-2.14,0.73,-3.24,0.93,-0.11,-22.9375,8.3125,501.875,0.4503173828125,0.67364501953125,0.32122802734375,0.0208,-13.0,13.0,-22.6875,8.57,-3.07,Walking,2
4.47,4.412670127,25,3,3,3,0,-303.0,5.42,-2.34,0.6,-3.15,0.7,-0.7,-21.375,7.3125,503.125,0.45111083984375,0.67236328125,0.32098388671875,0.0208,-13.0,13.0,-22.6875,8.58,-3.05,Walking,2
4.48,4.42742265,25,3,3,3,0,-317.0,5.8,-2.83,0.46,-2.78,0.18,-1.15,-20.0625,6.1875,504.4375,0.4517822265625,0.6710205078125,0.3209228515625,0.0208,-13.0,13.0,-22.6875,8.58,-3.02,Walking,2
4.49,4.42742265,25,3,3,3,0,-314.0,6.05,-3.08,0.5,-2.53,-0.08,-0.99,-18.0625,3.5625,505.6875,0.45220947265625,0.669921875,0.3206787109375,0.0219,-12.5625,9.875,-22.75,8.59,-3.0,Walking,2
4.5,4.442709678,25,3,3,3,0,-310.0,6.34,-3.36,0.54,-2.25,-0.38,-0.99,-18.0625,3.5625,506.875,0.45263671875,0.6688232421875,0.32049560546875,0.0219,-12.5625,9.875,-22.75,8.59,-2.98,Walking,2
4.51,4.442709678,25,3,3,3,0,-291.0,6.65,-3.62,0.73,-1.94,-0.65,-0.49,-17.1875,2.3125,507.9375,0.453125,0.66790771484375,0.32012939453125,0.0219,-12.5625,9.875,-22.8125,8.6,-2.97,Walking,2
4.52,4.473731162,25,3,3,3,0,-269.0,7.29,-3.96,0.96,-1.3,-0.99,0.88,-15.875,0.625,508.6875,0.453857421875,0.6673583984375,0.3192138671875,0.0219,-12.5625,9.875,-22.875,8.6,-2.96,Walking,2
4.53,4.473731162,25,3,3,3,0,-269.0,7.56,-4.1,0.96,-1.03,-1.13,1.47,-13.9375,-0.1875,509.125,0.45465087890625,0.6669921875,0.318115234375,0.0219,-12.5625,9.875,-22.875,8.59,-2.97,Walking,2
4.54,4.488094077,25,3,3,3,0,-269.0,7.73,-4.28,0.98,-0.85,-1.3,2.0,-12.6875,-0.875,509.375,0.45550537109375,0.66680908203125,0.31683349609375,0.0222,-12.5625,8.0,-22.9375,8.58,-2.98,Walking,2
4.55,4.488094077,25,3,3,3,0,-274.0,8.1,-4.75,0.94,-0.47,-1.75,2.32,-11.625,-1.6875,509.5,0.45635986328125,0.66680908203125,0.31549072265625,0.0222,-12.5625,8.0,-23.0,8.57,-2.99,Walking,2
4.56,4.517500083,25,3,3,3,0,-273.0,8.35,-4.96,0.95,-0.2,-1.95,2.59,-11.5625,-2.6875,509.625,0.457275390625,0.6668701171875,0.31396484375,0.0222,-12.5625,8.0,-23.0625,8.56,-3.01,Walking,2
4.57,4.517500083,25,3,3,3,0,-279.0,8.69,-5.05,0.91,0.13,-2.01,3.18,-11.6875,-4.3125,509.625,0.45819091796875,0.66705322265625,0.3121337890625,0.0222,-12.5625,8.0,-23.125,8.55,-3.03,Walking,2
4.58,4.532751507,25,3,3,3,0,-281.0,9.11,-4.96,0.9,0.57,-1.89,4.03,-10.4375,-6.0,509.375,0.459228515625,0.66754150390625,0.30999755859375,0.0222,-12.5625,8.0,-23.25,8.53,-3.06,Walking,2
4.59,4.532751507,25,3,3,3,0,-274.0,9.94,-4.43,0.99,1.43,-1.32,4.75,-9.5,-7.4375,508.875,0.4603271484375,0.668212890625,0.30755615234375,0.0209,-12.25,8.0,-23.3125,8.51,-3.1,Walking,2
4.6,4.54790849,25,3,3,3,0,-271.0,10.25,-4.31,1.03,1.75,-1.17,4.71,-11.25,-7.3125,508.5625,0.46148681640625,0.6688232421875,0.3050537109375,0.0209,-12.25,8.0,-23.4375,8.49,-3.14,Walking,2
4.61,4.54790849,25,3,3,3,0,-278.0,10.59,-4.58,0.98,2.11,-1.41,3.66,-16.0,-5.9375,508.6875,0.46258544921875,0.66900634765625,0.30279541015625,0.0209,-12.25,8.0,-23.5625,8.48,-3.16,Walking,2
4.62,4.578468833,25,3,3,3,0,-301.0,10.92,-5.24,0.76,2.44,-2.07,1.83,-22.0,-3.9375,509.625,0.46343994140625,0.66851806640625,0.30108642578125,0.0209,-12.25,8.0,-23.625,8.47,-3.17,Walking,2
4.63,4.578468833,25,3,3,3,0,-439.0,11.71,-7.15,-0.58,3.24,-4.0,0.13,-27.8125,-1.8125,511.3125,0.464111328125,0.6673583984375,0.2998046875,0.0209,-12.25,8.0,-23.75,8.46,-3.15,Walking,2
4.64,4.593005821,25,3,3,3,1,-557.0,12.53,-7.93,-1.75,4.06,-4.8,-0.06,-29.375,-1.75,513.0625,0.46478271484375,0.66619873046875,0.298583984375,0.0209,-11.875,5.25,-23.875,8.46,-3.13,Walking,2
4.65,4.593005821,25,3,3,3,1,-662.0,13.15,-8.19,-2.78,4.69,-5.05,2.47,-23.0625,-5.5,513.9375,0.46575927734375,0.665771484375,0.2965087890625,0.0209,-11.875,5.25,-24.0,8.45,-3.14,Walking,2
4.66,4.608718955,25,3,3,3,1,-728.0,13.22,-7.81,-3.41,4.8,-4.61,6.94,-7.5625,-13.0,512.875,0.46710205078125,0.6671142578125,0.2930908203125,0.0209,-11.875,5.25,-24.125,8.42,-3.2,Walking,2
4.67,4.608718955,25,3,3,3,1,-664.0,12.28,-5.21,-2.75,3.91,-1.92,10.07,4.5625,-18.6875,510.4375,0.46868896484375,0.669677734375,0.288818359375,0.0209,-11.875,5.25,-24.3125,8.37,-3.29,Walking,2
4.68,4.62369389,25,3,3,3,1,-664.0,12.28,-5.21,-2.75,3.91,-1.92,10.07,4.5625,-18.6875,510.4375,0.46868896484375,0.669677734375,0.288818359375,0.0209,-11.875,5.25,-24.3125,8.37,-3.29,Walking,2
4.68,4.62369389,25,3,3,3,1,-612.0,11.81,-3.81,-2.2,3.48,-0.42,9.26,0.4375,-19.375,508.5,0.47003173828125,0.67193603515625,0.2845458984375,0.0209,-11.875,5.25,-24.5,8.32,-3.38,Walking,2
4.69,4.638582074,25,3,3,3,1,-600.0,11.81,-2.89,-2.04,3.51,0.52,5.23,-13.4375,-16.875,508.3125,0.4708251953125,0.6728515625,0.2813720703125,0.0212,-11.0625,1.875,-24.6875,8.29,-3.42,Walking,2
4.7,4.638582074,25,3,3,3,1,-603.0,12.08,-2.74,-2.04,3.8,0.67,1.38,-25.6875,-13.75,509.8125,0.47100830078125,0.67254638671875,0.2791748046875,0.0212,-11.0625,1.875,-24.875,8.28,-3.41,Walking,2
4.71,4.667781903,25,3,3,3,1,-585.0,11.72,-4.09,-1.84,3.45,-0.69,-0.14,-24.25,-11.4375,511.5625,0.470947265625,0.67193603515625,0.27777099609375,0.0212,-11.0625,1.875,-25.0625,8.27,-3.39,Walking,2
4.72,4.667781903,25,3,3,3,1,-579.0,11.18,-4.15,-1.75,2.92,-0.76,0.29,-14.375,-9.875,512.625,0.47076416015625,0.6717529296875,0.276611328125,0.0212,-11.0625,1.875,-25.25,8.26,-3.39,Walking,2
4.73,4.683099937,25,3,3,3,1,-567.0,10.54,-3.5,-1.61,2.28,-0.1,1.26,-5.625,-8.3125,512.8125,0.47076416015625,0.67205810546875,0.27557373046875,0.0212,-11.0625,1.875,-25.3125,8.25,-3.39,Walking,2
4.74,4.683099937,25,3,3,3,1,-534.0,9.16,-2.14,-1.27,0.92,1.26,1.58,-2.25,-6.8125,512.6875,0.47088623046875,0.6724853515625,0.27459716796875,0.0223,-11.875,-2.25,-25.375,8.24,-3.41,Walking,2
4.75,4.697394655,25,3,3,3,1,-521.0,8.69,-1.67,-1.14,0.46,1.74,1.17,-1.5,-5.3125,512.5625,0.470947265625,0.67279052734375,0.27386474609375,0.0223,-11.875,-2.25,-25.4375,8.23,-3.42,Walking,2
4.76,4.697394655,25,3,3,3,1,-504.0,8.31,-1.37,-0.96,0.08,2.04,0.42,0.1875,-4.3125,512.5625,0.4708251953125,0.67303466796875,0.27349853515625,0.0223,-11.875,-2.25,-25.5,8.23,-3.42,Walking,2
4.77,4.727802411,25,3,3,3,1,-481.0,7.91,-0.96,-0.72,-0.31,2.45,-0.14,2.625,-4.0,512.5,0.470458984375,0.67333984375,0.27349853515625,0.0223,-11.875,-2.25,-25.5,8.23,-3.42,Walking,2
4.78,4.727802411,25,3,3,3,1,-431.0,7.21,-0.43,-0.22,-1.01,2.99,-0.5,7.9375,-3.9375,512.25,0.46990966796875,0.67376708984375,0.2738037109375,0.0223,-11.875,-2.25,-25.5,8.22,-3.42,Walking,2
4.79,4.743537071,25,3,3,3,1,-424.0,6.96,-0.17,-0.16,-1.26,3.25,-0.88,15.1875,-4.4375,511.6875,0.46905517578125,0.6744384765625,0.27459716796875,0.0214,-9.875,-3.875,-25.5,8.22,-3.43,Walking,2
4.8,4.743537071,25,3,3,3,1,-428.0,6.86,0.1,-0.21,-1.36,3.54,-1.24,22.125,-5.0625,510.8125,0.4678955078125,0.67547607421875,0.27569580078125,0.0214,-9.875,-3.875,-25.4375,8.23,-3.43,Walking,2
4.81,4.758172406,25,3,3,3,1,-439.0,6.85,0.3,-0.32,-1.38,3.74,-1.54,27.375,-6.0,509.6875,0.4664306640625,0.6766357421875,0.27716064453125,0.0214,-9.875,-3.875,-25.4375,8.23,-3.44,Walking,2
4.82,4.758172406,25,3,3,3,1,-450.0,7.23,0.08,-0.44,-0.99,3.52,-1.95,29.75,-7.1875,508.5625,0.46478271484375,0.67791748046875,0.27874755859375,0.0214,-9.875,-3.875,-25.375,8.23,-3.44,Walking,2
4.83,4.773346519,25,3,3,3,1,-450.0,7.55,-0.33,-0.45,-0.67,3.1,-2.62,27.0,-8.25,507.8125,0.462890625,0.6790771484375,0.28045654296875,0.0214,-9.875,-3.875,-25.3125,8.23,-3.43,Walking,2
4.84,4.773346519,25,3,3,3,1,-432.0,7.84,-0.94,-0.26,-0.39,2.47,-3.55,20.6875,-9.625,507.75,0.46087646484375,0.6798095703125,0.2822265625,0.0217,-10.875,-3.875,-25.3125,8.24,-3.42,Walking,2
4.85,4.80365906,25,3,3,3,1,-400.0,8.15,-1.77,0.06,-0.1,1.61,-4.64,12.4375,-9.75,508.4375,0.458740234375,0.67999267578125,0.28399658203125,0.0217,-10.875,-3.875,-25.375,8.25,-3.38,Walking,2
4.86,4.80365906,25,3,3,3,1,-353.0,8.82,-3.73,0.54,0.55,-0.38,-5.72,5.5,-9.0,509.8125,0.45648193359375,0.6796875,0.28594970703125,0.0217,-10.875,-3.875,-25.4375,8.26,-3.34,Walking,2
4.87,4.817509442,25,3,3,3,1,-343.0,9.12,-4.55,0.65,0.83,-1.27,-6.12,3.4375,-8.25,511.375,0.4542236328125,0.67919921875,0.28802490234375,0.0217,-10.875,-3.875,-25.5,8.28,-3.28,Walking,2
4.88,4.817509442,25,3,3,3,1,-348.0,9.3,-5.13,0.61,1.0,-1.88,-4.96,9.0625,-8.5625,512.3125,0.4521484375,0.67913818359375,0.28985595703125,0.0217,-10.875,-3.875,-25.5625,8.29,-3.24,Walking,2
4.89,4.834247683,25,3,3,3,1,-330.0,8.65,-4.52,0.79,0.35,-1.28,-2.33,23.25,-9.8125,511.75,0.4503173828125,0.68017578125,0.29119873046875,0.0214,-10.75,-3.875,-25.5625,8.29,-3.24,Walking,2
4.9,4.834247683,25,3,3,3,1,-326.0,8.15,-3.4,0.82,-0.13,-0.13,0.07,36.5,-10.875,509.8125,0.44873046875,0.68218994140625,0.29217529296875,0.0214,-10.75,-3.875,-25.5,8.29,-3.27,Walking,2
4.91,4.86647986,25,3,3,3,1,-324.0,7.62,-2.29,0.83,-0.65,1.01,0.66,38.875,-10.375,507.5,0.44732666015625,0.68438720703125,0.29302978515625,0.0214,-10.75,-3.875,-25.5,8.28,-3.3,Walking,2
4.92,4.86647986,25,3,3,3,1,-326.0,7.18,-1.5,0.81,-1.09,1.81,-0.47,31.8125,-9.1875,505.9375,0.44580078125,0.68603515625,0.29400634765625,0.0214,-10.75,-3.875,-25.4375,8.27,-3.32,Walking,2
4.93,4.89538257,25,3,3,3,1,-311.0,6.35,-1.15,0.95,-1.92,2.16,-2.23,23.4375,-7.6875,505.25,0.44415283203125,0.68701171875,0.29547119140625,0.0214,-10.75,-3.875,-25.4375,8.27,-3.31,Walking,2
4.94,4.89538257,25,3,3,3,1,-311.0,6.35,-1.15,0.95,-1.92,2.16,-2.23,23.4375,-7.6875,505.25,0.44415283203125,0.68701171875,0.29547119140625,0.0214,-10.75,-3.875,-25.4375,8.27,-3.31,Walking,2
4.94,4.901642458,25,3,3,3,1,-302.0,6.06,-1.49,1.04,-2.22,1.79,-3.78,17.625,-6.125,505.3125,0.44232177734375,0.6873779296875,0.29730224609375,0.0211,-10.75,-3.0625,-25.4375,8.28,-3.29,Walking,2
4.95,4.901642458,25,3,3,3,1,-302.0,5.82,-1.89,1.04,-2.47,1.37,-4.73,14.125,-5.0,505.75,0.44036865234375,0.6873779296875,0.29937744140625,0.0211,-10.75,-3.0625,-25.4375,8.3,-3.26,Walking,2
4.96,4.908866579,25,3,3,3,1,-300.0,5.62,-2.2,1.07,-2.69,1.01,-4.94,11.6875,-4.5625,506.375,0.4384765625,0.687255859375,0.301513671875,0.0211,-10.75,-3.0625,-25.4375,8.31,-3.22,Walking,2
4.97,4.908866579,25,3,3,3,1,-294.0,5.49,-2.42,1.13,-2.83,0.76,-4.55,9.125,-4.5,507.0625,0.43670654296875,0.68707275390625,0.30340576171875,0.0211,-10.75,-3.0625,-25.4375,8.32,-3.19,Walking,2
4.98,4.9236414,25,3,3,3,1,-290.0,5.52,-2.43,1.17,-2.8,0.72,-3.74,6.0625,-4.4375,507.6875,0.43524169921875,0.6868896484375,0.3048095703125,0.0211,-10.75,-3.0625,-25.4375,8.33,-3.16,Walking,2
4.99,4.9236414,25,3,3,3,1,-268.0,5.6,-2.3,1.39,-2.74,0.82,-3.2,4.1875,-3.75,508.3125,0.43408203125,0.6866455078125,0.3060302734375,0.0205,-10.75,-1.5625,-25.5,8.34,-3.13,Walking,2
5.0,4.955427167,25,3,3,3,1,-269.0,5.74,-2.26,1.38,-2.61,0.84,-2.85,0.9375,-2.875,509.0625,0.43310546875,0.68634033203125,0.3070068359375,0.0205,-10.75,-1.5625,-25.5,8.35,-3.11,Walking,2
5.01,4.955427167,25,3,3,3,1,-271.0,6.02,-2.55,1.37,-2.33,0.52,-2.48,-1.6875,-2.125,509.8125,0.43231201171875,0.6859130859375,0.30780029296875,0.0205,-10.75,-1.5625,-25.5,8.36,-3.08,Walking,2
5.02,4.968989585,25,3,3,3,1,-284.0,6.02,-2.7,1.25,-2.34,0.36,-2.16,-3.1875,-1.8125,510.5625,0.43170166015625,0.68548583984375,0.30841064453125,0.0205,-10.75,-1.5625,-25.5625,8.36,-3.06,Walking,2
5.03,4.968989585,25,3,3,3,1,-299.0,6.04,-2.86,1.1,-2.33,0.17,-1.85,-4.375,-1.4375,511.375,0.43121337890625,0.68505859375,0.30889892578125,0.0205,-10.75,-1.5625,-25.5625,8.37,-3.04,Walking,2
5.04,4.998869305,25,3,3,3,0,-304.0,6.02,-2.95,1.05,-2.35,0.06,-1.53,-5.25,-1.25,512.0625,0.430908203125,0.6845703125,0.3092041015625,0.0219,-10.1875,-2.6875,-25.625,8.37,-3.02,Walking,2
5.05,4.998869305,25,3,3,3,0,-339.0,6.19,-3.06,0.7,-2.18,-0.05,-1.13,-6.125,-1.0,512.75,0.4306640625,0.68414306640625,0.309326171875,0.0219,-10.1875,-2.6875,-25.625,8.38,-3.01,Walking,2
5.06,5.015345258,25,3,3,3,0,-355.0,6.42,-3.14,0.56,-1.95,-0.14,-0.65,-7.25,-0.9375,513.375,0.4306640625,0.68377685546875,0.30926513671875,0.0219,-10.1875,-2.6875,-25.6875,8.38,-3.0,Walking,2
5.07,5.015345258,25,3,3,3,0,-364.0,6.62,-3.17,0.46,-1.75,-0.18,0.09,-6.75,-0.75,513.8125,0.4307861328125,0.68353271484375,0.3089599609375,0.0219,-10.1875,-2.6875,-25.6875,8.38,-2.99,Walking,2
5.08,5.030793663,25,3,3,3,0,-400.0,7.03,-3.08,0.11,-1.34,-0.08,1.01,-3.875,-0.4375,513.8125,0.43115234375,0.68353271484375,0.30841064453125,0.0219,-10.1875,-2.6875,-25.6875,8.37,-3.0,Walking,2
5.09,5.030793663,25,3,3,3,0,-432.0,7.26,-2.96,-0.2,-1.1,0.05,2.07,0.625,-0.125,513.25,0.43170166015625,0.68389892578125,0.30767822265625,0.0201,-10.75,-3.0625,-25.6875,8.37,-3.02,Walking,2
5.1,5.043639935,25,3,3,3,0,-464.0,7.48,-2.89,-0.52,-0.87,0.15,2.96,4.875,-0.0625,512.25,0.432373046875,0.6845703125,0.3067626953125,0.0201,-10.75,-3.0625,-25.6875,8.36,-3.05,Walking,2
5.11,5.043639935,25,3,3,3,0,-493.0,7.59,-2.91,-0.82,-0.75,0.17,3.28,9.375,-0.1875,510.875,0.43304443359375,0.685546875,0.305908203125,0.0201,-10.75,-3.0625,-25.6875,8.35,-3.08,Walking,2
5.12,5.073743044,25,3,3,3,0,-549.0,7.73,-3.1,-1.38,-0.6,0.01,2.99,12.1875,-0.1875,509.4375,0.43353271484375,0.68658447265625,0.30523681640625,0.0201,-10.75,-3.0625,-25.625,8.34,-3.12,Walking,2
5.13,5.073743044,25,3,3,3,0,-573.0,7.9,-3.22,-1.64,-0.42,-0.06,2.29,13.125,-0.1875,508.0625,0.43377685546875,0.68756103515625,0.30487060546875,0.0201,-10.75,-3.0625,-25.5625,8.33,-3.15,Walking,2
5.14,5.088479454,25,3,3,3,0,-607.0,8.11,-3.47,-1.98,-0.21,-0.29,1.39,13.375,-0.5625,506.9375,0.43377685546875,0.6883544921875,0.3048095703125,0.0212,-10.5,-5.75,-25.5625,8.32,-3.17,Walking,2
5.15,5.088479454,25,3,3,3,0,-631.0,8.33,-3.85,-2.22,0.0,-0.66,0.62,14.625,-1.4375,505.875,0.4334716796875,0.68914794921875,0.3050537109375,0.0212,-10.5,-5.75,-25.5,8.32,-3.19,Walking,2
5.16,5.119371096,25,3,3,3,0,-655.0,8.69,-4.7,-2.47,0.37,-1.5,0.1,13.5,-2.1875,505.125,0.4329833984375,0.68988037109375,0.305419921875,0.0212,-10.5,-5.75,-25.5,8.32,-3.2,Walking,2
5.17,5.119371096,25,3,3,3,0,-651.0,9.05,-5.12,-2.44,0.73,-1.91,-0.13,11.4375,-2.875,504.5,0.4324951171875,0.6904296875,0.3057861328125,0.0212,-10.5,-5.75,-25.4375,8.32,-3.21,Walking,2
5.18,5.13319267,25,3,3,3,0,-641.0,9.65,-5.49,-2.33,1.33,-2.27,0.0,9.875,-3.625,504.0,0.4320068359375,0.69097900390625,0.3060302734375,0.0212,-10.5,-5.75,-25.4375,8.31,-3.21,Walking,2
5.19,5.13319267,24,3,3,3,0,-628.0,10.59,-5.75,-2.2,2.28,-2.51,0.97,8.3125,-4.4375,503.375,0.4317626953125,0.69171142578125,0.30572509765625,0.0205,-10.5,-5.6875,-25.5,8.31,-3.23,Walking,2
5.2,5.147985435,24,3,3,3,0,-628.0,10.59,-5.75,-2.2,2.28,-2.51,0.97,8.3125,-4.4375,503.375,0.4317626953125,0.69171142578125,0.30572509765625,0.0205,-10.5,-5.6875,-25.5,8.31,-3.23,Walking,2
5.2,5.147985435,24,3,3,3,0,-613.0,12.12,-5.87,-2.05,3.82,-2.6,2.59,9.625,-4.9375,502.3125,0.431884765625,0.6927490234375,0.304931640625,0.0205,-10.5,-5.6875,-25.5,8.29,-3.26,Walking,2
5.21,5.163461387,24,3,3,3,0,-604.0,12.67,-5.55,-1.96,4.39,-2.24,3.66,13.9375,-4.75,500.6875,0.43218994140625,0.69415283203125,0.3038330078125,0.0205,-10.5,-5.6875,-25.5,8.28,-3.3,Walking,2
5.22,5.163461387,24,3,3,3,0,-590.0,12.9,-5.2,-1.83,4.64,-1.85,3.51,18.1875,-3.5,498.8125,0.43243408203125,0.69561767578125,0.30303955078125,0.0205,-10.5,-5.6875,-25.4375,8.26,-3.35,Walking,2
5.23,5.179712567,24,3,3,3,0,-550.0,13.05,-4.73,-1.43,4.8,-1.34,2.35,20.5,-1.6875,497.0,0.432373046875,0.69696044921875,0.3028564453125,0.0205,-10.5,-5.6875,-25.375,8.25,-3.38,Walking,2
5.24,5.179712567,24,3,3,3,0,-546.0,13.15,-4.74,-1.41,4.9,-1.33,1.03,20.25,-0.375,495.5,0.43212890625,0.697998046875,0.30316162109375,0.0222,-9.75,-6.875,-25.3125,8.25,-3.41,Walking,2
5.25,5.209867108,24,3,3,3,0,-525.0,12.92,-4.87,-1.2,4.67,-1.44,0.62,21.625,-0.0625,494.0,0.43170166015625,0.69903564453125,0.30377197265625,0.0222,-9.75,-6.875,-25.25,8.24,-3.43,Walking,2
5.26,5.209867108,24,3,3,3,0,-468.0,12.29,-4.88,-0.65,4.04,-1.43,0.96,25.8125,-0.4375,492.1875,0.4312744140625,0.70025634765625,0.30438232421875,0.0222,-9.75,-6.875,-25.125,8.24,-3.45,Walking,2
5.27,5.223179527,24,3,3,3,0,-341.0,10.96,-3.78,0.59,2.72,-0.29,1.35,27.25,-0.625,490.125,0.43084716796875,0.70166015625,0.3048095703125,0.0222,-9.75,-6.875,-25.0625,8.24,-3.49,Walking,2
5.28,5.223179527,24,3,3,3,0,-285.0,10.29,-3.11,1.13,2.05,0.4,1.31,24.6875,-0.0625,488.25,0.4305419921875,0.702880859375,0.30523681640625,0.0222,-9.75,-6.875,-24.9375,8.23,-3.51,Walking,2
5.29,5.238792605,24,3,3,3,0,-249.0,9.77,-2.49,1.48,1.54,1.04,0.72,18.125,1.5,486.9375,0.43035888671875,0.7037353515625,0.30572509765625,0.0212,-10.1875,-5.6875,-24.875,8.23,-3.53,Walking,2
5.3,5.238792605,24,3,3,3,0,-220.0,9.35,-1.93,1.77,1.11,1.6,-0.14,9.625,3.25,486.25,0.43023681640625,0.7039794921875,0.3062744140625,0.0212,-10.1875,-5.6875,-24.8125,8.23,-3.54,Walking,2
5.31,5.268932782,24,3,3,3,0,-177.0,8.68,-1.28,2.18,0.44,2.25,-0.56,1.875,4.75,486.125,0.43035888671875,0.70379638671875,0.3067626953125,0.0212,-10.1875,-5.6875,-24.75,8.24,-3.54,Walking,2
5.32,5.268932782,24,3,3,3,0,-176.0,8.51,-1.03,2.18,0.26,2.5,-0.18,-5.1875,5.6875,486.375,0.4307861328125,0.70330810546875,0.306884765625,0.0212,-10.1875,-5.6875,-24.6875,8.24,-3.53,Walking,2
5.33,5.284369102,24,3,3,3,0,-171.0,8.43,-0.88,2.24,0.18,2.65,0.8,-11.375,6.125,486.75,0.43170166015625,0.7027587890625,0.306396484375,0.0212,-10.1875,-5.6875,-24.6875,8.24,-3.53,Walking,2
5.34,5.284369102,24,3,3,3,0,-166.0,8.42,-0.85,2.29,0.17,2.68,1.95,-18.125,6.6875,487.1875,0.43310546875,0.70208740234375,0.30523681640625,0.0212,-9.75,-6.0625,-24.6875,8.24,-3.53,Walking,2
5.35,5.298345827,24,3,3,3,0,-181.0,8.72,-0.96,2.14,0.48,2.58,2.67,-23.75,7.875,487.8125,0.43487548828125,0.70123291015625,0.30364990234375,0.0212,-9.75,-6.0625,-24.75,8.23,-3.54,Walking,2
5.36,5.298345827,24,3,3,3,0,-195.0,8.91,-1.16,2.0,0.68,2.38,2.82,-29.125,9.625,488.6875,0.43701171875,0.7000732421875,0.3018798828125,0.0212,-9.75,-6.0625,-24.75,8.23,-3.55,Walking,2
5.37,5.329040367,24,3,3,3,0,-222.0,9.08,-1.59,1.74,0.85,1.95,2.68,-32.5,11.375,489.8125,0.43927001953125,0.69873046875,0.30010986328125,0.0212,-9.75,-6.0625,-24.75,8.23,-3.55,Walking,2
5.38,5.329040367,24,3,3,3,0,-299.0,9.31,-2.56,0.98,1.07,0.98,2.27,-33.5625,13.5,490.9375,0.4415283203125,0.6971435546875,0.29852294921875,0.0212,-9.75,-6.0625,-24.8125,8.23,-3.55,Walking,2
5.39,5.344099042,24,3,3,3,0,-345.0,9.43,-2.87,0.51,1.19,0.66,1.69,-33.5625,15.6875,492.25,0.44378662109375,0.6954345703125,0.2972412109375,0.0212,-10.0625,-7.25,-24.75,8.23,-3.54,Walking,2
5.4,5.344099042,24,3,3,3,0,-398.0,9.68,-3.16,-0.02,1.43,0.36,1.27,-32.0,17.3125,493.4375,0.446044921875,0.693603515625,0.2962646484375,0.0212,-10.0625,-7.25,-24.75,8.24,-3.53,Walking,2
5.41,5.35889608,24,3,3,3,0,-444.0,9.89,-3.29,-0.48,1.63,0.22,1.1,-29.375,17.8125,494.5,0.44818115234375,0.69183349609375,0.29547119140625,0.0212,-10.0625,-7.25,-24.6875,8.25,-3.52,Walking,2
5.42,5.35889608,24,3,3,3,0,-496.0,9.75,-3.27,-1.02,1.49,0.24,1.13,-26.25,16.625,495.4375,0.45013427734375,0.69024658203125,0.29473876953125,0.0212,-10.0625,-7.25,-24.625,8.26,-3.51,Walking,2
5.43,5.38883716,24,3,3,3,0,-484.0,9.29,-3.11,-0.9,1.03,0.38,1.24,-23.6875,14.75,496.1875,0.45196533203125,0.6888427734375,0.29400634765625,0.0212,-10.0625,-7.25,-24.625,8.26,-3.5,Walking,2
5.44,5.38883716,24,3,3,3,0,-460.0,8.84,-2.84,-0.66,0.57,0.65,1.19,-23.625,12.9375,497.0,0.45367431640625,0.6875,0.293212890625,0.0219,-10.375,-8.75,-24.5625,8.27,-3.5,Walking,2
5.45,5.394370852,24,3,3,3,0,-432.0,8.56,-2.6,-0.39,0.28,0.88,0.73,-25.5625,11.4375,498.0625,0.4552001953125,0.68609619140625,0.29241943359375,0.0219,-10.375,-8.75,-24.5625,8.27,-3.48,Walking,2
5.46,5.394370852,24,3,3,3,0,-432.0,8.56,-2.6,-0.39,0.28,0.88,0.73,-25.5625,11.4375,498.0625,0.4552001953125,0.68609619140625,0.29241943359375,0.0219,-10.375,-8.75,-24.5625,8.27,-3.48,Walking,2
5.46,5.419218183,24,3,3,3,0,-363.0,8.07,-2.41,0.29,-0.2,1.05,-0.02,-28.1875,10.25,499.5625,0.45654296875,0.6844482421875,0.291748046875,0.0219,-10.375,-8.75,-24.5625,8.28,-3.46,Walking,2
5.47,5.419218183,24,3,3,3,0,-332.0,7.77,-2.52,0.62,-0.51,0.91,-0.81,-29.9375,9.1875,501.375,0.4576416015625,0.68267822265625,0.291259765625,0.0219,-10.375,-8.75,-24.625,8.29,-3.44,Walking,2
5.48,5.434983279,24,3,3,3,0,-304.0,7.43,-2.71,0.9,-0.87,0.69,-1.4,-30.625,8.6875,503.375,0.45855712890625,0.6807861328125,0.29095458984375,0.0219,-10.375,-8.75,-24.625,8.3,-3.4,Walking,2
5.49,5.434983279,24,3,3,3,0,-284.0,7.06,-2.86,1.1,-1.25,0.5,-1.7,-29.5,8.3125,505.375,0.4593505859375,0.67889404296875,0.290771484375,0.0217,-11.0625,-8.0,-24.6875,8.31,-3.37,Walking,2
5.5,5.449056846,24,3,3,3,0,-264.0,6.25,-3.07,1.3,-2.07,0.26,-1.7,-26.9375,8.125,507.25,0.4600830078125,0.6771240234375,0.29071044921875,0.0217,-11.0625,-8.0,-24.6875,8.33,-3.33,Walking,2
5.51,5.449056846,24,3,3,3,0,-260.0,5.87,-3.05,1.34,-2.46,0.25,-1.41,-23.25,8.0,508.8125,0.46075439453125,0.675537109375,0.2906494140625,0.0217,-11.0625,-8.0,-24.6875,8.34,-3.3,Walking,2
5.52,5.479147463,24,3,3,3,0,-264.0,5.53,-2.96,1.31,-2.81,0.31,-1.11,-19.0625,7.8125,510.0625,0.46136474609375,0.6741943359375,0.2906494140625,0.0217,-11.0625,-8.0,-24.6875,8.35,-3.28,Walking,2
5.53,5.479147463,24,3,3,3,0,-263.0,5.17,-2.78,1.32,-3.17,0.47,-0.81,-15.0625,7.5625,511.0,0.46197509765625,0.673095703125,0.2906494140625,0.0217,-11.0625,-8.0,-24.6875,8.35,-3.26,Walking,2
5.54,5.493363528,24,3,3,3,0,-269.0,4.72,-2.41,1.25,-3.64,0.83,-0.51,-11.25,7.625,511.625,0.46258544921875,0.67218017578125,0.290771484375,0.0222,-10.375,-8.375,-24.625,8.36,-3.25,Walking,2
5.55,5.493363528,24,3,3,3,0,-279.0,4.6,-2.21,1.14,-3.76,1.03,-0.26,-7.75,7.8125,511.9375,0.46319580078125,0.6715087890625,0.2908935546875,0.0222,-10.375,-8.375,-24.625,8.37,-3.24,Walking,2
5.56,5.508423017,24,3,3,3,0,-274.0,4.51,-2.08,1.19,-3.86,1.15,-0.09,-3.875,7.375,512.0,0.46368408203125,0.6710205078125,0.2911376953125,0.0222,-10.375,-8.375,-24.5625,8.37,-3.24,Walking,2
5.57,5.508423017,24,3,3,3,0,-277.0,4.6,-1.77,1.15,-3.78,1.46,-0.02,-0.875,7.0,511.875,0.464111328125,0.670654296875,0.2913818359375,0.0222,-10.375,-8.375,-24.5,8.38,-3.24,Walking,2
5.58,5.53908537,24,3,3,3,0,-282.0,4.77,-1.73,1.08,-3.61,1.49,-0.2,0.0625,6.75,511.75,0.4644775390625,0.67034912109375,0.29180908203125,0.0222,-10.375,-8.375,-24.4375,8.38,-3.23,Walking,2
5.59,5.53908537,24,3,3,3,0,-280.0,4.98,-1.77,1.09,-3.41,1.45,-0.59,0.0625,6.375,511.75,0.46466064453125,0.66998291015625,0.29229736328125,0.0222,-11.375,-9.1875,-24.375,8.39,-3.23,Walking,2
5.6,5.55403467,24,3,3,3,0,-277.0,5.09,-1.98,1.12,-3.3,1.23,-1.07,-0.25,6.25,511.875,0.4647216796875,0.6695556640625,0.29296875,0.0222,-11.375,-9.1875,-24.3125,8.4,-3.22,Walking,2
5.61,5.55403467,24,3,3,3,0,-280.0,5.73,-2.79,1.07,-2.68,0.41,-1.44,0.25,6.125,512.0625,0.4647216796875,0.6690673828125,0.29376220703125,0.0222,-11.375,-9.1875,-24.25,8.41,-3.2,Walking,2
5.62,5.568785891,24,3,3,3,0,-277.0,6.16,-3.18,1.1,-2.26,0.01,-1.41,1.0625,5.375,512.25,0.464599609375,0.66864013671875,0.29461669921875,0.0222,-11.375,-9.1875,-24.1875,8.42,-3.19,Walking,2
5.63,5.568785891,24,3,3,3,0,-290.0,6.64,-3.56,0.96,-1.78,-0.38,-1.73,3.9375,4.25,512.375,0.46429443359375,0.66839599609375,0.29559326171875,0.0222,-11.375,-9.1875,-24.125,8.43,-3.18,Walking,2
5.64,5.599242027,24,3,3,3,0,-280.0,7.04,-4.03,1.05,-1.39,-0.86,-1.44,5.6875,3.4375,512.3125,0.46392822265625,0.668212890625,0.2965087890625,0.0236,-11.0,-8.75,-24.0625,8.43,-3.17,Walking,2
5.65,5.599242027,24,3,3,3,0,-312.0,8.0,-4.88,0.72,-0.43,-1.71,-1.06,10.0,2.0,511.9375,0.4635009765625,0.66839599609375,0.29736328125,0.0236,-11.0,-8.75,-24.0625,8.44,-3.17,Walking,2
5.66,5.615114016,24,3,3,3,0,-326.0,8.39,-5.16,0.57,-0.05,-1.98,-0.22,14.3125,0.5625,511.125,0.463134765625,0.6689453125,0.298095703125,0.0236,-11.0,-8.75,-24.0,8.44,-3.17,Walking,2
5.67,5.615114016,24,3,3,3,0,-336.0,8.72,-5.38,0.46,0.28,-2.18,0.94,17.9375,-0.5625,509.8125,0.462890625,0.669921875,0.2984619140625,0.0236,-11.0,-8.75,-23.9375,8.44,-3.19,Walking,2
5.68,5.628639285,24,3,3,3,0,-344.0,9.24,-5.49,0.38,0.81,-2.26,2.18,20.9375,-2.1875,508.0625,0.46282958984375,0.6712646484375,0.29840087890625,0.0236,-11.0,-8.75,-23.875,8.43,-3.23,Walking,2
5.69,5.628639285,24,3,3,3,0,-342.0,9.77,-5.29,0.39,1.35,-2.01,3.36,21.1875,-4.5,506.0,0.462890625,0.67291259765625,0.2978515625,0.0222,-12.0625,-7.25,-23.8125,8.41,-3.27,Walking,2
5.7,5.659644005,24,3,3,3,0,-333.0,9.9,-5.04,0.48,1.5,-1.71,4.2,17.75,-6.5,504.0625,0.46319580078125,0.67462158203125,0.2967529296875,0.0222,-12.0625,-7.25,-23.8125,8.39,-3.32,Walking,2
5.71,5.659644005,24,3,3,3,0,-327.0,10.11,-4.87,0.54,1.74,-1.49,4.55,10.125,-7.9375,502.4375,0.46368408203125,0.67608642578125,0.295166015625,0.0222,-12.0625,-7.25,-23.875,8.37,-3.37,Walking,2
5.72,5.674901085,24,3,3,3,0,-306.0,10.31,-4.9,0.77,1.96,-1.48,4.42,0.0,-8.9375,501.5,0.46435546875,0.67718505859375,0.29315185546875,0.0222,-12.0625,-7.25,-23.9375,8.35,-3.41,Walking,2
5.73,5.674901085,24,3,3,3,0,-288.0,10.45,-5.15,0.96,2.11,-1.71,3.9,-9.625,-9.625,501.3125,0.465087890625,0.67779541015625,0.2908935546875,0.0222,-12.0625,-7.25,-24.0625,8.33,-3.44,Walking,2
5.74,5.688531944,24,3,3,3,0,-288.0,10.45,-5.15,0.96,2.11,-1.71,3.9,-9.625,-9.625,501.3125,0.465087890625,0.67779541015625,0.2908935546875,0.0222,-12.0625,-7.25,-24.0625,8.33,-3.44,Walking,2
5.75,5.688531944,24,3,3,3,0,-276.0,10.56,-5.53,1.11,2.24,-2.07,2.99,-18.0,-9.3125,501.875,0.46575927734375,0.6778564453125,0.2886962890625,0.0222,-12.75,-7.6875,-24.1875,8.31,-3.46,Walking,2
5.75,5.703791506,24,3,3,3,0,-293.0,10.73,-6.0,0.96,2.43,-2.53,2.01,-24.3125,-8.125,503.0625,0.46649169921875,0.677490234375,0.28662109375,0.0222,-12.75,-7.6875,-24.375,8.3,-3.46,Walking,2
5.76,5.703791506,24,3,3,3,0,-348.0,11.09,-7.12,0.44,2.8,-3.66,1.37,-28.875,-7.4375,504.625,0.46710205078125,0.6767578125,0.28460693359375,0.0222,-12.75,-7.6875,-24.5625,8.29,-3.45,Walking,2
5.77,5.718231814,24,3,3,3,0,-397.0,11.12,-7.49,0.0,2.84,-4.04,1.5,-29.75,-8.0625,506.1875,0.4677734375,0.676025390625,0.282470703125,0.0222,-12.75,-7.6875,-24.75,8.28,-3.44,Walking,2
5.78,5.718231814,24,3,3,3,0,-487.0,11.55,-7.65,-0.88,3.29,-4.19,2.68,-28.125,-10.5,507.4375,0.4686279296875,0.6756591796875,0.2799072265625,0.0222,-12.75,-7.6875,-24.9375,8.26,-3.45,Walking,2
5.79,5.748214806,24,3,3,3,0,-591.0,12.03,-7.49,-1.88,3.79,-4.01,5.02,-23.6875,-15.9375,507.9375,0.4696044921875,0.676025390625,0.27642822265625,0.0222,-12.5,-7.6875,-25.1875,8.23,-3.48,Walking,2
5.8,5.748214806,24,3,3,3,0,-730.0,11.8,-6.67,-3.22,3.62,-3.13,8.11,-15.1875,-23.0625,507.25,0.4708251953125,0.67755126953125,0.27178955078125,0.0222,-12.5,-7.6875,-25.4375,8.18,-3.54,Walking,2
5.81,5.763242393,24,3,3,3,0,-714.0,11.11,-5.73,-3.02,2.99,-2.09,10.34,-5.125,-29.375,505.5625,0.47198486328125,0.6800537109375,0.2664794921875,0.0222,-12.5,-7.6875,-25.6875,8.12,-3.63,Walking,2
5.82,5.763242393,24,3,3,3,0,-670.0,10.26,-4.53,-2.53,2.21,-0.8,10.32,1.0625,-32.8125,503.5,0.47283935546875,0.68292236328125,0.26129150390625,0.0222,-12.5,-7.6875,-26.0,8.05,-3.72,Walking,2
5.83,5.778176679,24,3,3,3,0,-639.0,9.96,-3.5,-2.18,1.96,0.29,7.77,-1.4375,-33.3125,502.3125,0.47296142578125,0.68536376953125,0.25689697265625,0.0222,-12.5,-7.6875,-26.3125,8.0,-3.79,Walking,2
5.84,5.778176679,24,3,3,3,0,-640.0,10.4,-3.23,-2.14,2.44,0.58,4.43,-10.6875,-31.375,502.4375,0.4725341796875,0.68682861328125,0.25347900390625,0.0212,-12.5,-8.0,-26.625,7.96,-3.82,Walking,2
5.85,5.809720217,24,3,3,3,0,-620.0,10.06,-3.89,-1.89,2.13,-0.06,2.23,-12.25,-29.375,503.25,0.47161865234375,0.68780517578125,0.2508544921875,0.0212,-12.5,-8.0,-26.875,7.93,-3.83,Walking,2
5.86,5.809720217,24,3,3,3,0,-602.0,9.42,-4.23,-1.67,1.51,-0.39,1.34,-2.0625,-27.1875,503.625,0.47039794921875,0.68902587890625,0.24908447265625,0.0212,-12.5,-8.0,-27.125,7.9,-3.84,Walking,2
5.87,5.822936892,24,3,3,3,0,-565.0,8.39,-3.06,-1.27,0.51,0.79,0.93,9.9375,-25.5,503.3125,0.46893310546875,0.69061279296875,0.248046875,0.0212,-12.5,-8.0,-27.3125,7.88,-3.86,Walking,2
5.88,5.822936892,24,3,3,3,0,-548.0,8.0,-2.27,-1.08,0.14,1.6,0.39,16.9375,-24.8125,502.75,0.4671630859375,0.69244384765625,0.24755859375,0.0212,-12.5,-8.0,-27.4375,7.86,-3.87,Walking,2
5.89,5.838070356,24,3,3,3,0,-536.0,7.62,-1.65,-0.94,-0.22,2.23,-0.47,20.0625,-24.0625,502.125,0.46514892578125,0.6942138671875,0.24755859375,0.0219,-12.5,-9.5625,-27.5625,7.84,-3.88,Walking,2
5.9,5.838070356,24,3,3,3,0,-528.0,7.41,-1.13,-0.84,-0.41,2.75,-1.7,20.5625,-22.25,501.75,0.462890625,0.69573974609375,0.248046875,0.0219,-12.5,-9.5625,-27.6875,7.83,-3.89,Walking,2
5.91,5.869002566,24,3,3,3,0,-498.0,7.07,-0.58,-0.54,-0.75,3.29,-3.0,21.75,-20.1875,501.625,0.46038818359375,0.69708251953125,0.24920654296875,0.0219,-12.5,-9.5625,-27.75,7.83,-3.88,Walking,2
5.92,5.869002566,24,3,3,3,0,-493.0,6.86,-0.45,-0.48,-0.96,3.41,-4.06,24.4375,-18.375,501.5625,0.45770263671875,0.69830322265625,0.2509765625,0.0219,-12.5,-9.5625,-27.8125,7.83,-3.86,Walking,2
5.93,5.883195315,24,3,3,3,0,-504.0,6.76,-0.43,-0.58,-1.07,3.41,-4.91,27.8125,-17.0625,501.4375,0.4547119140625,0.69952392578125,0.25323486328125,0.0219,-12.5,-9.5625,-27.875,7.84,-3.84,Walking,2
5.94,5.883195315,24,3,3,3,0,-509.0,6.81,-0.42,-0.63,-1.03,3.39,-5.47,30.0625,-16.5625,501.3125,0.45159912109375,0.70068359375,0.25579833984375,0.0208,-12.5,-7.25,-27.875,7.85,-3.82,Walking,2
5.95,5.898481611,24,3,3,3,0,-496.0,6.86,-0.75,-0.5,-1.0,3.03,-5.68,29.5,-16.375,501.3125,0.4483642578125,0.7017822265625,0.2584228515625,0.0208,-12.5,-7.25,-27.875,7.86,-3.79,Walking,2
5.96,5.898481611,24,3,3,3,0,-483.0,6.98,-1.25,-0.36,-0.88,2.51,-5.99,27.25,-17.0625,501.5,0.44512939453125,0.7027587890625,0.26104736328125,0.0208,-12.5,-7.25,-27.9375,7.87,-3.76,Walking,2
5.97,5.929547,24,3,3,3,0,-446.0,7.25,-1.78,0.02,-0.62,1.94,-6.26,21.25,-17.3125,502.125,0.44189453125,0.70343017578125,0.2635498046875,0.0208,-12.5,-7.25,-28.0,7.88,-3.72,Walking,2
5.98,5.929547,24,3,3,3,0,-419.0,7.54,-2.29,0.29,-0.35,1.39,-6.45,16.5625,-17.5625,503.0625,0.438720703125,0.70391845703125,0.26593017578125,0.0208,-12.5,-7.25,-28.0625,7.89,-3.68,Walking,2
5.99,5.959695274,24,3,3,3,0,-384.0,8.08,-2.98,0.66,0.17,0.65,-6.45,14.1875,-17.6875,504.1875,0.435546875,0.7042236328125,0.2681884765625,0.0215,-12.375,-5.6875,-28.125,7.91,-3.64,Walking,2
6.0,5.959695274,24,3,3,3,0,-373.0,8.22,-3.19,0.78,0.29,0.4,-6.34,13.125,-17.375,505.3125,0.43243408203125,0.70452880859375,0.2703857421875,0.0215,-12.375,-5.6875,-28.25,7.92,-3.59,Walking,2
6.01,5.965033084,24,3,3,3,0,-361.0,8.37,-3.26,0.92,0.44,0.28,-6.41,11.375,-17.25,506.5625,0.42938232421875,0.7047119140625,0.27252197265625,0.0215,-12.375,-5.6875,-28.375,7.93,-3.54,Walking,2
6.02,5.965033084,24,3,3,3,0,-358.0,8.23,-3.29,0.97,0.29,0.21,-6.36,9.0625,-17.25,507.9375,0.4263916015625,0.70477294921875,0.2745361328125,0.0215,-12.375,-5.6875,-28.5,7.94,-3.5,Walking,2
6.03,5.988786868,24,3,3,3,0,-349.0,7.82,-3.3,1.08,-0.13,0.14,-6.15,8.0,-16.75,509.3125,0.42352294921875,0.704833984375,0.2764892578125,0.0215,-12.375,-5.6875,-28.5625,7.95,-3.45,Walking,2
6.04,5.988786868,24,3,3,3,0,-349.0,7.82,-3.3,1.08,-0.13,0.14,-6.15,8.0,-16.75,509.3125,0.42352294921875,0.704833984375,0.2764892578125,0.0215,-12.375,-5.6875,-28.5625,7.95,-3.45,Walking,2
6.05,5.994391726,24,3,3,3,0,-349.0,7.46,-3.23,1.09,-0.49,0.17,-5.89,7.1875,-16.25,510.6875,0.42071533203125,0.704833984375,0.2783203125,0.0219,-12.0,-2.25,-28.6875,7.96,-3.4,Walking,2
6.05,5.994391726,24,3,3,3,0,-339.0,7.06,-3.14,1.22,-0.9,0.22,-5.53,5.6875,-15.3125,512.0,0.41815185546875,0.704833984375,0.280029296875,0.0219,-12.0,-2.25,-28.8125,7.97,-3.36,Walking,2
6.06,6.019088015,24,3,3,3,0,-322.0,6.3,-2.96,1.4,-1.66,0.35,-5.05,4.75,-13.4375,513.25,0.41583251953125,0.7047119140625,0.28155517578125,0.0219,-12.0,-2.25,-28.9375,7.97,-3.32,Walking,2
6.07,6.019088015,24,3,3,3,0,-311.0,6.0,-2.77,1.52,-1.97,0.51,-4.66,3.5625,-11.5,514.375,0.41375732421875,0.70458984375,0.282958984375,0.0219,-12.0,-2.25,-29.0,7.98,-3.28,Walking,2
6.08,6.033482099,24,3,3,3,0,-300.0,5.75,-2.58,1.65,-2.24,0.66,-4.43,0.875,-9.5625,515.5625,0.41192626953125,0.70428466796875,0.2843017578125,0.0219,-12.0,-2.25,-29.0625,7.99,-3.24,Walking,2
6.09,6.033482099,24,3,3,3,0,-291.0,5.62,-2.41,1.75,-2.38,0.78,-4.4,-2.3125,-7.625,516.9375,0.4102783203125,0.7037353515625,0.28558349609375,0.0222,-12.375,-3.0,-29.1875,8.0,-3.2,Walking,2
6.1,6.04847746,24,3,3,3,0,-269.0,5.34,-2.22,1.98,-2.66,0.93,-4.44,-6.1875,-5.875,518.5,0.40887451171875,0.7030029296875,0.28680419921875,0.0222,-12.375,-3.0,-29.25,8.01,-3.16,Walking,2
6.11,6.04847746,24,3,3,3,0,-263.0,5.29,-2.16,2.06,-2.73,0.95,-4.4,-10.25,-4.0,520.25,0.40765380859375,0.70196533203125,0.2879638671875,0.0222,-12.375,-3.0,-29.3125,8.02,-3.11,Walking,2
6.12,6.078324954,24,3,3,3,0,-259.0,5.26,-2.11,2.1,-2.77,0.95,-4.28,-14.125,-2.125,522.1875,0.40667724609375,0.70074462890625,0.28900146484375,0.0222,-12.375,-3.0,-29.375,8.03,-3.06,Walking,2
6.13,6.078324954,24,3,3,3,0,-265.0,5.4,-2.1,2.05,-2.64,0.91,-4.04,-18.125,-0.3125,524.25,0.406005859375,0.69927978515625,0.2899169921875,0.0222,-12.375,-3.0,-29.4375,8.05,-3.01,Walking,2
6.14,6.093374718,24,3,3,3,0,-281.0,5.66,-2.28,1.9,-2.39,0.68,-3.56,-22.1875,1.125,526.4375,0.4056396484375,0.69769287109375,0.29052734375,0.0222,-12.375,-2.6875,-29.5,8.06,-2.96,Walking,2
6.15,6.093374718,24,3,3,3,0,-298.0,5.91,-2.4,1.74,-2.16,0.51,-2.87,-25.375,2.6875,528.5625,0.4056396484375,0.69598388671875,0.2908935546875,0.0222,-12.375,-2.6875,-29.5625,8.07,-2.92,Walking,2
6.16,6.108787926,24,3,3,3,0,-315.0,6.14,-2.52,1.58,-1.94,0.35,-2.13,-28.25,3.8125,530.75,0.406005859375,0.6942138671875,0.29083251953125,0.0222,-12.375,-2.6875,-29.625,8.08,-2.87,Walking,2
6.17,6.108787926,24,3,3,3,0,-331.0,6.34,-2.63,1.43,-1.74,0.2,-1.54,-31.0,4.75,532.875,0.4066162109375,0.6923828125,0.29058837890625,0.0222,-12.375,-2.6875,-29.625,8.09,-2.83,Walking,2
6.18,6.138589887,24,3,3,3,0,-371.0,6.72,-2.87,1.03,-1.37,-0.07,-1.24,-33.0,6.0625,535.0625,0.407470703125,0.69049072265625,0.2901611328125,0.0222,-12.375,-2.6875,-29.6875,8.1,-2.8,Walking,2
6.19,6.138589887,24,3,3,3,0,-395.0,6.91,-3.01,0.8,-1.2,-0.25,-1.28,-34.3125,7.0625,537.25,0.408447265625,0.6884765625,0.28973388671875,0.0215,-12.5625,-2.1875,-29.75,8.11,-2.76,Walking,2
6.2,6.153465782,24,3,3,3,0,-426.0,6.98,-3.18,0.5,-1.14,-0.47,-1.36,-35.125,8.0,539.5,0.409423828125,0.68634033203125,0.28936767578125,0.0215,-12.5625,-2.1875,-29.75,8.12,-2.71,Walking,2
6.21,6.153465782,24,3,3,3,0,-477.0,6.92,-3.62,0.0,-1.21,-0.94,-1.25,-33.9375,9.0,541.6875,0.41046142578125,0.68426513671875,0.2890625,0.0215,-12.5625,-2.1875,-29.8125,8.13,-2.68,Walking,2
6.22,6.168606326,24,3,3,3,0,-499.0,6.87,-3.65,-0.22,-1.27,-1.0,-0.59,-29.25,10.125,543.3125,0.41162109375,0.68243408203125,0.2886962890625,0.0215,-12.5625,-2.1875,-29.8125,8.14,-2.65,Walking,2
6.23,6.168606326,24,3,3,3,0,-518.0,6.85,-3.52,-0.42,-1.3,-0.89,0.48,-22.4375,11.375,544.25,0.41302490234375,0.6810302734375,0.28826904296875,0.0215,-12.5625,-2.1875,-29.75,8.15,-2.63,Walking,2
6.24,6.200197228,24,3,3,3,0,-534.0,6.87,-3.33,-0.59,-1.28,-0.69,1.79,-16.125,12.5625,544.5,0.4146728515625,0.68011474609375,0.28759765625,0.0219,-13.375,-2.1875,-29.6875,8.16,-2.63,Walking,2
6.25,6.200197228,24,3,3,3,0,-551.0,6.94,-2.84,-0.77,-1.22,-0.18,2.9,-10.5,13.8125,544.125,0.4166259765625,0.6795654296875,0.2867431640625,0.0219,-13.375,-2.1875,-29.5625,8.16,-2.65,Walking,2
6.26,6.229558759,24,3,3,3,0,-568.0,6.98,-2.67,-0.96,-1.18,0.0,3.23,-5.5,15.1875,543.3125,0.4185791015625,0.67926025390625,0.28607177734375,0.0219,-13.375,-2.1875,-29.5,8.16,-2.67,Walking,2
6.27,6.229558759,24,3,3,3,0,-606.0,7.1,-2.66,-1.37,-1.06,0.04,2.86,-2.0625,16.0,542.375,0.42041015625,0.6790771484375,0.28570556640625,0.0219,-13.375,-2.1875,-29.3125,8.17,-2.7,Walking,2
6.28,6.235021487,24,3,3,3,0,-652.0,7.37,-2.8,-1.85,-0.8,-0.08,1.93,0.125,16.0625,541.5,0.42193603515625,0.67877197265625,0.28570556640625,0.0219,-13.375,-2.1875,-29.1875,8.17,-2.72,Walking,2
6.29,6.235021487,24,3,3,3,0,-751.0,7.98,-3.41,-2.85,-0.2,-0.68,0.98,1.5625,14.9375,540.8125,0.42303466796875,0.678466796875,0.28607177734375,0.0219,-14.375,-1.75,-29.0625,8.18,-2.73,Walking,2
6.3,6.243289106,24,3,3,3,0,-751.0,7.98,-3.41,-2.85,-0.2,-0.68,0.98,1.5625,14.9375,540.8125,0.42303466796875,0.678466796875,0.28607177734375,0.0219,-14.375,-1.75,-29.0625,8.18,-2.73,Walking,2
6.31,6.243289106,24,3,3,3,0,-808.0,8.33,-3.93,-3.44,0.13,-1.2,0.32,2.5,12.6875,540.25,0.423828125,0.67816162109375,0.28662109375,0.0219,-14.375,-1.75,-28.9375,8.19,-2.73,Walking,2
6.31,6.258115725,24,3,3,3,0,-854.0,8.66,-4.44,-3.92,0.45,-1.7,-0.02,1.625,10.125,539.875,0.42437744140625,0.6778564453125,0.28717041015625,0.0219,-14.375,-1.75,-28.8125,8.2,-2.73,Walking,2
6.32,6.258115725,24,3,3,3,0,-881.0,9.03,-4.99,-4.2,0.82,-2.25,-0.27,1.6875,7.3125,539.625,0.4246826171875,0.6776123046875,0.28765869140625,0.0219,-14.375,-1.75,-28.75,8.21,-2.73,Walking,2
6.33,6.299298872,24,3,3,3,0,-871.0,9.94,-5.77,-4.11,1.72,-3.03,-0.29,3.375,4.3125,539.4375,0.42474365234375,0.67755126953125,0.2880859375,0.0219,-14.375,-1.75,-28.75,8.21,-2.73,Walking,2
6.34,6.299298872,24,3,3,3,0,-844.0,10.92,-5.94,-3.84,2.7,-3.2,0.08,7.25,0.6875,538.9375,0.42462158203125,0.6778564453125,0.28839111328125,0.0229,-14.375,0.5,-28.6875,8.21,-2.74,Walking,2
6.35,6.318410729,24,3,3,3,0,-799.0,11.92,-5.97,-3.4,3.71,-3.21,1.19,12.75,-2.5,537.9375,0.42449951171875,0.67877197265625,0.28826904296875,0.0229,-14.375,0.5,-28.6875,8.21,-2.76,Walking,2
6.36,6.318410729,24,3,3,3,0,-753.0,12.68,-5.78,-2.94,4.48,-2.98,2.88,20.6875,-3.9375,536.125,0.424560546875,0.6802978515625,0.28778076171875,0.0229,-14.375,0.5,-28.625,8.19,-2.8,Walking,2
6.37,6.323829552,24,3,3,3,0,-650.0,12.86,-4.65,-1.93,4.68,-1.79,4.26,30.1875,-3.3125,533.375,0.4248046875,0.6824951171875,0.287109375,0.0229,-14.375,0.5,-28.5625,8.18,-2.86,Walking,2
6.38,6.323829552,24,3,3,3,0,-631.0,12.74,-4.08,-1.74,4.57,-1.14,4.32,35.25,-1.375,530.1875,0.425048828125,0.684814453125,0.2867431640625,0.0229,-14.375,0.5,-28.5,8.16,-2.93,Walking,2
6.39,6.36446094,24,3,3,3,0,-636.0,12.79,-3.82,-1.81,4.63,-0.83,2.92,34.4375,-0.5,527.4375,0.42498779296875,0.68682861328125,0.28692626953125,0.0211,-14.375,2.375,-28.375,8.15,-2.98,Walking,2
6.4,6.36446094,24,3,3,3,0,-642.0,12.86,-3.93,-1.89,4.71,-0.91,1.28,29.8125,-0.5625,525.3125,0.424560546875,0.68841552734375,0.2874755859375,0.0211,-14.375,2.375,-28.3125,8.15,-3.02,Walking,2
6.41,6.369831261,24,3,3,3,0,-596.0,12.67,-3.94,-1.44,4.52,-0.89,1.06,26.625,-1.5625,523.4375,0.42413330078125,0.68988037109375,0.28802490234375,0.0211,-14.375,2.375,-28.25,8.14,-3.05,Walking,2
6.42,6.369831261,24,3,3,3,0,-529.0,12.27,-3.59,-0.78,4.13,-0.5,1.86,27.5625,-2.9375,521.375,0.42376708984375,0.69146728515625,0.28814697265625,0.0211,-14.375,2.375,-28.1875,8.13,-3.09,Walking,2
6.43,6.378479454,24,3,3,3,0,-440.0,11.81,-2.98,0.09,3.68,0.14,2.39,28.375,-3.75,519.125,0.4234619140625,0.69329833984375,0.28814697265625,0.0211,-14.375,2.375,-28.125,8.12,-3.13,Walking,2
6.44,6.378479454,24,3,3,3,0,-288.0,11.13,-1.62,1.6,3.01,1.54,2.21,24.75,-2.6875,517.125,0.42327880859375,0.69482421875,0.2880859375,0.0214,-15.5625,6.5625,-28.0625,8.11,-3.17,Walking,2
6.45,6.408867719,24,3,3,3,0,-227.0,10.82,-1.13,2.2,2.71,2.07,1.55,18.625,0.4375,515.625,0.4232177734375,0.69586181640625,0.28814697265625,0.0214,-15.5625,6.5625,-28.0,8.11,-3.2,Walking,2
6.47,6.408867719,24,3,3,3,0,-196.0,10.43,-0.83,2.5,2.32,2.38,0.97,11.6875,4.25,514.5625,0.4234619140625,0.6964111328125,0.28839111328125,0.0214,-15.5625,6.5625,-27.875,8.11,-3.22,Walking,2
6.47,6.423732872,24,3,3,3,0,-175.0,10.01,-0.59,2.7,1.89,2.63,0.77,5.0,8.1875,513.875,0.424072265625,0.6964111328125,0.2886962890625,0.0214,-15.5625,6.5625,-27.8125,8.11,-3.23,Walking,2
6.49,6.423732872,24,3,3,3,0,-158.0,8.99,-0.37,2.85,0.87,2.86,1.16,-2.625,10.9375,513.4375,0.42510986328125,0.69610595703125,0.28863525390625,0.0214,-15.5625,6.5625,-27.6875,8.12,-3.24,Walking,2
6.49,6.439020714,24,3,3,3,0,-162.0,8.6,-0.39,2.8,0.48,2.85,1.94,-10.6875,13.125,513.3125,0.42669677734375,0.6954345703125,0.2880859375,0.0222,-14.25,9.25,-27.625,8.12,-3.25,Walking,2
6.5,6.439020714,24,3,3,3,0,-175.0,8.37,-0.38,2.66,0.25,2.87,2.72,-19.0,15.4375,513.5,0.42889404296875,0.6944580078125,0.2869873046875,0.0222,-14.25,9.25,-27.5625,8.12,-3.25,Walking,2
6.51,6.469041995,24,3,3,3,0,-192.0,8.25,-0.46,2.48,0.12,2.8,3.22,-26.1875,17.75,513.875,0.43145751953125,0.693115234375,0.28558349609375,0.0222,-14.25,9.25,-27.5,8.12,-3.26,Walking,2
6.52,6.469041995,24,3,3,3,0,-248.0,8.14,-0.92,1.91,0.01,2.34,3.34,-31.0625,20.0,514.5,0.43438720703125,0.6915283203125,0.2840576171875,0.0222,-14.25,9.25,-27.4375,8.13,-3.27,Walking,2
6.53,6.484536461,24,3,3,3,0,-298.0,8.19,-1.25,1.39,0.05,2.01,3.11,-32.6875,21.8125,515.1875,0.4373779296875,0.689697265625,0.2825927734375,0.0222,-14.25,9.25,-27.375,8.13,-3.27,Walking,2
6.55,6.484536461,24,3,3,3,0,-360.0,8.24,-1.63,0.76,0.1,1.63,2.8,-32.3125,22.75,515.9375,0.4403076171875,0.6878662109375,0.28131103515625,0.0217,-15.5,10.5,-27.25,8.14,-3.27,Walking,2
6.56,6.499048343,24,3,3,3,0,-457.0,8.09,-2.2,-0.21,-0.06,1.06,2.66,-30.6875,22.9375,516.5625,0.44317626953125,0.68603515625,0.2801513671875,0.0217,-15.5,10.5,-27.1875,8.15,-3.27,Walking,2
6.56,6.499048343,24,3,3,3,0,-457.0,8.09,-2.2,-0.21,-0.06,1.06,2.66,-30.6875,22.9375,516.5625,0.44317626953125,0.68603515625,0.2801513671875,0.0217,-15.5,10.5,-27.1875,8.15,-3.27,Walking,2
6.57,6.513851565,24,3,3,3,0,-490.0,7.91,-2.33,-0.56,-0.24,0.94,2.64,-28.0,22.375,517.0625,0.4459228515625,0.684326171875,0.27911376953125,0.0217,-15.5,10.5,-27.0625,8.16,-3.27,Walking,2
6.58,6.513851565,24,3,3,3,0,-506.0,7.74,-2.31,-0.74,-0.42,0.96,2.54,-24.3125,21.625,517.4375,0.448486328125,0.6827392578125,0.2781982421875,0.0217,-15.5,10.5,-26.9375,8.16,-3.28,Walking,2
6.58,6.528322187,24,3,3,3,0,-512.0,7.55,-2.26,-0.81,-0.61,1.02,2.47,-21.75,20.75,517.625,0.450927734375,0.68133544921875,0.27734375,0.0217,-15.5,10.5,-26.875,8.17,-3.28,Walking,2
6.59,6.528322187,24,3,3,3,0,-487.0,7.51,-2.04,-0.58,-0.66,1.25,2.28,-20.5,19.6875,517.8125,0.4532470703125,0.67999267578125,0.27655029296875,0.0211,-15.75,11.25,-26.75,8.18,-3.29,Walking,2
6.6,6.558634199,24,3,3,3,0,-462.0,7.45,-1.95,-0.35,-0.73,1.34,1.99,-19.5,18.75,518.0,0.45538330078125,0.67864990234375,0.27587890625,0.0211,-15.75,11.25,-26.625,8.19,-3.29,Walking,2
6.61,6.558634199,24,3,3,3,0,-430.0,7.39,-2.0,-0.04,-0.8,1.28,1.62,-18.5,18.1875,518.3125,0.45733642578125,0.6773681640625,0.275390625,0.0211,-15.75,11.25,-26.5625,8.19,-3.29,Walking,2
6.62,6.573673912,24,3,3,3,0,-401.0,7.28,-2.07,0.22,-0.92,1.21,1.09,-17.5,18.3125,518.625,0.45916748046875,0.676025390625,0.27508544921875,0.0211,-15.75,11.25,-26.4375,8.2,-3.29,Walking,2
6.64,6.573673912,24,3,3,3,0,-357.0,6.87,-2.29,0.64,-1.34,0.98,0.45,-16.1875,18.6875,519.0625,0.46075439453125,0.674560546875,0.275146484375,0.0211,-15.75,11.25,-26.375,8.22,-3.28,Walking,2
6.65,6.588753624,24,3,3,3,0,-343.0,6.57,-2.47,0.76,-1.66,0.79,-0.15,-14.375,18.875,519.5,0.462158203125,0.67315673828125,0.27545166015625,0.0217,-15.0625,12.75,-26.25,8.23,-3.27,Walking,2
6.66,6.588753624,24,3,3,3,0,-327.0,6.26,-2.63,0.9,-1.98,0.62,-0.68,-12.25,19.0,519.9375,0.46337890625,0.6717529296875,0.27606201171875,0.0217,-15.0625,12.75,-26.125,8.25,-3.25,Walking,2
6.66,6.618739871,24,3,3,3,0,-321.0,5.97,-2.86,0.94,-2.28,0.37,-0.83,-9.5,18.5,520.3125,0.4644775390625,0.67041015625,0.27679443359375,0.0217,-15.0625,12.75,-25.9375,8.26,-3.24,Walking,2
6.67,6.618739871,24,3,3,3,0,-297.0,5.46,-2.8,1.15,-2.81,0.42,-1.11,-3.875,17.625,520.375,0.46527099609375,0.66937255859375,0.27783203125,0.0217,-15.0625,12.75,-25.8125,8.28,-3.22,Walking,2
6.68,6.634590376,24,3,3,3,0,-299.0,5.22,-2.88,1.12,-3.07,0.33,-1.2,1.6875,16.5,520.1875,0.46588134765625,0.6685791015625,0.27911376953125,0.0217,-15.0625,12.75,-25.6875,8.3,-3.21,Walking,2
6.69,6.634590376,24,3,3,3,0,-290.0,5.0,-2.79,1.18,-3.31,0.41,-1.0,7.0,14.375,519.6875,0.46624755859375,0.6680908203125,0.2803955078125,0.0214,-16.25,14.6875,-25.5,8.31,-3.21,Walking,2
6.7,6.647879397,24,3,3,3,0,-289.0,4.73,-2.48,1.16,-3.59,0.72,-0.85,11.9375,11.875,518.9375,0.4664306640625,0.66802978515625,0.28173828125,0.0214,-16.25,14.6875,-25.375,8.32,-3.21,Walking,2
6.71,6.647879397,24,3,3,3,0,-285.0,4.69,-2.33,1.18,-3.64,0.88,-0.61,13.625,9.4375,518.0625,0.46649169921875,0.66815185546875,0.282958984375,0.0214,-16.25,14.6875,-25.25,8.33,-3.21,Walking,2
6.73,6.679363569,24,3,3,3,0,-284.0,4.61,-2.22,1.17,-3.72,0.99,-0.63,14.875,6.9375,517.125,0.46630859375,0.66839599609375,0.28411865234375,0.0214,-16.25,14.6875,-25.125,8.34,-3.22,Walking,2
6.74,6.679363569,24,3,3,3,0,-283.0,4.63,-2.17,1.16,-3.71,1.04,-0.85,15.9375,5.0625,516.3125,0.46600341796875,0.66876220703125,0.2852783203125,0.0214,-16.25,14.6875,-25.0,8.35,-3.22,Walking,2
6.74,6.694038577,24,3,3,3,0,-291.0,4.95,-2.36,1.07,-3.4,0.86,-1.42,16.75,3.5625,515.5625,0.46539306640625,0.66912841796875,0.28668212890625,0.0222,-15.875,15.75,-24.9375,8.35,-3.22,Walking,2
6.75,6.694038577,24,3,3,3,0,-295.0,5.16,-2.61,1.02,-3.2,0.6,-2.23,17.125,2.25,515.0625,0.4644775390625,0.66943359375,0.28826904296875,0.0222,-15.875,15.75,-24.8125,8.36,-3.21,Walking,2
6.76,6.708849694,24,3,3,3,0,-300.0,5.46,-2.95,0.96,-2.91,0.24,-2.88,16.875,1.25,514.8125,0.46331787109375,0.669677734375,0.29010009765625,0.0222,-15.875,15.75,-24.75,8.37,-3.19,Walking,2
6.77,6.708849694,24,3,3,3,0,-305.0,5.79,-3.37,0.9,-2.59,-0.19,-3.27,16.5,0.4375,514.625,0.4620361328125,0.66986083984375,0.2919921875,0.0222,-15.875,15.75,-24.6875,8.39,-3.18,Walking,2
6.78,6.739302575,24,3,3,3,0,-314.0,6.36,-4.27,0.8,-2.03,-1.11,-3.22,16.0,-0.5625,514.5625,0.460693359375,0.6700439453125,0.29376220703125,0.0222,-15.875,15.75,-24.625,8.4,-3.16,Walking,2
6.8,6.739302575,24,3,3,3,0,-323.0,6.81,-4.61,0.7,-1.59,-1.46,-2.58,15.875,-1.8125,514.3125,0.45947265625,0.67041015625,0.2952880859375,0.0217,-16.25,17.6875,-24.625,8.4,-3.14,Walking,2
6.81,6.753473717,24,3,3,3,0,-331.0,7.25,-4.67,0.62,-1.15,-1.52,-1.44,19.3125,-3.25,513.625,0.4583740234375,0.671142578125,0.29644775390625,0.0217,-16.25,17.6875,-24.5625,8.41,-3.14,Walking,2
6.81,6.753473717,24,3,3,3,0,-331.0,7.25,-4.67,0.62,-1.15,-1.52,-1.44,19.3125,-3.25,513.625,0.4583740234375,0.671142578125,0.29644775390625,0.0217,-16.25,17.6875,-24.5625,8.41,-3.14,Walking,2
6.82,6.76873861,24,3,3,3,0,-334.0,7.6,-4.65,0.58,-0.8,-1.49,-0.09,23.75,-5.3125,512.375,0.4573974609375,0.67236328125,0.29718017578125,0.0217,-16.25,17.6875,-24.5625,8.4,-3.16,Walking,2
6.83,6.76873861,24,3,3,3,0,-324.0,8.33,-4.44,0.67,-0.06,-1.25,1.07,25.875,-6.625,510.6875,0.4566650390625,0.6739501953125,0.29754638671875,0.0217,-16.25,17.6875,-24.5,8.39,-3.19,Walking,2
6.83,6.78511894,24,3,3,3,0,-312.0,8.75,-4.38,0.79,0.36,-1.16,1.42,25.3125,-6.125,509.0,0.45599365234375,0.675537109375,0.2977294921875,0.0217,-16.25,17.6875,-24.5,8.39,-3.22,Walking,2
6.85,6.78511894,24,3,3,3,0,-306.0,9.21,-4.42,0.85,0.82,-1.18,0.78,21.1875,-4.75,507.625,0.45538330078125,0.6767578125,0.298095703125,0.021,-16.25,20.0,-24.4375,8.38,-3.24,Walking,2
6.86,6.815217288,24,3,3,3,0,-309.0,9.73,-4.64,0.81,1.35,-1.39,-0.48,14.4375,-2.875,506.9375,0.4547119140625,0.67742919921875,0.29876708984375,0.021,-16.25,20.0,-24.4375,8.38,-3.24,Walking,2
6.87,6.815217288,24,3,3,3,0,-331.0,10.85,-5.78,0.59,2.46,-2.54,-1.77,6.6875,-1.375,507.0,0.4539794921875,0.677490234375,0.29962158203125,0.021,-16.25,20.0,-24.4375,8.38,-3.23,Walking,2
6.88,6.829273969,24,3,3,3,0,-344.0,11.36,-6.42,0.46,2.96,-3.2,-2.31,0.25,-0.6875,507.625,0.45330810546875,0.6771240234375,0.3004150390625,0.021,-16.25,20.0,-24.4375,8.39,-3.21,Walking,2
6.89,6.829273969,24,3,3,3,0,-351.0,11.76,-6.84,0.39,3.36,-3.64,-1.69,-2.0,-0.9375,508.1875,0.452880859375,0.67681884765625,0.30096435546875,0.021,-16.25,20.0,-24.4375,8.4,-3.19,Walking,2
6.9,6.843762536,24,3,3,3,0,-369.0,12.05,-6.62,0.21,3.64,-3.42,-0.23,1.125,-2.6875,508.25,0.45263671875,0.67694091796875,0.30096435546875,0.0212,-17.0,22.6875,-24.4375,8.4,-3.19,Walking,2
6.91,6.843762536,24,3,3,3,0,-409.0,12.06,-6.23,-0.17,3.66,-3.02,1.18,4.75,-4.6875,507.75,0.4525146484375,0.677490234375,0.30047607421875,0.0212,-17.0,22.6875,-24.5,8.39,-3.21,Walking,2
6.91,6.858349246,24,3,3,3,0,-479.0,12.33,-5.94,-0.86,3.95,-2.71,1.94,3.8125,-6.4375,507.1875,0.45257568359375,0.67822265625,0.2996826171875,0.0212,-17.0,22.6875,-24.5,8.38,-3.23,Walking,2
6.92,6.858349246,24,3,3,3,0,-551.0,12.54,-5.89,-1.57,4.18,-2.64,2.65,-1.4375,-8.3125,506.8125,0.452880859375,0.678955078125,0.29827880859375,0.0212,-17.0,22.6875,-24.625,8.36,-3.25,Walking,2
6.93,6.88880937,24,3,3,3,0,-630.0,12.5,-6.15,-2.34,4.15,-2.86,3.79,-6.125,-11.6875,506.5625,0.453369140625,0.67974853515625,0.296142578125,0.0212,-17.0,22.6875,-24.75,8.34,-3.28,Walking,2
6.95,6.88880937,24,3,3,3,0,-621.0,12.34,-5.94,-2.22,4.03,-2.61,5.05,-8.375,-14.875,506.1875,0.45404052734375,0.6807861328125,0.29327392578125,0.0212,-16.5625,23.5,-24.875,8.31,-3.32,Walking,2
6.96,6.90409534,24,3,3,3,0,-606.0,12.12,-5.47,-2.05,3.83,-2.1,5.58,-8.625,-17.125,505.6875,0.45477294921875,0.6820068359375,0.29010009765625,0.0212,-16.5625,23.5,-25.0625,8.28,-3.37,Walking,2
6.97,6.90409534,24,3,3,3,0,-595.0,12.05,-4.95,-1.91,3.8,-1.54,5.03,-10.3125,-17.375,505.5,0.45538330078125,0.68304443359375,0.287109375,0.0212,-16.5625,23.5,-25.25,8.25,-3.41,Walking,2
6.98,6.919052819,24,3,3,3,0,-595.0,11.56,-4.35,-1.87,3.33,-0.91,4.09,-13.125,-16.125,505.625,0.45587158203125,0.68377685546875,0.28436279296875,0.0212,-16.5625,23.5,-25.4375,8.22,-3.43,Walking,2
6.99,6.919052819,24,3,3,3,0,-587.0,10.84,-4.13,-1.76,2.64,-0.67,3.49,-12.1875,-14.9375,505.875,0.45623779296875,0.68438720703125,0.28192138671875,0.0212,-16.5625,23.5,-25.625,8.2,-3.46,Walking,2
6.99,6.948830325,24,3,3,3,0,-563.0,10.08,-3.6,-1.5,1.9,-0.11,3.37,-9.0,-13.6875,505.875,0.45654296875,0.68505859375,0.27972412109375,0.0222,-17.0,23.5,-25.8125,8.18,-3.48,Walking,2
7.0,6.948830325,24,3,3,3,0,-539.0,9.48,-2.96,-1.24,1.32,0.54,3.5,-7.25,-11.8125,505.6875,0.45697021484375,0.68572998046875,0.277587890625,0.0222,-17.0,23.5,-25.9375,8.15,-3.51,Walking,2
7.01,6.963004601,24,3,3,3,0,-482.0,8.45,-1.82,-0.65,0.31,1.7,3.28,-7.875,-10.3125,505.625,0.4573974609375,0.68634033203125,0.275634765625,0.0222,-17.0,23.5,-26.0625,8.13,-3.53,Walking,2
7.03,6.963004601,24,3,3,3,0,-447.0,8.0,-1.33,-0.27,-0.11,2.21,2.56,-8.3125,-9.0,505.6875,0.457763671875,0.68670654296875,0.27392578125,0.0222,-17.0,23.5,-26.1875,8.12,-3.55,Walking,2
7.04,6.978278283,24,3,3,3,0,-424.0,7.62,-0.91,-0.03,-0.49,2.63,1.37,-7.5,-7.125,505.9375,0.4578857421875,0.6868896484375,0.2728271484375,0.0222,-17.0,23.5,-26.25,8.11,-3.55,Walking,2
7.05,6.978278283,24,3,3,3,0,-423.0,7.0,-0.17,-0.01,-1.09,3.38,0.18,-3.9375,-5.1875,506.25,0.457763671875,0.68695068359375,0.2723388671875,0.0217,-17.0,23.5,-26.3125,8.1,-3.55,Walking,2
7.06,7.025113935,24,3,3,3,0,-439.0,6.78,0.07,-0.17,-1.32,3.62,-0.81,2.6875,-4.0,506.375,0.45721435546875,0.68707275390625,0.2725830078125,0.0217,-17.0,23.5,-26.3125,8.1,-3.55,Walking,2
7.07,7.025113935,24,3,3,3,0,-464.0,6.62,0.25,-0.42,-1.49,3.8,-1.5,11.125,-3.5,506.1875,0.45635986328125,0.6875,0.2734375,0.0217,-17.0,23.5,-26.3125,8.11,-3.54,Walking,2
7.08,7.030381758,24,3,3,3,0,-499.0,6.61,0.45,-0.78,-1.49,3.99,-1.95,18.875,-4.1875,505.625,0.455078125,0.68817138671875,0.2747802734375,0.0217,-17.0,23.5,-26.3125,8.11,-3.54,Walking,2
7.08,7.030381758,24,3,3,3,0,-532.0,6.68,0.35,-1.11,-1.43,3.89,-2.07,24.25,-5.4375,504.8125,0.45361328125,0.68914794921875,0.27630615234375,0.0217,-17.0,23.5,-26.25,8.12,-3.54,Walking,2
7.09,7.038239464,24,3,3,3,0,-520.0,6.78,0.12,-1.0,-1.33,3.66,-2.47,26.1875,-6.75,503.9375,0.451904296875,0.69012451171875,0.2779541015625,0.0214,-16.5625,21.875,-26.1875,8.12,-3.54,Walking,2
7.1,7.038239464,24,3,3,3,0,-520.0,6.78,0.12,-1.0,-1.33,3.66,-2.47,26.1875,-6.75,503.9375,0.451904296875,0.69012451171875,0.2779541015625,0.0214,-16.5625,21.875,-26.1875,8.12,-3.54,Walking,2
7.11,7.054652794,24,3,3,3,0,-507.0,7.11,-0.2,-0.87,-1.01,3.31,-3.58,23.4375,-7.75,503.625,0.44989013671875,0.69091796875,0.2799072265625,0.0214,-16.5625,21.875,-26.1875,8.13,-3.52,Walking,2
7.12,7.054652794,24,3,3,3,0,-496.0,7.67,-0.69,-0.77,-0.47,2.79,-5.01,16.375,-8.0625,504.0625,0.44769287109375,0.691162109375,0.2821044921875,0.0214,-16.5625,21.875,-26.1875,8.14,-3.49,Walking,2
7.13,7.08436422,24,3,3,3,0,-449.0,8.6,-2.43,-0.29,0.43,1.0,-6.47,9.0,-8.0,505.375,0.44525146484375,0.69085693359375,0.2845458984375,0.0214,-16.5625,21.875,-26.25,8.16,-3.44,Walking,2
7.14,7.08436422,24,3,3,3,0,-429.0,8.82,-3.7,-0.08,0.63,-0.33,-7.97,4.6875,-7.1875,507.25,0.4425048828125,0.6900634765625,0.28741455078125,0.0214,-16.5625,21.875,-26.25,8.18,-3.37,Walking,2
7.15,7.098510379,24,3,3,3,0,-431.0,9.04,-4.73,-0.09,0.83,-1.43,-8.9,1.6875,-5.9375,509.5,0.439697265625,0.68896484375,0.29058837890625,0.0217,-16.5625,24.5625,-26.3125,8.21,-3.29,Walking,2
7.16,7.098510379,24,3,3,3,0,-426.0,9.19,-5.17,-0.04,0.95,-1.94,-7.98,7.5625,-5.8125,511.125,0.43695068359375,0.688232421875,0.29364013671875,0.0217,-16.5625,24.5625,-26.375,8.24,-3.22,Walking,2
7.17,7.114669233,24,3,3,3,0,-400.0,8.7,-4.38,0.21,0.45,-1.18,-4.94,22.9375,-6.9375,511.125,0.43463134765625,0.688720703125,0.29608154296875,0.0217,-16.5625,24.5625,-26.3125,8.25,-3.2,Walking,2
7.17,7.114669233,24,3,3,3,0,-375.0,8.2,-3.6,0.45,-0.04,-0.39,-1.62,35.875,-8.1875,509.5625,0.4327392578125,0.6903076171875,0.29766845703125,0.0217,-16.5625,24.5625,-26.3125,8.25,-3.21,Walking,2
7.19,7.143200198,24,3,3,3,0,-357.0,7.7,-2.78,0.61,-0.54,0.45,-0.37,40.3125,-7.6875,507.375,0.43115234375,0.6922607421875,0.29901123046875,0.0217,-16.5625,24.5625,-26.1875,8.24,-3.23,Walking,2
7.2,7.143200198,24,3,3,3,0,-340.0,6.81,-1.74,0.77,-1.43,1.51,-1.2,36.9375,-5.9375,505.5625,0.429443359375,0.69390869140625,0.30059814453125,0.0222,-16.6875,25.75,-26.125,8.24,-3.25,Walking,2
7.21,7.159172733,24,3,3,3,0,-327.0,6.38,-1.66,0.9,-1.87,1.58,-2.94,29.5,-4.0625,504.5,0.42767333984375,0.69482421875,0.3026123046875,0.0222,-16.6875,25.75,-26.0625,8.25,-3.24,Walking,2
