timestamp,android_nano_timestamp,temperature,calib_mag,calib_accel,calib_gyro,calib_sys,acc_x,acc_y,acc_z,lacc_x,lacc_y,lacc_z,gyro_x,gyro_y,gyro_z,quat_w,quat_x,quat_y,quat_z,mag_x,mag_y,mag_z,gravity_x,gravity_y,gravity_z,label,person
0.48,0.432638957,23,3,3,3,2,-955.0,1.98,2.42,-0.09,0.49,0.35,0.99,4.875,-4.0625,379.25,-0.4993896484375,0.380615234375,0.6845703125,0.0178,-11.0625,25.875,-59.125,1.48,2.07,climb_up,7
0.49,0.432638957,23,3,3,3,2,-945.0,2.03,2.4,0.01,0.55,0.34,1.12,5.125,-4.75,379.6875,-0.49957275390625,0.3809814453125,0.6839599609375,0.0178,-11.0625,25.875,-59.1875,1.47,2.06,climb_up,7
0.5,0.434653849,23,3,3,3,2,-920.0,1.96,2.19,0.27,0.49,0.14,1.22,5.3125,-4.8125,380.125,-0.49981689453125,0.38140869140625,0.68328857421875,0.0178,-11.0625,25.875,-59.1875,1.47,2.05,climb_up,7
0.51,0.434653849,23,3,3,3,2,-905.0,1.96,2.08,0.42,0.49,0.04,1.32,5.8125,-5.5,380.625,-0.5001220703125,0.38189697265625,0.6826171875,0.0178,-11.5,25.0,-59.1875,1.46,2.04,climb_up,7
0.52,0.443892619,23,3,3,3,2,-891.0,1.97,2.12,0.56,0.51,0.1,1.56,7.3125,-6.125,381.1875,-0.50042724609375,0.3824462890625,0.6817626953125,0.0178,-11.5,25.0,-59.25,1.45,2.02,climb_up,7
0.53,0.443892619,23,3,3,3,2,-891.0,2.01,2.19,0.56,0.55,0.18,1.67,9.0,-7.125,381.75,-0.5008544921875,0.38299560546875,0.6807861328125,0.0178,-11.5,25.0,-59.25,1.45,2.0,climb_up,7
0.54,0.473947306,23,3,3,3,2,-921.0,1.92,1.99,0.27,0.47,0.0,1.6,8.6875,-8.0,382.375,-0.50128173828125,0.383544921875,0.6798095703125,0.0178,-11.5,25.0,-59.3125,1.44,1.99,climb_up,7
0.55,0.473947306,23,3,3,3,2,-929.0,1.8,1.85,0.2,0.37,-0.13,1.57,5.6875,-9.0625,383.1875,-0.5015869140625,0.3839111328125,0.678955078125,0.0178,-11.5,25.0,-59.3125,1.43,1.98,climb_up,7
0.56,0.487636027,23,3,3,3,2,-927.0,1.79,1.74,0.22,0.37,-0.22,1.71,2.875,-10.375,384.1875,-0.50177001953125,0.38421630859375,0.6781005859375,0.0203,-10.75,25.875,-59.375,1.41,1.97,climb_up,7
0.57,0.487636027,23,3,3,3,2,-899.0,1.83,1.81,0.5,0.43,-0.14,1.94,2.5625,-11.8125,385.375,-0.501953125,0.384521484375,0.67718505859375,0.0203,-10.75,25.875,-59.375,1.4,1.96,climb_up,7
0.58,0.502782674,23,3,3,3,2,-891.0,1.88,1.89,0.59,0.49,-0.06,2.23,5.125,-13.125,386.625,-0.502197265625,0.3848876953125,0.67608642578125,0.0203,-10.75,25.875,-59.375,1.38,1.95,climb_up,7
0.59,0.502782674,23,3,3,3,2,-910.0,1.76,1.87,0.4,0.39,-0.05,2.57,7.6875,-14.1875,387.9375,-0.50262451171875,0.385498046875,0.67474365234375,0.0203,-10.75,25.875,-59.4375,1.36,1.93,climb_up,7
0.6,0.533583577,23,3,3,3,2,-932.0,1.52,1.83,0.2,0.16,-0.08,3.04,7.375,-15.1875,389.3125,-0.5028076171875,0.3863525390625,0.67333984375,0.0203,-10.75,25.875,-59.5,1.35,1.92,climb_up,7
0.61,0.533583577,23,3,3,3,2,-955.0,1.13,1.77,-0.03,-0.2,-0.12,3.55,5.4375,-16.1875,391.0625,-0.5029296875,0.38714599609375,0.67181396484375,0.0186,-11.5,26.5625,-59.5,1.33,1.9,climb_up,7
0.62,0.549752401,23,3,3,3,2,-955.0,0.93,1.8,-0.02,-0.37,-0.09,4.05,4.75,-17.8125,393.125,-0.5029296875,0.38800048828125,0.670166015625,0.0186,-11.5,26.5625,-59.5625,1.31,1.89,climb_up,7
0.63,0.549752401,23,3,3,3,2,-941.0,0.8,1.88,0.12,-0.48,0.0,4.53,6.625,-19.9375,395.3125,-0.5030517578125,0.38897705078125,0.66827392578125,0.0186,-11.5,26.5625,-59.5625,1.28,1.87,climb_up,7
0.64,0.563017985,23,3,3,3,2,-919.0,0.74,2.04,0.35,-0.51,0.19,5.02,11.375,-22.75,397.6875,-0.50341796875,0.39019775390625,0.6658935546875,0.0186,-11.5,26.5625,-59.625,1.26,1.84,climb_up,7
0.65,0.563017985,23,3,3,3,2,-901.0,0.62,2.17,0.53,-0.6,0.36,5.49,16.4375,-25.4375,400.1875,-0.50408935546875,0.39166259765625,0.66314697265625,0.0186,-11.5,26.5625,-59.6875,1.23,1.81,climb_up,7
0.66,0.594621745,23,3,3,3,2,-879.0,0.55,2.21,0.77,-0.64,0.43,5.97,18.375,-27.625,402.875,-0.50482177734375,0.3931884765625,0.66015625,0.0175,-10.75,27.375,-59.8125,1.19,1.77,climb_up,7
0.67,0.594621745,23,3,3,3,2,-850.0,0.47,2.25,1.07,-0.68,0.51,6.41,18.0625,-29.375,405.75,-0.5054931640625,0.39483642578125,0.65692138671875,0.0175,-10.75,27.375,-59.875,1.15,1.73,climb_up,7
0.68,0.60774585,23,3,3,3,2,-829.0,0.32,2.17,1.3,-0.79,0.47,6.8,16.6875,-30.6875,408.875,-0.5059814453125,0.396484375,0.6536865234375,0.0175,-10.75,27.375,-59.9375,1.12,1.7,climb_up,7
0.69,0.60774585,23,3,3,3,2,-845.0,-0.05,1.75,1.14,-1.13,0.09,7.0,15.75,-32.0,412.1875,-0.5064697265625,0.39813232421875,0.65032958984375,0.0175,-10.75,27.375,-60.0,1.08,1.66,climb_up,7
0.7,0.623262858,23,3,3,3,2,-879.0,-0.09,1.63,0.81,-1.12,0.0,6.94,14.25,-33.125,415.5625,-0.50689697265625,0.399658203125,0.64703369140625,0.0175,-10.75,27.375,-60.0625,1.03,1.63,climb_up,7
0.71,0.623262858,23,3,3,3,2,-922.0,-0.03,1.62,0.39,-1.02,0.01,6.71,12.3125,-33.875,418.9375,-0.50726318359375,0.40093994140625,0.64385986328125,0.0175,-11.0625,27.6875,-60.125,0.99,1.6,climb_up,7
0.72,0.653035522,23,3,3,3,2,-960.0,0.16,1.79,0.02,-0.78,0.21,6.28,10.9375,-33.8125,422.25,-0.5076904296875,0.40203857421875,0.6407470703125,0.0175,-11.0625,27.6875,-60.1875,0.94,1.58,climb_up,7
0.73,0.653035522,23,3,3,3,2,-1029.0,0.48,2.72,-0.65,-0.41,1.17,5.55,12.8125,-33.5625,425.3125,-0.50830078125,0.4029541015625,0.63775634765625,0.0175,-11.0625,27.6875,-60.25,0.89,1.55,climb_up,7
0.74,0.667813639,23,3,3,3,2,-1040.0,0.5,3.26,-0.75,-0.34,1.74,4.65,17.4375,-33.5625,427.9375,-0.5093994140625,0.4036865234375,0.634765625,0.0175,-11.0625,27.6875,-60.3125,0.85,1.52,climb_up,7
0.75,0.667813639,23,3,3,3,2,-1051.0,0.41,3.68,-0.85,-0.38,2.2,3.73,22.3125,-33.375,430.0625,-0.510986328125,0.404296875,0.6317138671875,0.0175,-11.0625,27.6875,-60.375,0.8,1.48,climb_up,7
0.76,0.6829493,23,3,3,3,3,-1062.0,0.32,4.01,-0.95,-0.42,2.58,3.03,24.5625,-32.4375,431.875,-0.51275634765625,0.40478515625,0.6287841796875,0.0186,-9.25,28.0625,-60.4375,0.75,1.43,climb_up,7
0.77,0.6829493,23,3,3,3,3,-1060.0,0.31,3.95,-0.92,-0.39,2.55,2.53,23.125,-31.4375,433.5625,-0.5145263671875,0.40509033203125,0.62603759765625,0.0186,-9.25,28.0625,-60.5,0.7,1.39,climb_up,7
0.78,0.713470011,23,3,3,3,3,-1044.0,0.31,3.77,-0.75,-0.34,2.4,2.09,19.125,-29.5625,435.125,-0.51611328125,0.4051513671875,0.62359619140625,0.0186,-9.25,28.0625,-60.5,0.65,1.36,climb_up,7
0.79,0.713470011,23,3,3,3,3,-1024.0,0.31,3.62,-0.55,-0.29,2.28,1.73,15.6875,-27.25,436.5625,-0.517578125,0.40509033203125,0.62152099609375,0.0186,-9.25,28.0625,-60.5625,0.61,1.33,climb_up,7
0.8,0.72768335,23,3,3,3,3,-1006.0,0.27,3.43,-0.36,-0.29,2.12,1.51,14.0625,-24.6875,437.875,-0.518798828125,0.405029296875,0.61962890625,0.0186,-9.25,28.0625,-60.625,0.57,1.3,climb_up,7
0.81,0.72768335,23,3,3,3,3,-1005.0,0.37,3.37,-0.35,-0.16,2.09,1.38,13.125,-21.6875,439.0,-0.51995849609375,0.40496826171875,0.617919921875,0.0176,-10.0,28.0625,-60.625,0.53,1.28,climb_up,7
0.82,0.742934123,23,3,3,3,3,-996.0,0.42,3.37,-0.25,-0.08,2.11,1.41,11.6875,-18.875,440.0625,-0.52093505859375,0.405029296875,0.61639404296875,0.0176,-10.0,28.0625,-60.6875,0.5,1.26,climb_up,7
0.83,0.742934123,23,3,3,3,3,-984.0,0.51,3.35,-0.12,0.03,2.1,1.42,9.6875,-16.25,441.0,-0.52166748046875,0.40509033203125,0.61505126953125,0.0176,-10.0,28.0625,-60.6875,0.48,1.25,climb_up,7
0.84,0.772990356,23,3,3,3,3,-937.0,0.73,3.33,0.34,0.27,2.09,1.41,8.375,-13.5,441.875,-0.52227783203125,0.4052734375,0.61383056640625,0.0176,-10.0,28.0625,-60.6875,0.45,1.23,climb_up,7
0.85,0.772990356,23,3,3,3,3,-913.0,0.79,3.22,0.58,0.35,2.0,1.26,9.0625,-11.375,442.5625,-0.5228271484375,0.405517578125,0.61273193359375,0.0176,-10.0,28.0625,-60.75,0.44,1.22,climb_up,7
0.86,0.80290214,23,3,3,3,3,-897.0,0.81,3.05,0.75,0.39,1.85,0.95,10.9375,-9.25,442.9375,-0.52349853515625,0.40582275390625,0.6116943359375,0.0176,-10.0,28.0625,-60.75,0.42,1.2,climb_up,7
0.87,0.80290214,23,3,3,3,3,-883.0,0.79,2.8,0.89,0.37,1.62,0.64,13.375,-7.0,443.0625,-0.5242919921875,0.40618896484375,0.61065673828125,0.0176,-10.0,28.0625,-60.75,0.41,1.17,climb_up,7
0.88,0.805991659,23,3,3,3,3,-866.0,0.53,2.21,1.06,0.12,1.06,0.68,16.5625,-4.5,442.875,-0.525146484375,0.40679931640625,0.609619140625,0.0176,-10.0,28.0625,-60.8125,0.4,1.15,climb_up,7
0.89,0.805991659,23,3,3,3,3,-870.0,0.37,1.99,1.02,-0.02,0.87,0.86,21.125,-3.0625,442.5625,-0.52618408203125,0.40777587890625,0.60833740234375,0.0176,-10.0,28.0625,-60.8125,0.4,1.11,climb_up,7
0.9,0.832359416,23,3,3,3,3,-856.0,0.32,1.93,1.17,-0.07,0.86,0.91,26.625,-2.9375,442.0625,-0.5274658203125,0.408935546875,0.6068115234375,0.0176,-10.0,28.0625,-60.8125,0.4,1.07,climb_up,7
0.91,0.832359416,23,3,3,3,3,-865.0,0.19,1.88,1.09,-0.2,0.86,0.74,31.75,-2.4375,441.25,-0.529052734375,0.41021728515625,0.6051025390625,0.0179,-9.25,28.0625,-60.875,0.39,1.01,climb_up,7
0.92,0.848747925,23,3,3,3,3,-881.0,0.11,1.82,0.93,-0.28,0.86,0.45,33.5625,-1.5,440.25,-0.53076171875,0.41156005859375,0.6033935546875,0.0179,-9.25,28.0625,-60.9375,0.39,0.96,climb_up,7
0.93,0.848747925,23,3,3,3,3,-886.0,0.1,1.8,0.89,-0.29,0.89,0.36,34.0,-0.125,439.125,-0.53240966796875,0.41290283203125,0.60174560546875,0.0179,-9.25,28.0625,-60.9375,0.39,0.9,climb_up,7
0.94,0.862937175,23,3,3,3,3,-879.0,0.1,1.78,0.96,-0.29,0.93,0.26,34.75,1.1875,437.875,-0.53411865234375,0.41436767578125,0.60015869140625,0.0179,-9.25,28.0625,-61.0,0.39,0.84,climb_up,7
0.95,0.862937175,23,3,3,3,3,-862.0,-0.01,1.74,1.14,-0.41,0.95,0.28,37.1875,2.3125,436.4375,-0.535888671875,0.4158935546875,0.59844970703125,0.0179,-9.25,28.0625,-61.0,0.4,0.78,climb_up,7
0.96,0.894286174,23,3,3,3,3,-849.0,-0.1,1.7,1.28,-0.5,0.99,0.36,40.5,2.9375,434.9375,-0.53778076171875,0.41766357421875,0.59661865234375,0.0173,-9.25,27.6875,-61.0625,0.4,0.71,climb_up,7
0.97,0.894286174,23,3,3,3,3,-842.0,-0.21,1.63,1.35,-0.62,0.99,0.42,44.0,3.8125,433.1875,-0.53985595703125,0.41961669921875,0.5946044921875,0.0173,-9.25,27.6875,-61.0625,0.41,0.63,climb_up,7
0.98,0.908218831,23,3,3,3,3,-834.0,-0.34,1.52,1.43,-0.76,0.96,0.42,48.0625,4.3125,431.3125,-0.54205322265625,0.42169189453125,0.5924072265625,0.0173,-9.25,27.6875,-61.125,0.42,0.55,climb_up,7
0.99,0.908218831,23,3,3,3,3,-837.0,-0.48,1.58,1.41,-0.91,1.11,0.44,52.4375,4.3125,429.25,-0.54443359375,0.4239501953125,0.59002685546875,0.0173,-9.25,27.6875,-61.125,0.42,0.46,climb_up,7
1.0,0.938879028,23,3,3,3,3,-857.0,-0.53,1.62,1.21,-0.96,1.24,0.68,56.0,4.5,427.125,-0.5469970703125,0.4263916015625,0.58734130859375,0.0173,-9.25,27.6875,-61.125,0.43,0.37,climb_up,7
1.01,0.938879028,23,3,3,3,3,-881.0,-0.58,1.65,0.97,-1.03,1.37,1.17,56.5,5.25,425.0625,-0.54937744140625,0.4290771484375,0.5845947265625,0.0178,-9.6875,30.375,-61.1875,0.44,0.27,climb_up,7
1.02,0.952357585,23,3,3,3,3,-904.0,-0.6,1.67,0.75,-1.06,1.49,1.58,55.0,6.25,423.125,-0.55157470703125,0.43182373046875,0.58184814453125,0.0178,-9.6875,30.375,-61.1875,0.45,0.18,climb_up,7
1.03,0.952357585,23,3,3,3,3,-966.0,-0.59,1.65,0.12,-1.06,1.56,1.72,52.1875,7.25,421.25,-0.55352783203125,0.43463134765625,0.57916259765625,0.0178,-9.6875,30.375,-61.1875,0.47,0.09,climb_up,7
1.04,0.98318457,23,3,3,3,3,-1003.0,-0.61,1.6,-0.23,-1.1,1.59,1.57,48.0625,8.1875,419.5,-0.5552978515625,0.43719482421875,0.5767822265625,0.0178,-9.6875,30.375,-61.1875,0.48,0.0,climb_up,7
1.05,0.98318457,23,3,3,3,3,-1011.0,-0.71,1.53,-0.32,-1.21,1.6,1.26,45.0,9.0625,417.6875,-0.556884765625,0.43963623046875,0.57464599609375,0.0178,-9.6875,30.375,-61.1875,0.49,-0.06,climb_up,7
1.06,0.986390544,23,3,3,3,3,-1102.0,-1.04,1.39,-1.23,-1.55,1.53,0.9,42.875,9.3125,415.8125,-0.5584716796875,0.44183349609375,0.57269287109375,0.0164,-11.0625,30.875,-61.1875,0.51,-0.13,climb_up,7
1.07,0.986390544,23,3,3,3,3,-1102.0,-1.04,1.39,-1.23,-1.55,1.53,0.9,42.875,9.3125,415.8125,-0.5584716796875,0.44183349609375,0.57269287109375,0.0164,-11.0625,30.875,-61.1875,0.51,-0.13,climb_up,7
1.07,0.998742269,23,3,3,3,3,-1193.0,-1.11,1.35,-2.14,-1.64,1.56,0.47,41.75,9.3125,413.875,-0.56005859375,0.44390869140625,0.5709228515625,0.0164,-11.0625,30.875,-61.125,0.53,-0.21,climb_up,7
1.08,0.998742269,23,3,3,3,3,-1272.0,-0.92,1.44,-2.93,-1.47,1.72,0.33,40.5625,10.5625,411.8125,-0.56158447265625,0.4459228515625,0.5692138671875,0.0164,-11.0625,30.875,-61.125,0.54,-0.27,climb_up,7
1.09,1.029200073,23,3,3,3,3,-1320.0,-0.45,1.63,-3.42,-1.03,1.97,0.18,38.375,15.125,409.625,-0.5628662109375,0.44805908203125,0.56787109375,0.0164,-11.0625,30.875,-61.125,0.57,-0.34,climb_up,7
1.1,1.029200073,23,3,3,3,3,-1372.0,0.56,2.3,-3.94,-0.05,2.7,-0.22,35.3125,22.5,407.0,-0.563720703125,0.4503173828125,0.56695556640625,0.0164,-11.0625,30.875,-61.0625,0.61,-0.4,climb_up,7
1.11,1.043959554,23,3,3,3,3,-1354.0,0.7,2.76,-3.77,0.03,3.21,-0.6,31.9375,30.875,404.0,-0.564208984375,0.45269775390625,0.566650390625,0.0159,-10.375,31.375,-61.0625,0.66,-0.45,climb_up,7
1.12,1.043959554,23,3,3,3,3,-1324.0,0.65,3.01,-3.47,-0.08,3.51,-1.03,29.0,38.5625,400.5625,-0.5643310546875,0.45526123046875,0.56683349609375,0.0159,-10.375,31.375,-61.0,0.73,-0.5,climb_up,7
1.13,1.058103353,23,3,3,3,3,-1334.0,0.5,2.92,-3.58,-0.3,3.47,-1.62,27.5625,44.5625,396.6875,-0.56427001953125,0.45782470703125,0.5673828125,0.0159,-10.375,31.375,-60.9375,0.8,-0.54,climb_up,7
1.14,1.058103353,23,3,3,3,3,-1388.0,0.4,2.07,-4.13,-0.49,2.66,-1.94,24.1875,49.1875,392.625,-0.5638427734375,0.46044921875,0.568359375,0.0159,-10.375,31.375,-60.875,0.89,-0.58,climb_up,7
1.15,1.072359701,23,3,3,3,3,-1420.0,0.42,1.48,-4.47,-0.55,2.09,-1.93,18.375,54.3125,388.5,-0.56298828125,0.46307373046875,0.56976318359375,0.0159,-10.375,31.375,-60.8125,0.98,-0.61,climb_up,7
1.16,1.072359701,23,3,3,3,3,-1465.0,0.68,0.58,-4.92,-0.39,1.21,-1.96,10.625,58.5625,384.5,-0.5615234375,0.4656982421875,0.57171630859375,0.0163,-10.0,33.0,-60.75,1.08,-0.63,climb_up,7
1.17,1.103313843,23,3,3,3,3,-1516.0,0.84,-0.3,-5.45,-0.34,0.32,-2.03,2.875,61.6875,380.625,-0.55950927734375,0.4681396484375,0.5740966796875,0.0163,-10.0,33.0,-60.6875,1.19,-0.63,climb_up,7
1.18,1.103313843,23,3,3,3,3,-1721.0,1.34,-1.3,-7.51,0.04,-0.68,-1.91,-0.875,61.375,376.9375,-0.55731201171875,0.470458984375,0.57666015625,0.0163,-10.0,33.0,-60.625,1.29,-0.62,climb_up,7
1.19,1.118310628,23,3,3,3,3,-1747.0,2.19,-1.45,-7.78,0.8,-0.83,-1.74,0.5,58.1875,373.4375,-0.55523681640625,0.47265625,0.5789794921875,0.0163,-10.0,33.0,-60.5,1.39,-0.62,climb_up,7
1.2,1.118310628,23,3,3,3,3,-1674.0,3.19,-1.43,-7.07,1.7,-0.8,-1.92,7.4375,54.6875,369.75,-0.55377197265625,0.47491455078125,0.58087158203125,0.0163,-10.0,33.0,-60.4375,1.48,-0.63,climb_up,7
1.21,1.14902181,23,3,3,3,3,-1615.0,4.17,-1.35,-6.5,2.59,-0.7,-2.35,15.375,52.0625,365.6875,-0.55279541015625,0.47711181640625,0.5823974609375,0.016,-10.75,33.25,-60.3125,1.57,-0.65,climb_up,7
1.22,1.14902181,23,3,3,3,3,-1405.0,5.67,-0.98,-4.41,4.01,-0.3,-2.1,20.3125,50.1875,361.5625,-0.5521240234375,0.4794921875,0.58355712890625,0.016,-10.75,33.25,-60.25,1.66,-0.68,climb_up,7
1.23,1.163133098,23,3,3,3,3,-1186.0,5.32,-0.79,-2.23,3.58,-0.08,-1.43,23.5,45.75,357.75,-0.5516357421875,0.48193359375,0.584228515625,0.016,-10.75,33.25,-60.125,1.74,-0.71,climb_up,7
1.24,1.163133098,23,3,3,3,3,-982.0,4.72,-0.91,-0.21,2.92,-0.15,-1.98,27.8125,36.875,354.0625,-0.5518798828125,0.48388671875,0.5845947265625,0.016,-10.75,33.25,-60.0,1.8,-0.75,climb_up,7
1.25,1.179254313,23,3,3,3,3,-687.0,4.1,-1.97,2.71,2.24,-1.16,-3.89,33.375,28.125,349.9375,-0.5531005859375,0.4849853515625,0.58489990234375,0.016,-10.75,33.25,-59.9375,1.85,-0.8,climb_up,7
1.26,1.179254313,23,3,3,3,3,-614.0,3.85,-2.59,3.44,1.96,-1.73,-6.27,37.5,20.875,345.3125,-0.5552978515625,0.48504638671875,0.58538818359375,0.0164,-11.0625,34.75,-59.875,1.89,-0.85,climb_up,7
1.27,1.208215821,23,3,3,3,3,-585.0,3.55,-3.17,3.71,1.62,-2.27,-8.37,38.125,14.6875,340.3125,-0.55810546875,0.48419189453125,0.586181640625,0.0164,-11.0625,34.75,-59.8125,1.92,-0.9,climb_up,7
1.28,1.208215821,23,3,3,3,3,-559.0,3.22,-3.67,3.96,1.27,-2.73,-9.12,35.1875,9.625,335.4375,-0.5611572265625,0.48272705078125,0.587158203125,0.0164,-11.0625,34.75,-59.75,1.95,-0.93,climb_up,7
1.29,1.222491496,23,3,3,3,3,-633.0,2.46,-4.45,3.21,0.49,-3.48,-8.83,30.4375,5.625,331.0625,-0.56402587890625,0.4810791015625,0.58819580078125,0.0164,-11.0625,34.75,-59.6875,1.97,-0.97,climb_up,7
1.3,1.222491496,23,3,3,3,3,-652.0,2.01,-4.67,3.02,0.03,-3.67,-8.23,26.5625,2.0625,327.25,-0.56671142578125,0.479248046875,0.589111328125,0.0164,-11.0625,34.75,-59.6875,1.98,-0.99,climb_up,7
1.31,1.237725139,23,3,3,3,3,-650.0,1.58,-4.7,3.04,-0.4,-3.68,-7.02,25.25,-1.0625,324.0,-0.56927490234375,0.47760009765625,0.58966064453125,0.0154,-11.5,36.1875,-59.625,1.99,-1.02,climb_up,7
1.32,1.237725139,23,3,3,3,3,-653.0,1.32,-4.46,3.0,-0.66,-3.4,-5.6,28.1875,-4.4375,321.25,-0.57183837890625,0.47637939453125,0.589599609375,0.0154,-11.5,36.1875,-59.625,1.99,-1.05,climb_up,7
1.33,1.252426636,23,3,3,3,3,-653.0,1.32,-4.46,3.0,-0.66,-3.4,-5.6,28.1875,-4.4375,321.25,-0.57183837890625,0.47637939453125,0.589599609375,0.0154,-11.5,36.1875,-59.625,1.99,-1.05,climb_up,7
1.33,1.252426636,23,3,3,3,3,-648.0,1.49,-3.41,3.05,-0.48,-2.3,-3.97,32.75,-7.1875,319.0,-0.57452392578125,0.4755859375,0.58880615234375,0.0154,-11.5,36.1875,-59.625,1.98,-1.1,climb_up,7
1.34,1.268435588,23,3,3,3,3,-645.0,1.81,-2.74,3.08,-0.15,-1.58,-2.85,37.875,-8.5625,316.9375,-0.5772705078125,0.47528076171875,0.58746337890625,0.0154,-11.5,36.1875,-59.5625,1.97,-1.15,climb_up,7
1.35,1.268435588,23,3,3,3,3,-642.0,2.1,-2.2,3.1,0.14,-0.97,-2.54,42.625,-8.25,314.6875,-0.5802001953125,0.4752197265625,0.58575439453125,0.0154,-11.5,36.1875,-59.5625,1.96,-1.22,climb_up,7
1.36,1.298316976,23,3,3,3,3,-636.0,2.31,-1.72,3.15,0.36,-0.43,-2.21,45.3125,-7.375,312.4375,-0.58319091796875,0.475341796875,0.58380126953125,0.0166,-11.5,36.1875,-59.5,1.95,-1.29,climb_up,7
1.37,1.298316976,23,3,3,3,3,-585.0,2.99,-0.94,3.66,1.04,0.42,-1.78,47.0625,-6.8125,310.25,-0.586181640625,0.47564697265625,0.58172607421875,0.0166,-11.5,36.1875,-59.4375,1.94,-1.36,climb_up,7
1.38,1.312837443,23,3,3,3,3,-570.0,3.25,-0.61,3.8,1.32,0.82,-1.38,46.375,-7.0,308.1875,-0.58905029296875,0.47607421875,0.57952880859375,0.0166,-11.5,36.1875,-59.375,1.93,-1.44,climb_up,7
1.39,1.312837443,23,3,3,3,3,-588.0,3.31,-0.39,3.6,1.38,1.11,-1.5,45.0625,-7.4375,306.125,-0.59185791015625,0.47637939453125,0.577392578125,0.0166,-11.5,36.1875,-59.3125,1.92,-1.51,climb_up,7
1.4,1.328335694,23,3,3,3,3,-631.0,2.98,-0.08,3.17,1.06,1.49,-1.89,42.9375,-8.0,304.125,-0.59466552734375,0.47650146484375,0.575439453125,0.0166,-11.5,36.1875,-59.25,1.91,-1.58,climb_up,7
1.41,1.328335694,23,3,3,3,3,-647.0,2.71,-0.02,3.0,0.81,1.62,-1.87,40.0,-8.1875,302.1875,-0.5972900390625,0.47650146484375,0.57366943359375,0.016,-12.875,36.5,-59.1875,1.9,-1.64,climb_up,7
1.42,1.358356649,23,3,3,3,3,-657.0,2.37,-0.03,2.89,0.48,1.66,-1.92,37.6875,-9.125,300.4375,-0.599853515625,0.47637939453125,0.57196044921875,0.016,-12.875,36.5,-59.1875,1.89,-1.7,climb_up,7
1.43,1.358356649,23,3,3,3,3,-673.0,2.13,-0.14,2.72,0.25,1.61,-2.54,38.3125,-10.0625,298.4375,-0.6025390625,0.47607421875,0.57037353515625,0.016,-12.875,36.5,-59.125,1.88,-1.75,climb_up,7
1.44,1.372433187,23,3,3,3,3,-692.0,1.72,-0.4,2.52,-0.14,1.41,-3.2,39.75,-10.9375,296.25,-0.60546875,0.47552490234375,0.56884765625,0.016,-12.875,36.5,-59.0625,1.86,-1.81,climb_up,7
1.45,1.372433187,23,3,3,3,3,-696.0,1.43,-0.57,2.47,-0.42,1.29,-3.68,39.1875,-12.625,293.9375,-0.6085205078125,0.47467041015625,0.56744384765625,0.016,-12.875,36.5,-59.0,1.85,-1.87,climb_up,7
1.46,1.387452678,23,3,3,3,3,-697.0,1.21,-0.67,2.45,-0.62,1.24,-4.21,37.0,-14.375,291.6875,-0.611572265625,0.4735107421875,0.56622314453125,0.0164,-11.5,38.0625,-58.9375,1.84,-1.92,climb_up,7
1.47,1.387452678,23,3,3,3,3,-706.0,1.0,-0.81,2.37,-0.82,1.15,-4.73,33.1875,-16.9375,289.5,-0.6146240234375,0.47198486328125,0.56524658203125,0.0164,-11.5,38.0625,-58.9375,1.82,-1.97,climb_up,7
1.48,1.402315959,23,3,3,3,3,-765.0,0.71,-0.99,1.77,-1.08,1.01,-4.64,28.625,-19.5,287.6875,-0.6175537109375,0.47021484375,0.564453125,0.0164,-11.5,38.0625,-58.875,1.8,-2.01,climb_up,7
1.49,1.402315959,23,3,3,3,3,-825.0,0.58,-1.11,1.17,-1.19,0.92,-4.27,25.0,-21.875,286.25,-0.620361328125,0.46832275390625,0.56365966796875,0.0164,-11.5,38.0625,-58.875,1.77,-2.04,climb_up,7
1.5,1.433410441,23,3,3,3,3,-893.0,0.61,-1.19,0.48,-1.12,0.88,-4.11,21.75,-23.8125,285.125,-0.62298583984375,0.46630859375,0.56292724609375,0.0164,-11.5,38.0625,-58.875,1.74,-2.07,climb_up,7
1.51,1.433410441,23,3,3,3,3,-963.0,0.89,-1.25,-0.2,-0.82,0.83,-4.26,18.0625,-23.625,284.0625,-0.62548828125,0.464111328125,0.5625,0.017,-12.5625,38.25,-58.875,1.71,-2.09,climb_up,7
1.52,1.448923381,23,3,3,3,3,-1114.0,2.14,-1.59,-1.71,0.44,0.5,-4.95,13.1875,-22.5,282.9375,-0.62774658203125,0.46173095703125,0.5625,0.017,-12.5625,38.25,-58.875,1.69,-2.1,climb_up,7
1.53,1.448923381,23,3,3,3,3,-1194.0,2.91,-1.8,-2.51,1.23,0.29,-6.02,8.4375,-19.75,281.4375,-0.6298828125,0.458984375,0.5631103515625,0.017,-12.5625,38.25,-58.9375,1.67,-2.1,climb_up,7
1.54,1.478804729,23,3,3,3,3,-1239.0,3.65,-1.9,-2.96,1.99,0.19,-6.63,3.5625,-16.6875,279.8125,-0.6317138671875,0.45611572265625,0.56414794921875,0.017,-12.5625,38.25,-58.9375,1.66,-2.09,climb_up,7
1.55,1.478804729,23,3,3,3,3,-1292.0,4.26,-2.11,-3.48,2.6,-0.03,-6.86,-1.875,-13.8125,278.1875,-0.6331787109375,0.45318603515625,0.565673828125,0.017,-12.5625,38.25,-58.9375,1.65,-2.08,climb_up,7
1.56,1.493205892,23,3,3,3,3,-1322.0,4.26,-2.29,-3.78,2.61,-0.22,-7.02,-4.1875,-10.1875,276.375,-0.6343994140625,0.4503173828125,0.5673828125,0.0158,-13.25,38.25,-59.0,1.65,-2.06,climb_up,7
1.57,1.493205892,23,3,3,3,3,-1369.0,4.45,-2.37,-4.24,2.79,-0.33,-6.88,-6.0,-5.5,274.4375,-0.63531494140625,0.44775390625,0.56927490234375,0.0158,-13.25,38.25,-59.0,1.65,-2.04,climb_up,7
1.58,1.507464315,23,3,3,3,3,-1422.0,4.63,-2.55,-4.77,2.95,-0.54,-6.57,-7.875,-0.875,272.5,-0.6358642578125,0.44549560546875,0.57135009765625,0.0158,-13.25,38.25,-59.0625,1.67,-2.01,climb_up,7
1.59,1.507464315,23,3,3,3,3,-1422.0,4.63,-2.55,-4.77,2.95,-0.54,-6.57,-7.875,-0.875,272.5,-0.6358642578125,0.44549560546875,0.57135009765625,0.0158,-13.25,38.25,-59.0625,1.67,-2.01,climb_up,7
1.59,1.523375285,23,3,3,3,3,-1490.0,4.75,-3.13,-5.45,3.05,-1.14,-6.21,-11.4375,2.3125,270.625,-0.6361083984375,0.44342041015625,0.57354736328125,0.0158,-13.25,38.25,-59.0625,1.69,-1.98,climb_up,7
1.6,1.523375285,23,3,3,3,3,-1483.0,4.37,-3.28,-5.37,2.66,-1.34,-5.3,-18.1875,3.5625,269.25,-0.63580322265625,0.4415283203125,0.575927734375,0.0158,-13.25,38.25,-59.0625,1.7,-1.94,climb_up,7
1.61,1.537734253,23,3,3,3,3,-1459.0,3.78,-3.15,-5.12,2.06,-1.26,-3.91,-26.0,2.5,268.75,-0.63494873046875,0.4398193359375,0.57843017578125,0.0173,-12.5625,36.875,-59.125,1.72,-1.89,climb_up,7
1.62,1.537734253,23,3,3,3,3,-1424.0,3.07,-2.86,-4.76,1.34,-1.03,-2.63,-32.0,-0.25,269.0625,-0.6336669921875,0.438232421875,0.580810546875,0.0173,-12.5625,36.875,-59.1875,1.72,-1.83,climb_up,7
1.63,1.568163534,23,3,3,3,3,-1292.0,1.91,-1.94,-3.43,0.18,-0.17,-1.21,-34.3125,-4.25,270.1875,-0.63226318359375,0.43682861328125,0.58294677734375,0.0173,-12.5625,36.875,-59.25,1.72,-1.77,climb_up,7
1.64,1.568163534,23,3,3,3,3,-1316.0,1.85,-1.72,-3.66,0.15,0.0,0.21,-32.375,-9.375,272.0,-0.63092041015625,0.4356689453125,0.58447265625,0.0173,-12.5625,36.875,-59.375,1.7,-1.72,climb_up,7
1.65,1.583536703,23,3,3,3,3,-1264.0,1.67,-1.56,-3.12,0.0,0.11,1.29,-29.875,-15.0,274.4375,-0.6297607421875,0.4345703125,0.58544921875,0.0173,-12.5625,36.875,-59.4375,1.68,-1.67,climb_up,7
1.66,1.583536703,23,3,3,3,3,-1102.0,1.2,-1.1,-1.49,-0.43,0.51,2.53,-32.0625,-21.3125,277.6875,-0.6285400390625,0.43341064453125,0.586181640625,0.0179,-13.25,38.375,-59.5625,1.64,-1.62,climb_up,7
1.67,1.59889266,23,3,3,3,3,-1041.0,1.89,-0.41,-0.87,0.3,1.15,2.67,-31.6875,-25.1875,281.125,-0.62744140625,0.43218994140625,0.586669921875,0.0179,-13.25,38.375,-59.625,1.59,-1.57,climb_up,7
1.68,1.59889266,23,3,3,3,3,-1080.0,2.22,-0.56,-1.24,0.67,0.97,-0.52,-18.875,-25.3125,283.0,-0.62750244140625,0.43017578125,0.58721923828125,0.0179,-13.25,38.375,-59.6875,1.55,-1.54,climb_up,7
1.69,1.628189576,23,3,3,3,3,-1114.0,2.18,-0.94,-1.58,0.67,0.58,-3.27,-2.5,-24.8125,283.25,-0.6287841796875,0.42767333984375,0.58758544921875,0.0179,-13.25,38.375,-59.75,1.51,-1.53,climb_up,7
1.7,1.628189576,23,3,3,3,3,-1137.0,1.77,-1.37,-1.8,0.28,0.16,-3.26,4.875,-22.125,283.0625,-0.63031005859375,0.425537109375,0.5875244140625,0.0179,-13.25,38.375,-59.8125,1.48,-1.53,climb_up,7
1.71,1.643536988,23,3,3,3,3,-1099.0,0.39,-2.0,-1.42,-1.06,-0.46,-1.73,2.375,-17.25,283.25,-0.63128662109375,0.424072265625,0.58740234375,0.0178,-12.5625,37.875,-59.8125,1.46,-1.53,climb_up,7
1.72,1.643536988,23,3,3,3,3,-1051.0,-0.24,-2.17,-0.93,-1.69,-0.64,-0.24,-8.5625,-12.0625,284.125,-0.63134765625,0.42315673828125,0.58770751953125,0.0178,-12.5625,37.875,-59.8125,1.44,-1.52,climb_up,7
1.73,1.657874024,23,3,3,3,3,-1015.0,-0.7,-2.37,-0.57,-2.13,-0.89,0.51,-24.5,-7.125,285.625,-0.6302490234375,0.42230224609375,0.5887451171875,0.0178,-12.5625,37.875,-59.875,1.42,-1.48,climb_up,7
1.74,1.657874024,23,3,3,3,3,-1001.0,-1.18,-3.14,-0.42,-2.6,-1.73,0.33,-41.4375,-3.0,287.5,-0.628173828125,0.4212646484375,0.59088134765625,0.0178,-12.5625,37.875,-59.9375,1.42,-1.41,climb_up,7
1.75,1.687942831,23,3,3,3,3,-994.0,-1.22,-3.68,-0.33,-2.64,-2.37,0.0,-57.0,-0.375,289.625,-0.62518310546875,0.4197998046875,0.59405517578125,0.0178,-12.5625,37.875,-60.0625,1.42,-1.31,climb_up,7
1.76,1.687942831,23,3,3,3,2,-963.0,-1.1,-4.18,0.0,-2.52,-2.98,0.85,-67.0625,0.625,292.375,-0.62158203125,0.41845703125,0.5975341796875,0.0184,-13.6875,36.25,-60.125,1.42,-1.2,climb_up,7
1.77,1.703272828,23,3,3,3,2,-904.0,-0.82,-4.36,0.59,-2.24,-3.26,2.71,-67.625,0.25,295.875,-0.61761474609375,0.41766357421875,0.60052490234375,0.0184,-13.6875,36.25,-60.25,1.41,-1.09,climb_up,7
1.78,1.703272828,23,3,3,3,2,-820.0,-0.26,-3.95,1.44,-1.67,-2.94,4.86,-57.0625,-1.5625,299.75,-0.6138916015625,0.417724609375,0.60247802734375,0.0184,-13.6875,36.25,-60.3125,1.41,-1.0,climb_up,7
1.79,1.717521566,23,3,3,3,2,-801.0,-0.16,-3.67,1.64,-1.56,-2.72,6.59,-40.375,-4.5,303.75,-0.61083984375,0.4185791015625,0.60302734375,0.0184,-13.6875,36.25,-60.375,1.39,-0.94,climb_up,7
1.8,1.717521566,23,3,3,3,2,-793.0,-0.21,-3.36,1.73,-1.58,-2.44,7.7,-24.5625,-5.9375,307.625,-0.6085205078125,0.420166015625,0.6024169921875,0.0184,-13.6875,36.25,-60.375,1.37,-0.91,climb_up,7
1.81,1.749183187,23,3,3,3,2,-809.0,-0.13,-3.0,1.57,-1.49,-2.1,7.99,-13.3125,-7.0,311.25,-0.60675048828125,0.42205810546875,0.60107421875,0.0194,-12.5,38.5625,-60.375,1.35,-0.9,climb_up,7
1.82,1.749183187,23,3,3,3,2,-831.0,0.05,-2.38,1.36,-1.28,-1.47,7.3,-5.5625,-7.8125,314.3125,-0.60552978515625,0.42388916015625,0.5994873046875,0.0194,-12.5,38.5625,-60.4375,1.33,-0.9,climb_up,7
1.83,1.763087159,23,3,3,3,2,-844.0,0.19,-1.96,1.22,-1.12,-1.04,6.57,2.1875,-8.75,316.9375,-0.6048583984375,0.4256591796875,0.59759521484375,0.0194,-12.5,38.5625,-60.4375,1.31,-0.92,climb_up,7
1.84,1.763087159,23,3,3,3,2,-839.0,0.12,-1.4,1.28,-1.16,-0.45,6.48,8.875,-10.3125,319.375,-0.6046142578125,0.42742919921875,0.5953369140625,0.0194,-12.5,38.5625,-60.4375,1.29,-0.94,climb_up,7
1.85,1.778627279,23,3,3,3,2,-839.0,0.12,-1.4,1.28,-1.16,-0.45,6.48,8.875,-10.3125,319.375,-0.6046142578125,0.42742919921875,0.5953369140625,0.0194,-12.5,38.5625,-60.4375,1.29,-0.94,climb_up,7
1.85,1.778627279,23,3,3,3,2,-788.0,-0.01,-0.75,1.78,-1.27,0.22,7.07,16.0,-11.6875,321.75,-0.604736328125,0.4295654296875,0.592529296875,0.0194,-12.5,38.5625,-60.4375,1.26,-0.98,climb_up,7
1.86,1.793224081,23,3,3,3,2,-721.0,-0.34,0.23,2.45,-1.58,1.27,7.93,23.5625,-11.4375,324.125,-0.60498046875,0.43212890625,0.589111328125,0.0197,-12.5,37.875,-60.4375,1.23,-1.03,climb_up,7
1.87,1.793224081,23,3,3,3,2,-658.0,-0.54,0.62,3.08,-1.75,1.72,8.63,29.25,-11.375,326.5,-0.60546875,0.43511962890625,0.585205078125,0.0197,-12.5,37.875,-60.4375,1.2,-1.09,climb_up,7
1.88,1.808301555,23,3,3,3,2,-598.0,-0.66,1.0,3.68,-1.83,2.16,8.61,31.75,-13.6875,328.9375,-0.6060791015625,0.43798828125,0.5810546875,0.0197,-12.5,37.875,-60.375,1.17,-1.16,climb_up,7
1.89,1.808301555,23,3,3,3,2,-643.0,-0.68,1.36,3.22,-1.82,2.58,7.49,29.875,-15.75,331.125,-0.60687255859375,0.44036865234375,0.57720947265625,0.0197,-12.5,37.875,-60.375,1.13,-1.22,climb_up,7
1.9,1.837615764,23,3,3,3,2,-627.0,-0.5,1.11,3.38,-1.6,2.38,6.82,21.3125,-15.625,333.375,-0.60736083984375,0.4422607421875,0.57403564453125,0.0197,-12.5,37.875,-60.375,1.1,-1.26,climb_up,7
1.91,1.837615764,23,3,3,3,2,-627.0,-0.42,0.56,3.38,-1.49,1.85,6.84,8.5625,-13.1875,336.0625,-0.6070556640625,0.4439697265625,0.571533203125,0.0197,-12.75,38.875,-60.375,1.06,-1.28,climb_up,7
1.92,1.852338502,23,3,3,3,2,-635.0,-0.38,-0.03,3.3,-1.43,1.25,6.93,-5.125,-9.9375,339.125,-0.60595703125,0.4454345703125,0.56982421875,0.0197,-12.75,38.875,-60.375,1.04,-1.28,climb_up,7
1.93,1.852338502,23,3,3,3,2,-640.0,-0.23,-1.06,3.26,-1.25,0.19,7.16,-18.125,-7.4375,342.6875,-0.60406494140625,0.44671630859375,0.56884765625,0.0197,-12.75,38.875,-60.4375,1.01,-1.26,climb_up,7
1.94,1.867634807,23,3,3,3,2,-643.0,-0.12,-1.38,3.24,-1.12,-0.16,7.37,-27.625,-5.4375,346.5625,-0.6015625,0.4478759765625,0.56829833984375,0.0197,-12.75,38.875,-60.4375,0.99,-1.22,climb_up,7
1.95,1.867634807,23,3,3,3,2,-662.0,0.1,-1.58,3.05,-0.87,-0.4,7.58,-30.8125,-4.375,350.5625,-0.59881591796875,0.4490966796875,0.56793212890625,0.0197,-12.75,38.875,-60.5,0.98,-1.18,climb_up,7
1.96,1.897908041,23,3,3,3,2,-681.0,0.41,-1.61,2.87,-0.54,-0.47,7.98,-29.3125,-3.125,354.5625,-0.59600830078125,0.45050048828125,0.5673828125,0.019,-12.0625,39.6875,-60.5625,0.96,-1.14,climb_up,7
1.97,1.897908041,23,3,3,3,2,-702.0,0.97,-1.4,2.67,0.01,-0.29,8.34,-24.0625,-1.5,358.375,-0.59326171875,0.4522705078125,0.5665283203125,0.019,-12.0625,39.6875,-60.5625,0.95,-1.1,climb_up,7
1.98,1.913887574,23,3,3,3,2,-701.0,1.18,-1.33,2.68,0.24,-0.24,8.46,-16.75,0.25,361.875,-0.5908203125,0.454345703125,0.5653076171875,0.019,-12.0625,39.6875,-60.625,0.94,-1.08,climb_up,7
1.99,1.913887574,23,3,3,3,2,-704.0,1.35,-1.26,2.65,0.41,-0.18,8.47,-9.6875,2.9375,364.9375,-0.588623046875,0.456787109375,0.56378173828125,0.019,-12.0625,39.6875,-60.625,0.93,-1.08,climb_up,7
2.0,1.928844483,23,3,3,3,2,-722.0,1.3,-1.21,2.47,0.36,-0.13,8.44,-4.3125,5.875,367.5625,-0.58648681640625,0.45953369140625,0.56207275390625,0.019,-12.0625,39.6875,-60.625,0.93,-1.08,climb_up,7
2.01,1.928844483,23,3,3,3,2,-750.0,0.86,-1.23,2.19,-0.08,-0.14,8.08,-1.25,8.6875,369.875,-0.58453369140625,0.46240234375,0.5604248046875,0.0202,-12.1875,40.0,-60.625,0.94,-1.08,climb_up,7
2.02,1.958292685,23,3,3,3,2,-812.0,0.52,-1.26,1.57,-0.42,-0.16,7.55,-0.5,11.0,371.75,-0.58258056640625,0.46527099609375,0.558837890625,0.0202,-12.1875,40.0,-60.5625,0.95,-1.09,climb_up,7
2.03,1.958292685,23,3,3,3,2,-873.0,0.34,-1.17,0.96,-0.61,-0.07,7.58,-2.25,11.25,373.75,-0.58050537109375,0.46807861328125,0.557373046875,0.0202,-12.1875,40.0,-60.5625,0.96,-1.1,climb_up,7
2.04,1.972541138,23,3,3,3,2,-890.0,0.45,-0.67,0.79,-0.51,0.43,7.44,-2.625,10.9375,375.75,-0.57843017578125,0.4708251953125,0.55596923828125,0.0202,-12.1875,40.0,-60.5625,0.97,-1.1,climb_up,7
2.05,1.972541138,23,3,3,3,2,-903.0,0.52,-0.58,0.65,-0.45,0.52,6.28,-2.25,11.875,377.3125,-0.57659912109375,0.47320556640625,0.5548095703125,0.0202,-12.1875,40.0,-60.5625,0.98,-1.1,climb_up,7
2.06,1.988458415,23,3,3,3,2,-935.0,0.61,-0.59,0.33,-0.38,0.51,4.65,-2.3125,12.8125,378.25,-0.57501220703125,0.4752197265625,0.55413818359375,0.0191,-11.5,42.0,-60.5625,0.99,-1.1,climb_up,7
2.07,1.988458415,23,3,3,3,2,-978.0,0.66,-0.51,-0.09,-0.35,0.59,3.19,-2.875,14.0,378.75,-0.57366943359375,0.47674560546875,0.55389404296875,0.0191,-11.5,42.0,-60.5625,1.01,-1.1,climb_up,7
2.08,2.01822286,23,3,3,3,2,-1074.0,0.64,-0.39,-1.05,-0.39,0.7,2.3,-5.3125,16.4375,378.875,-0.572265625,0.47808837890625,0.55413818359375,0.0191,-11.5,42.0,-60.5,1.04,-1.09,climb_up,7
2.09,2.01822286,23,3,3,3,2,-1113.0,0.53,-0.4,-1.44,-0.54,0.68,1.73,-9.0,18.625,378.9375,-0.5706787109375,0.479248046875,0.5546875,0.0191,-11.5,42.0,-60.5,1.07,-1.08,climb_up,7
2.1,2.032583741,23,3,3,3,2,-1141.0,0.46,-0.42,-1.73,-0.63,0.63,1.31,-12.8125,20.125,378.875,-0.5689697265625,0.480224609375,0.5556640625,0.0191,-11.5,42.0,-60.5,1.1,-1.06,climb_up,7
2.11,2.032583741,23,3,3,3,2,-1141.0,0.46,-0.42,-1.73,-0.63,0.63,1.31,-12.8125,20.125,378.875,-0.5689697265625,0.480224609375,0.5556640625,0.0191,-11.5,42.0,-60.5,1.1,-1.06,climb_up,7
2.12,2.035868531,23,3,3,3,2,-1189.0,0.54,-0.43,-2.21,-0.59,0.6,1.09,-16.1875,21.1875,378.875,-0.56707763671875,0.4810791015625,0.55682373046875,0.0203,-12.5625,41.5,-60.5,1.13,-1.03,climb_up,7
2.12,2.035868531,23,3,3,3,2,-1327.0,0.96,-0.26,-3.58,-0.2,0.74,0.83,-17.1875,22.4375,378.8125,-0.56512451171875,0.48187255859375,0.55816650390625,0.0203,-12.5625,41.5,-60.5,1.17,-1.01,climb_up,7
2.13,2.079658285,23,3,3,3,2,-1371.0,1.07,-0.03,-4.03,-0.14,0.94,0.28,-15.4375,24.25,378.375,-0.56329345703125,0.482666015625,0.55963134765625,0.0203,-12.5625,41.5,-60.5,1.21,-0.98,climb_up,7
2.14,2.079658285,23,3,3,3,2,-1405.0,1.13,0.23,-4.37,-0.13,1.19,-0.61,-11.375,27.125,377.3125,-0.56170654296875,0.4833984375,0.561279296875,0.0203,-12.5625,41.5,-60.4375,1.26,-0.96,climb_up,7
2.15,2.082974203,23,3,3,3,2,-1494.0,1.23,0.38,-5.27,-0.08,1.33,-1.75,-4.875,30.0625,375.5,-0.560546875,0.48419189453125,0.56292724609375,0.0203,-12.5625,41.5,-60.4375,1.31,-0.95,climb_up,7
2.16,2.082974203,23,3,3,3,2,-1443.0,0.97,0.61,-4.77,-0.39,1.56,-2.92,2.0625,31.875,372.875,-0.5599365234375,0.48486328125,0.56463623046875,0.0196,-11.875,41.875,-60.375,1.37,-0.95,climb_up,7
2.17,2.107872356,23,3,3,3,2,-1386.0,0.99,0.49,-4.21,-0.43,1.45,-3.62,7.875,31.4375,369.8125,-0.5596923828125,0.48553466796875,0.566162109375,0.0196,-11.875,41.875,-60.3125,1.42,-0.96,climb_up,7
2.18,2.107872356,23,3,3,3,2,-1373.0,1.44,0.05,-4.08,-0.03,1.03,-3.63,9.625,27.5,366.875,-0.5596923828125,0.48602294921875,0.5675048828125,0.0196,-11.875,41.875,-60.25,1.47,-0.97,climb_up,7
2.19,2.122742921,23,3,3,3,2,-1325.0,2.24,-0.46,-3.61,0.71,0.5,-3.46,2.75,24.25,364.5,-0.55950927734375,0.4862060546875,0.569091796875,0.0196,-11.875,41.875,-60.1875,1.52,-0.97,climb_up,7
2.2,2.122742921,23,3,3,3,2,-1148.0,3.48,-1.81,-1.84,1.91,-0.86,-3.52,-9.125,21.8125,362.6875,-0.55877685546875,0.48590087890625,0.57110595703125,0.0196,-11.875,41.875,-60.1875,1.56,-0.94,climb_up,7
2.21,2.137744345,23,3,3,3,3,-1035.0,3.59,-2.36,-0.71,1.99,-1.46,-3.48,-23.9375,19.9375,361.625,-0.55743408203125,0.48504638671875,0.5738525390625,0.0199,-12.6875,41.5,-60.1875,1.59,-0.9,climb_up,7
2.22,2.137744345,23,3,3,3,3,-937.0,3.6,-2.82,0.26,1.97,-1.99,-3.86,-37.3125,19.625,361.0625,-0.55548095703125,0.483642578125,0.5772705078125,0.0199,-12.6875,41.5,-60.1875,1.63,-0.83,climb_up,7
2.23,2.168564169,23,3,3,3,3,-818.0,3.66,-3.37,1.44,1.99,-2.62,-4.91,-43.0,20.4375,360.3125,-0.55340576171875,0.481689453125,0.581298828125,0.0199,-12.6875,41.5,-60.1875,1.67,-0.75,climb_up,7
2.24,2.168564169,23,3,3,3,3,-784.0,3.72,-3.52,1.78,2.0,-2.85,-6.06,-42.8125,20.6875,359.25,-0.551513671875,0.47943115234375,0.5855712890625,0.0199,-12.6875,41.5,-60.1875,1.71,-0.66,climb_up,7
2.25,2.18304126,23,3,3,3,3,-773.0,3.63,-3.54,1.89,1.88,-2.95,-7.0,-38.5,19.75,357.6875,-0.550048828125,0.47698974609375,0.58984375,0.0199,-12.6875,41.5,-60.1875,1.74,-0.58,climb_up,7
2.26,2.18304126,23,3,3,3,3,-757.0,3.31,-3.39,2.05,1.52,-2.87,-7.02,-32.5,18.0625,356.0,-0.5489501953125,0.474609375,0.59381103515625,0.0199,-13.0,41.0625,-60.125,1.78,-0.52,climb_up,7
2.27,2.197917969,23,3,3,3,3,-750.0,2.98,-2.82,2.12,1.16,-2.36,-6.34,-25.875,15.6875,354.3125,-0.54815673828125,0.47247314453125,0.59716796875,0.0199,-13.0,41.0625,-60.125,1.81,-0.46,climb_up,7
2.28,2.197917969,23,3,3,3,3,-783.0,3.02,-2.46,1.78,1.18,-2.04,-5.96,-17.0625,13.4375,352.5,-0.5478515625,0.470703125,0.59991455078125,0.0199,-13.0,41.0625,-60.125,1.83,-0.42,climb_up,7
2.29,2.229494508,23,3,3,3,3,-822.0,3.3,-1.98,1.39,1.44,-1.57,-5.67,-6.875,12.1875,350.375,-0.54803466796875,0.46917724609375,0.60205078125,0.0199,-13.0,41.0625,-60.0625,1.86,-0.4,climb_up,7
2.3,2.229494508,23,3,3,3,3,-833.0,3.7,-1.44,1.27,1.81,-1.05,-4.62,2.25,11.9375,348.1875,-0.54852294921875,0.46832275390625,0.60345458984375,0.0199,-13.0,41.0625,-60.0625,1.88,-0.39,climb_up,7
2.31,2.243247926,23,3,3,3,3,-783.0,4.12,-0.17,1.77,2.22,0.23,-3.05,9.8125,11.5625,346.25,-0.54913330078125,0.46820068359375,0.6041259765625,0.0208,-13.375,40.1875,-60.0625,1.9,-0.4,climb_up,7
2.32,2.243247926,23,3,3,3,3,-757.0,3.82,0.4,2.03,1.9,0.83,-1.9,18.6875,10.875,344.25,-0.550048828125,0.4686279296875,0.60400390625,0.0208,-13.375,40.1875,-60.0,1.92,-0.43,climb_up,7
2.33,2.25790149,23,3,3,3,3,-741.0,3.34,0.82,2.18,1.4,1.3,-1.86,29.6875,9.625,341.9375,-0.551513671875,0.4693603515625,0.60333251953125,0.0208,-13.375,40.1875,-60.0,1.94,-0.48,climb_up,7
2.34,2.25790149,23,3,3,3,3,-729.0,2.98,1.16,2.29,1.02,1.7,-2.32,41.625,8.0,339.0,-0.5538330078125,0.47021484375,0.6021728515625,0.0208,-13.375,40.1875,-59.9375,1.95,-0.54,climb_up,7
2.35,2.288206706,23,3,3,3,3,-659.0,2.82,1.52,2.99,0.85,2.15,-2.64,51.625,5.8125,335.6875,-0.5567626953125,0.4710693359375,0.60052490234375,0.0208,-13.375,40.1875,-59.875,1.96,-0.62,climb_up,7
2.36,2.288206706,23,3,3,3,3,-640.0,2.94,1.67,3.17,0.97,2.39,-3.34,59.0,4.3125,331.9375,-0.56024169921875,0.471923828125,0.5986328125,0.0204,-13.375,41.0,-59.8125,1.97,-0.71,climb_up,7
2.37,2.291250896,23,3,3,3,3,-640.0,2.94,1.67,3.17,0.97,2.39,-3.34,59.0,4.3125,331.9375,-0.56024169921875,0.471923828125,0.5986328125,0.0204,-13.375,41.0,-59.8125,1.97,-0.71,climb_up,7
2.37,2.291250896,23,3,3,3,3,-618.0,3.05,1.63,3.37,1.05,2.45,-5.15,63.8125,4.25,327.375,-0.5643310546875,0.47222900390625,0.596923828125,0.0204,-13.375,41.0,-59.75,1.99,-0.81,climb_up,7
2.38,2.348907675,23,3,3,3,3,-567.0,2.55,0.89,3.88,0.55,1.79,-8.07,63.375,4.5625,321.875,-0.56878662109375,0.47161865234375,0.59600830078125,0.0204,-13.375,41.0,-59.6875,2.0,-0.9,climb_up,7
2.39,2.348907675,23,3,3,3,3,-543.0,2.04,0.27,4.11,0.01,1.25,-10.7,56.75,5.0,315.8125,-0.5733642578125,0.46990966796875,0.5960693359375,0.0204,-13.375,41.0,-59.625,2.02,-0.97,climb_up,7
2.4,2.362404623,23,3,3,3,3,-530.0,1.41,-0.41,4.22,-0.63,0.6,-12.51,48.25,4.8125,309.5,-0.5777587890625,0.4674072265625,0.59698486328125,0.0204,-13.375,41.0,-59.5625,2.04,-1.02,climb_up,7
2.41,2.362404623,23,3,3,3,3,-539.0,0.73,-1.21,4.13,-1.33,-0.15,-13.31,41.0625,4.375,303.25,-0.58184814453125,0.46435546875,0.59844970703125,0.0208,-13.0,42.0625,-59.5,2.07,-1.06,climb_up,7
2.42,2.365550172,23,3,3,3,3,-584.0,0.1,-2.41,3.66,-1.98,-1.31,-12.72,36.6875,3.3125,297.375,-0.585693359375,0.4613037109375,0.599853515625,0.0208,-13.0,42.0625,-59.4375,2.09,-1.09,climb_up,7
2.43,2.365550172,23,3,3,3,3,-602.0,0.16,-2.65,3.48,-1.94,-1.52,-11.15,35.625,1.5,292.1875,-0.5892333984375,0.4586181640625,0.60089111328125,0.0208,-13.0,42.0625,-59.4375,2.1,-1.12,climb_up,7
2.44,2.377579631,23,3,3,3,3,-624.0,0.19,-2.59,3.26,-1.92,-1.42,-9.13,36.625,-0.8125,287.6875,-0.59259033203125,0.45648193359375,0.60125732421875,0.0208,-13.0,42.0625,-59.375,2.11,-1.16,climb_up,7
2.45,2.377579631,23,3,3,3,3,-637.0,0.23,-2.28,3.12,-1.88,-1.06,-7.04,37.0625,-2.6875,284.0,-0.595703125,0.4549560546875,0.60101318359375,0.0208,-13.0,42.0625,-59.3125,2.12,-1.21,climb_up,7
2.46,2.393114706,23,3,3,3,3,-685.0,0.49,-1.66,2.63,-1.62,-0.4,-5.71,35.6875,-5.5625,280.9375,-0.59869384765625,0.45367431640625,0.60040283203125,0.0208,-13.375,41.0,-59.3125,2.12,-1.25,climb_up,7
2.47,2.393114706,23,3,3,3,3,-748.0,0.8,-1.55,2.0,-1.3,-0.25,-5.24,32.8125,-9.125,278.3125,-0.60150146484375,0.4522705078125,0.59979248046875,0.0208,-13.375,41.0,-59.25,2.11,-1.3,climb_up,7
2.48,2.408042603,23,3,3,3,3,-826.0,1.24,-1.49,1.21,-0.86,-0.15,-5.21,29.625,-11.4375,276.0,-0.60430908203125,0.45062255859375,0.5992431640625,0.0208,-13.375,41.0,-59.25,2.1,-1.33,climb_up,7
2.49,2.408042603,23,3,3,3,3,-922.0,1.74,-1.48,0.25,-0.33,-0.11,-5.2,25.9375,-13.5625,273.9375,-0.60693359375,0.4488525390625,0.59881591796875,0.0208,-13.375,41.0,-59.25,2.08,-1.36,climb_up,7
2.5,2.438477499,23,3,3,3,3,-1063.0,2.37,-1.44,-1.15,0.31,-0.05,-5.37,23.0625,-15.9375,272.0,-0.60955810546875,0.44677734375,0.59857177734375,0.0208,-13.375,41.0,-59.25,2.06,-1.39,climb_up,7
2.51,2.438477499,23,3,3,3,3,-1141.0,2.89,-1.44,-1.92,0.84,-0.02,-5.37,22.4375,-17.6875,270.25,-0.6121826171875,0.44464111328125,0.5982666015625,0.02,-14.0625,41.375,-59.25,2.04,-1.42,climb_up,7
2.52,2.452720623,23,3,3,3,3,-1238.0,3.31,-1.32,-2.9,1.29,0.12,-4.83,24.3125,-18.9375,268.625,-0.6148681640625,0.44256591796875,0.59765625,0.02,-14.0625,41.375,-59.25,2.02,-1.45,climb_up,7
2.53,2.452720623,23,3,3,3,3,-1406.0,3.94,-1.02,-4.58,1.94,0.45,-4.36,27.0,-21.0,267.1875,-0.61773681640625,0.440673828125,0.5968017578125,0.02,-14.0625,41.375,-59.25,1.99,-1.48,climb_up,7
2.54,2.470035971,23,3,3,3,3,-1442.0,4.08,-0.6,-4.94,2.12,0.91,-3.84,28.5625,-23.8125,266.0,-0.62066650390625,0.43878173828125,0.59564208984375,0.02,-14.0625,41.375,-59.25,1.96,-1.52,climb_up,7
2.55,2.470035971,23,3,3,3,3,-1473.0,3.95,-0.08,-5.24,2.03,1.48,-2.99,30.9375,-27.6875,265.1875,-0.623779296875,0.43701171875,0.59405517578125,0.02,-14.0625,41.375,-59.25,1.92,-1.56,climb_up,7
2.56,2.498772828,23,3,3,3,3,-1479.0,3.54,0.42,-5.3,1.66,2.04,-2.21,34.875,-32.1875,264.75,-0.6270751953125,0.435302734375,0.5919189453125,0.02,-13.75,41.375,-59.25,1.87,-1.62,climb_up,7
2.57,2.498772828,23,3,3,3,3,-1467.0,3.39,1.07,-5.18,1.57,2.76,-1.87,40.0625,-37.3125,264.5,-0.630859375,0.43359375,0.58935546875,0.02,-13.75,41.375,-59.25,1.81,-1.68,climb_up,7
2.58,2.516105877,23,3,3,3,3,-1446.0,3.56,0.95,-4.97,1.81,2.7,-1.88,39.625,-40.875,264.4375,-0.6346435546875,0.43157958984375,0.58673095703125,0.02,-13.75,41.375,-59.25,1.75,-1.74,climb_up,7
2.59,2.516105877,23,3,3,3,3,-1401.0,3.58,0.57,-4.52,1.9,2.36,-1.64,26.0625,-42.875,265.125,-0.6378173828125,0.42926025390625,0.584716796875,0.02,-13.75,41.375,-59.3125,1.68,-1.78,climb_up,7
2.6,2.527748658,23,3,3,3,3,-1385.0,3.31,-0.17,-4.34,1.69,1.6,-0.76,1.75,-43.4375,267.0,-0.6396484375,0.4266357421875,0.58380126953125,0.02,-13.75,41.375,-59.375,1.61,-1.78,climb_up,7
2.61,2.527748658,23,3,3,3,3,-1261.0,1.98,-1.86,-3.08,0.44,-0.11,0.62,-25.0625,-43.375,270.5,-0.639892578125,0.42388916015625,0.5841064453125,0.0208,-14.0,42.0,-59.5,1.54,-1.74,climb_up,7
2.62,2.559146038,23,3,3,3,3,-1224.0,1.52,-2.45,-2.69,0.05,-0.78,1.98,-46.3125,-43.5,275.1875,-0.6387939453125,0.4210205078125,0.585205078125,0.0208,-14.0,42.0,-59.6875,1.46,-1.67,climb_up,7
2.63,2.559146038,23,3,3,3,3,-1224.0,1.52,-2.45,-2.69,0.05,-0.78,1.98,-46.3125,-43.5,275.1875,-0.6387939453125,0.4210205078125,0.585205078125,0.0208,-14.0,42.0,-59.6875,1.46,-1.67,climb_up,7
2.64,2.562352133,23,3,3,3,3,-1228.0,1.35,-3.0,-2.71,-0.02,-1.41,2.87,-55.0,-43.125,280.5625,-0.63714599609375,0.418212890625,0.58660888671875,0.0208,-14.0,42.0,-59.8125,1.38,-1.58,climb_up,7
2.64,2.562352133,23,3,3,3,3,-1251.0,1.21,-3.31,-2.91,-0.1,-1.81,3.42,-54.875,-41.0,285.9375,-0.63531494140625,0.41571044921875,0.587890625,0.0208,-14.0,42.0,-60.0,1.31,-1.49,climb_up,7
2.65,2.588079469,23,3,3,3,3,-1256.0,0.15,-3.59,-2.93,-1.08,-2.17,3.76,-50.375,-37.9375,291.125,-0.63348388671875,0.41357421875,0.58892822265625,0.0208,-14.0,42.0,-60.125,1.24,-1.41,climb_up,7
2.66,2.588079469,23,3,3,3,3,-1233.0,-0.57,-3.72,-2.69,-1.75,-2.37,4.19,-47.625,-34.875,296.1875,-0.63165283203125,0.41180419921875,0.5897216796875,0.02,-13.6875,41.25,-60.25,1.17,-1.34,climb_up,7
2.67,2.602991659,23,3,3,3,3,-1182.0,-1.39,-3.93,-2.16,-2.51,-2.67,4.89,-51.1875,-31.4375,301.5,-0.62933349609375,0.41033935546875,0.5906982421875,0.02,-13.6875,41.25,-60.375,1.11,-1.26,climb_up,7
2.68,2.602991659,23,3,3,3,3,-1134.0,-1.9,-4.2,-1.66,-2.96,-3.03,6.0,-58.75,-28.375,307.25,-0.6263427734375,0.4091796875,0.591796875,0.02,-13.6875,41.25,-60.4375,1.06,-1.17,climb_up,7
2.69,2.617696738,23,3,3,3,3,-1054.0,-1.76,-4.39,-0.85,-2.77,-3.32,7.45,-64.6875,-26.3125,313.5625,-0.6226806640625,0.408447265625,0.59295654296875,0.02,-13.6875,41.25,-60.5625,1.01,-1.07,climb_up,7
2.7,2.617696738,23,3,3,3,3,-1019.0,-1.24,-4.23,-0.48,-2.19,-3.26,8.78,-63.875,-24.5625,320.25,-0.6187744140625,0.40826416015625,0.59381103515625,0.02,-13.6875,41.25,-60.6875,0.95,-0.97,climb_up,7
2.71,2.648881633,23,3,3,3,2,-1000.0,-0.43,-3.93,-0.28,-1.34,-3.05,9.67,-55.0,-23.375,326.875,-0.6151123046875,0.4085693359375,0.593994140625,0.0212,-14.0,41.5,-60.75,0.9,-0.88,climb_up,7
2.72,2.648881633,23,3,3,3,2,-962.0,0.91,-3.28,0.11,0.04,-2.45,9.73,-42.125,-20.8125,332.8125,-0.6119384765625,0.409423828125,0.593505859375,0.0212,-14.0,41.5,-60.8125,0.86,-0.82,climb_up,7
2.73,2.663119264,23,3,3,3,2,-951.0,1.27,-2.87,0.22,0.44,-2.08,8.86,-28.9375,-17.125,337.8125,-0.6094970703125,0.41058349609375,0.592529296875,0.0212,-14.0,41.5,-60.875,0.82,-0.78,climb_up,7
2.74,2.663119264,23,3,3,3,2,-928.0,1.42,-2.44,0.45,0.62,-1.68,7.53,-17.5,-13.3125,341.75,-0.60772705078125,0.41180419921875,0.59136962890625,0.0212,-14.0,41.5,-60.875,0.79,-0.76,climb_up,7
2.75,2.678929282,23,3,3,3,2,-899.0,1.41,-1.89,0.75,0.63,-1.14,6.23,-8.1875,-9.125,344.625,-0.60650634765625,0.4130859375,0.59014892578125,0.0212,-14.0,41.5,-60.875,0.77,-0.75,climb_up,7
2.76,2.678929282,23,3,3,3,2,-845.0,1.04,-0.88,1.28,0.28,-0.12,5.13,1.1875,-5.0625,346.5625,-0.60577392578125,0.41448974609375,0.5887451171875,0.0219,-11.5,40.375,-60.875,0.76,-0.76,climb_up,7
2.77,2.707740764,23,3,3,3,2,-797.0,0.64,-0.18,1.76,-0.11,0.59,4.49,8.8125,-1.625,347.875,-0.60546875,0.4161376953125,0.58721923828125,0.0219,-11.5,40.375,-60.875,0.75,-0.77,climb_up,7
2.78,2.707740764,23,3,3,3,2,-729.0,0.39,0.75,2.44,-0.36,1.56,4.4,15.25,1.0625,348.6875,-0.60540771484375,0.41802978515625,0.58544921875,0.0219,-11.5,40.375,-60.875,0.75,-0.8,climb_up,7
2.79,2.722842774,23,3,3,3,2,-675.0,0.16,1.52,2.98,-0.59,2.37,4.27,25.75,2.0,349.0625,-0.60589599609375,0.4202880859375,0.58319091796875,0.0219,-11.5,40.375,-60.8125,0.75,-0.85,climb_up,7
2.8,2.722842774,23,3,3,3,2,-595.0,0.3,1.86,3.77,-0.44,2.79,3.15,38.1875,1.5625,348.625,-0.607177734375,0.4224853515625,0.5804443359375,0.0219,-11.5,40.375,-60.8125,0.75,-0.92,climb_up,7
2.81,2.737708334,23,3,3,3,2,-565.0,0.44,1.65,4.06,-0.31,2.66,1.18,46.375,0.125,347.3125,-0.60931396484375,0.42425537109375,0.57769775390625,0.0219,-12.1875,40.75,-60.75,0.75,-1.0,climb_up,7
2.82,2.737708334,23,3,3,3,2,-538.0,0.43,1.38,4.32,-0.32,2.46,-0.11,44.375,0.25,345.5625,-0.611572265625,0.425537109375,0.57537841796875,0.0219,-12.1875,40.75,-60.6875,0.75,-1.07,climb_up,7
2.83,2.76846871,23,3,3,3,2,-510.0,0.21,1.09,4.6,-0.54,2.22,0.04,32.75,2.0625,344.1875,-0.61309814453125,0.42657470703125,0.57366943359375,0.0219,-12.1875,40.75,-60.6875,0.75,-1.13,climb_up,7
2.84,2.76846871,23,3,3,3,2,-418.0,-0.45,0.53,5.52,-1.21,1.7,0.69,18.3125,4.3125,343.5,-0.61376953125,0.42755126953125,0.57269287109375,0.0219,-12.1875,40.75,-60.625,0.76,-1.16,climb_up,7
2.85,2.783474732,23,3,3,3,2,-389.0,-0.77,0.0,5.8,-1.54,1.18,0.98,7.6875,6.1875,343.25,-0.61370849609375,0.42840576171875,0.57220458984375,0.0219,-12.1875,40.75,-60.625,0.77,-1.18,climb_up,7
2.86,2.783474732,23,3,3,3,2,-375.0,-1.05,-0.66,5.95,-1.83,0.51,1.26,0.375,7.25,343.3125,-0.61322021484375,0.42919921875,0.5721435546875,0.0209,-12.1875,40.75,-60.625,0.78,-1.18,climb_up,7
2.87,2.798361858,23,3,3,3,2,-427.0,-1.22,-1.64,5.42,-2.01,-0.47,1.89,-4.5625,7.5625,343.75,-0.61236572265625,0.4300537109375,0.5721435546875,0.0209,-12.1875,40.75,-60.625,0.79,-1.17,climb_up,7
2.88,2.798361858,23,3,3,3,2,-457.0,-0.95,-1.81,5.12,-1.75,-0.64,2.8,-8.0,7.375,344.6875,-0.61114501953125,0.43109130859375,0.5721435546875,0.0209,-12.1875,40.75,-60.625,0.8,-1.16,climb_up,7
2.89,2.813451173,23,3,3,3,2,-457.0,-0.95,-1.81,5.12,-1.75,-0.64,2.8,-8.0,7.375,344.6875,-0.61114501953125,0.43109130859375,0.5721435546875,0.0209,-12.1875,40.75,-60.625,0.8,-1.16,climb_up,7
2.9,2.813451173,23,3,3,3,2,-502.0,-0.65,-1.84,4.67,-1.46,-0.69,3.94,-10.6875,7.1875,346.0625,-0.609619140625,0.432373046875,0.57196044921875,0.0209,-12.1875,40.75,-60.625,0.8,-1.14,climb_up,7
2.9,2.828647014,23,3,3,3,2,-532.0,-0.3,-1.7,4.37,-1.12,-0.57,5.45,-12.9375,6.9375,348.0625,-0.60772705078125,0.43408203125,0.57159423828125,0.0209,-12.1875,40.75,-60.625,0.81,-1.13,climb_up,7
2.91,2.828647014,23,3,3,3,2,-544.0,0.46,-1.16,4.26,-0.35,-0.05,7.21,-15.5625,6.875,350.75,-0.6053466796875,0.43621826171875,0.5709228515625,0.0209,-11.0625,42.25,-60.625,0.81,-1.11,climb_up,7
2.92,2.85831539,23,3,3,3,2,-606.0,0.73,-1.11,3.64,-0.08,-0.01,8.09,-15.0625,6.5,353.75,-0.60284423828125,0.4385986328125,0.5699462890625,0.0209,-11.0625,42.25,-60.6875,0.81,-1.09,climb_up,7
2.93,2.85831539,23,3,3,3,2,-690.0,1.0,-1.18,2.8,0.18,-0.1,7.92,-12.125,6.0,356.5625,-0.60052490234375,0.4410400390625,0.56884765625,0.0209,-11.0625,42.25,-60.6875,0.81,-1.08,climb_up,7
2.94,2.872678671,23,3,3,3,2,-761.0,1.24,-1.26,2.1,0.42,-0.19,7.21,-9.8125,6.125,359.0625,-0.59844970703125,0.44329833984375,0.56781005859375,0.0209,-11.0625,42.25,-60.6875,0.82,-1.07,climb_up,7
2.95,2.872678671,23,3,3,3,2,-946.0,1.2,-1.39,0.24,0.37,-0.33,6.2,-9.375,7.75,361.125,-0.59649658203125,0.4453125,0.56707763671875,0.0209,-11.0625,42.25,-60.6875,0.82,-1.06,climb_up,7
2.96,2.887837281,23,3,3,3,2,-1053.0,1.3,-1.4,-0.82,0.46,-0.35,5.34,-10.625,9.5625,362.875,-0.59454345703125,0.4471435546875,0.56658935546875,0.0205,-10.75,40.75,-60.6875,0.83,-1.04,climb_up,7
2.97,2.887837281,23,3,3,3,2,-1219.0,1.39,-1.4,-2.48,0.54,-0.37,4.43,-10.375,11.75,364.125,-0.59271240234375,0.44879150390625,0.56640625,0.0205,-10.75,40.75,-60.6875,0.85,-1.03,climb_up,7
2.98,2.917701824,23,3,3,3,2,-1382.0,1.51,-1.37,-4.1,0.64,-0.35,3.19,-8.375,13.5,364.875,-0.5911865234375,0.4501953125,0.56646728515625,0.0205,-10.75,40.75,-60.6875,0.87,-1.02,climb_up,7
2.99,2.917701824,23,3,3,3,2,-1674.0,1.26,-1.28,-7.03,0.37,-0.26,1.73,-3.875,14.4375,364.875,-0.590087890625,0.45135498046875,0.56671142578125,0.0205,-10.75,40.75,-60.6875,0.89,-1.01,climb_up,7
3.01,2.93292326,23,3,3,3,2,-1714.0,1.12,-1.18,-7.43,0.2,-0.15,0.31,3.3125,13.5,364.125,-0.58966064453125,0.4522705078125,0.56683349609375,0.0205,-10.75,40.75,-60.625,0.91,-1.02,climb_up,7
3.01,2.93292326,23,3,3,3,2,-1680.0,1.06,-1.02,-7.09,0.12,0.02,-0.89,14.125,13.6875,362.5625,-0.5899658203125,0.453125,0.5667724609375,0.0215,-10.75,40.0,-60.625,0.93,-1.04,climb_up,7
3.02,2.947731202,23,3,3,3,2,-1571.0,0.79,0.24,-6.01,-0.17,1.33,-1.55,25.4375,15.75,360.25,-0.5909423828125,0.4542236328125,0.56634521484375,0.0215,-10.75,40.0,-60.5625,0.96,-1.08,climb_up,7
3.03,2.947731202,23,3,3,3,2,-1520.0,0.66,1.07,-5.51,-0.33,2.22,-2.15,35.9375,18.75,357.125,-0.59234619140625,0.45562744140625,0.5655517578125,0.0215,-10.75,40.0,-60.5,1.0,-1.14,climb_up,7
3.04,2.978418051,23,3,3,3,2,-1453.0,0.5,1.86,-4.86,-0.54,3.08,-2.55,40.9375,23.1875,353.4375,-0.59393310546875,0.457275390625,0.5648193359375,0.0215,-10.75,40.0,-60.4375,1.04,-1.21,climb_up,7
3.05,2.978418051,23,3,3,3,2,-1369.0,0.33,2.37,-4.03,-0.75,3.65,-2.86,37.25,27.625,349.5625,-0.59521484375,0.45892333984375,0.56439208984375,0.0215,-10.75,40.0,-60.375,1.09,-1.27,climb_up,7
3.07,2.993034588,23,3,3,3,2,-1261.0,0.72,2.27,-2.96,-0.42,3.57,-3.96,23.75,31.125,345.75,-0.59588623046875,0.46002197265625,0.5650634765625,0.0212,-11.5,40.375,-60.3125,1.15,-1.3,climb_up,7
3.08,2.993034588,23,3,3,3,2,-1248.0,1.24,1.5,-2.84,0.02,2.8,-5.39,2.0,35.0625,342.0625,-0.59552001953125,0.46026611328125,0.5673828125,0.0212,-11.5,40.375,-60.25,1.21,-1.3,climb_up,7
3.09,3.014926515,23,3,3,3,2,-1220.0,1.5,0.44,-2.56,0.2,1.7,-6.15,-21.1875,39.5625,338.9375,-0.593994140625,0.45977783203125,0.5711669921875,0.0212,-11.5,40.375,-60.1875,1.29,-1.25,climb_up,7
3.1,3.014926515,23,3,3,3,2,-1145.0,1.28,-0.68,-1.81,-0.09,0.5,-6.17,-39.9375,44.0,336.25,-0.59136962890625,0.45892333984375,0.5760498046875,0.0212,-11.5,40.375,-60.1875,1.37,-1.18,climb_up,7
3.1,3.037798748,23,3,3,3,2,-1090.0,-0.23,-2.13,-1.26,-1.7,-1.04,-5.98,-50.125,47.375,333.9375,-0.5880126953125,0.45806884765625,0.58148193359375,0.0212,-11.5,40.375,-60.1875,1.46,-1.08,climb_up,7
3.11,3.037798748,23,3,3,3,2,-1121.0,-0.6,-2.42,-1.57,-2.15,-1.42,-5.41,-51.3125,46.625,331.8125,-0.58447265625,0.45721435546875,0.5867919921875,0.0201,-11.5,40.0,-60.1875,1.54,-0.99,climb_up,7
3.12,3.052932862,23,3,3,3,2,-1173.0,-0.26,-2.64,-2.1,-1.88,-1.74,-4.46,-48.125,41.875,330.1875,-0.58111572265625,0.45654296875,0.591552734375,0.0201,-11.5,40.0,-60.125,1.62,-0.9,climb_up,7
3.13,3.052932862,23,3,3,3,2,-1202.0,0.79,-2.99,-2.4,-0.89,-2.16,-3.45,-44.8125,35.375,329.0,-0.5780029296875,0.4559326171875,0.59564208984375,0.0201,-11.5,40.0,-60.125,1.68,-0.82,climb_up,7
3.14,3.067815797,23,3,3,3,2,-1115.0,3.35,-3.84,-1.53,1.62,-3.1,-2.84,-43.75,28.6875,328.375,-0.5750732421875,0.45526123046875,0.599365234375,0.0201,-11.5,40.0,-60.125,1.73,-0.74,climb_up,7
3.15,3.067815797,23,3,3,3,2,-1115.0,3.35,-3.84,-1.53,1.62,-3.1,-2.84,-43.75,28.6875,328.375,-0.5750732421875,0.45526123046875,0.599365234375,0.0201,-11.5,40.0,-60.125,1.73,-0.74,climb_up,7
3.16,3.083025677,23,3,3,3,2,-1013.0,4.01,-4.07,-0.51,2.23,-3.41,-2.61,-46.125,23.375,328.125,-0.5721435546875,0.4542236328125,0.60296630859375,0.0201,-11.5,40.0,-60.125,1.77,-0.66,climb_up,7
3.17,3.083025677,23,3,3,3,2,-924.0,4.32,-4.13,0.37,2.51,-3.55,-2.74,-48.9375,20.4375,328.1875,-0.56927490234375,0.4530029296875,0.606689453125,0.0212,-12.1875,39.25,-60.125,1.81,-0.57,climb_up,7
3.18,3.098209108,23,3,3,3,2,-865.0,4.35,-4.05,0.96,2.5,-3.57,-3.58,-48.0,20.4375,327.875,-0.5665283203125,0.45147705078125,0.61053466796875,0.0212,-12.1875,39.25,-60.0625,1.84,-0.48,climb_up,7
3.18,3.098209108,23,3,3,3,2,-828.0,3.89,-3.43,1.32,2.0,-3.02,-4.82,-42.75,21.375,326.875,-0.56427001953125,0.44970703125,0.6143798828125,0.0212,-12.1875,39.25,-60.0625,1.88,-0.4,climb_up,7
3.19,3.128450725,23,3,3,3,2,-811.0,3.58,-2.9,1.49,1.66,-2.57,-5.75,-36.375,21.75,325.375,-0.56243896484375,0.44781494140625,0.6181640625,0.0212,-12.1875,39.25,-60.0625,1.92,-0.33,climb_up,7
3.2,3.128450725,23,3,3,3,2,-797.0,3.22,-2.37,1.62,1.26,-2.1,-6.03,-29.9375,20.6875,323.5,-0.56109619140625,0.44598388671875,0.6217041015625,0.0212,-12.1875,39.25,-60.0,1.96,-0.26,climb_up,7
3.21,3.143622967,23,3,3,3,2,-741.0,3.0,-1.43,2.18,1.0,-1.21,-5.8,-21.6875,18.25,321.5625,-0.5601806640625,0.44427490234375,0.62469482421875,0.0219,-12.1875,38.875,-59.9375,1.99,-0.21,climb_up,7
3.22,3.143622967,23,3,3,3,2,-725.0,3.06,-0.92,2.33,1.04,-0.73,-5.1,-12.3125,16.0,319.5625,-0.55975341796875,0.4429931640625,0.626953125,0.0219,-12.1875,38.875,-59.9375,2.02,-0.18,climb_up,7
3.24,3.157810792,23,3,3,3,2,-703.0,2.94,-0.34,2.55,0.9,-0.17,-3.85,-4.25,14.375,317.6875,-0.55963134765625,0.4422607421875,0.62847900390625,0.0219,-12.1875,38.875,-59.875,2.04,-0.17,climb_up,7
3.25,3.157810792,23,3,3,3,2,-669.0,2.55,0.25,2.89,0.48,0.42,-3.01,1.9375,12.3125,316.0,-0.55975341796875,0.44189453125,0.62939453125,0.0219,-12.1875,38.875,-59.875,2.06,-0.16,climb_up,7
3.26,3.189394614,23,3,3,3,2,-582.0,2.0,1.15,3.75,-0.07,1.32,-3.15,5.875,9.9375,314.1875,-0.56024169921875,0.44146728515625,0.630126953125,0.0219,-12.1875,38.875,-59.875,2.08,-0.17,climb_up,7
3.26,3.189394614,23,3,3,3,3,-547.0,2.21,1.29,4.1,0.11,1.47,-4.13,8.1875,8.8125,312.0625,-0.56103515625,0.440673828125,0.6309814453125,0.0215,-12.875,36.1875,-59.8125,2.1,-0.17,climb_up,7
3.27,3.202546876,23,3,3,3,3,-545.0,2.07,1.23,4.11,-0.03,1.41,-5.37,9.625,7.4375,309.5625,-0.56219482421875,0.439453125,0.6319580078125,0.0215,-12.875,36.1875,-59.8125,2.11,-0.18,climb_up,7
3.29,3.202546876,23,3,3,3,3,-540.0,1.87,1.04,4.16,-0.24,1.23,-6.38,11.4375,5.9375,306.75,-0.56365966796875,0.4378662109375,0.63311767578125,0.0215,-12.875,36.1875,-59.8125,2.12,-0.18,climb_up,7
3.29,3.233160198,23,3,3,3,3,-480.0,1.52,0.77,4.76,-0.6,0.96,-6.08,11.75,4.6875,304.125,-0.56512451171875,0.43634033203125,0.63409423828125,0.0215,-12.875,36.1875,-59.75,2.13,-0.19,climb_up,7
3.31,3.233160198,23,3,3,3,3,-462.0,1.85,0.37,4.94,-0.28,0.57,-5.57,11.75,3.0625,301.75,-0.5665283203125,0.43487548828125,0.6348876953125,0.0215,-12.875,36.1875,-59.75,2.14,-0.19,climb_up,7
3.32,3.247992677,23,3,3,3,3,-457.0,2.14,-0.18,4.99,0.0,0.02,-6.13,14.875,2.5625,299.0625,-0.5682373046875,0.4332275390625,0.63568115234375,0.0215,-12.5625,36.5,-59.75,2.14,-0.2,climb_up,7
3.33,3.247992677,23,3,3,3,3,-455.0,2.11,-0.71,5.01,-0.04,-0.48,-6.22,19.4375,2.625,296.1875,-0.57025146484375,0.43170166015625,0.63623046875,0.0215,-12.5625,36.5,-59.75,2.15,-0.22,climb_up,7
3.34,3.263764161,23,3,3,3,3,-476.0,1.64,-1.13,4.8,-0.51,-0.88,-5.87,23.875,2.0,293.25,-0.5723876953125,0.43035888671875,0.636474609375,0.0215,-12.5625,36.5,-59.75,2.15,-0.25,climb_up,7
3.35,3.263764161,23,3,3,3,3,-495.0,1.59,-1.1,4.6,-0.56,-0.82,-6.46,28.5625,0.8125,290.0,-0.574951171875,0.42889404296875,0.6365966796875,0.0215,-12.5625,36.5,-59.75,2.16,-0.28,climb_up,7
3.35,3.278115236,23,3,3,3,3,-529.0,1.64,-1.05,4.26,-0.52,-0.73,-7.4,31.4375,0.5,286.4375,-0.57781982421875,0.4271240234375,0.63671875,0.0215,-12.5625,36.5,-59.6875,2.16,-0.31,climb_up,7
3.37,3.278115236,23,3,3,3,3,-597.0,1.4,-0.92,3.58,-0.76,-0.56,-7.96,32.25,0.9375,282.5625,-0.580810546875,0.4251708984375,0.636962890625,0.0209,-11.875,37.0,-59.6875,2.16,-0.35,climb_up,7
3.38,3.308427003,23,3,3,3,3,-643.0,1.12,-0.85,3.12,-1.05,-0.45,-8.04,34.6875,1.375,278.5625,-0.5838623046875,0.42327880859375,0.6370849609375,0.0209,-11.875,37.0,-59.6875,2.17,-0.39,climb_up,7
3.39,3.308427003,23,3,3,3,3,-681.0,0.86,-0.77,2.73,-1.31,-0.33,-7.54,38.25,1.5,274.5625,-0.5870361328125,0.42169189453125,0.63690185546875,0.0209,-11.875,37.0,-59.6875,2.18,-0.44,climb_up,7
3.4,3.323072714,23,3,3,3,3,-702.0,0.75,-0.61,2.52,-1.42,-0.12,-6.6,42.375,0.4375,270.75,-0.59039306640625,0.42034912109375,0.63629150390625,0.0209,-11.875,37.0,-59.625,2.18,-0.49,climb_up,7
3.4,3.323072714,23,3,3,3,3,-702.0,0.75,-0.61,2.52,-1.42,-0.12,-6.6,42.375,0.4375,270.75,-0.59039306640625,0.42034912109375,0.63629150390625,0.0209,-11.875,37.0,-59.625,2.18,-0.49,climb_up,7
3.41,3.337955568,23,3,3,3,3,-727.0,0.76,-0.27,2.26,-1.41,0.28,-5.45,45.25,-0.875,267.3125,-0.59368896484375,0.41949462890625,0.6351318359375,0.0209,-11.875,37.0,-59.625,2.18,-0.55,climb_up,7
3.42,3.337955568,23,3,3,3,3,-748.0,0.95,-0.11,2.05,-1.23,0.5,-4.49,46.5,-2.625,264.25,-0.59698486328125,0.4188232421875,0.63372802734375,0.0217,-13.25,36.1875,-59.5625,2.18,-0.62,climb_up,7
3.43,3.3528997,23,3,3,3,3,-781.0,1.2,-0.02,1.71,-0.97,0.66,-3.87,47.75,-5.0,261.4375,-0.600341796875,0.4183349609375,0.6319580078125,0.0217,-13.25,36.1875,-59.5625,2.17,-0.69,climb_up,7
3.43,3.3528997,23,3,3,3,3,-816.0,1.49,-0.05,1.37,-0.67,0.71,-3.43,49.5625,-6.625,258.8125,-0.60382080078125,0.41790771484375,0.6300048828125,0.0217,-13.25,36.1875,-59.5625,2.17,-0.76,climb_up,7
3.44,3.383573569,23,3,3,3,3,-924.0,2.04,-0.31,0.28,-0.11,0.52,-2.86,49.375,-7.9375,256.4375,-0.607177734375,0.4176025390625,0.62786865234375,0.0217,-13.25,36.1875,-59.5,2.16,-0.84,climb_up,7
3.46,3.383573569,23,3,3,3,3,-977.0,2.37,-0.49,-0.24,0.22,0.42,-2.54,47.3125,-8.875,254.25,-0.6104736328125,0.41729736328125,0.625732421875,0.0217,-13.25,36.1875,-59.5,2.14,-0.91,climb_up,7
3.47,3.398491334,23,3,3,3,2,-1032.0,2.83,-0.69,-0.8,0.7,0.29,-2.57,45.4375,-9.375,252.25,-0.6136474609375,0.4168701171875,0.62371826171875,0.0208,-12.875,35.75,-59.5,2.13,-0.98,climb_up,7
3.48,3.398491334,23,3,3,3,2,-1095.0,3.28,-0.81,-1.43,1.16,0.23,-2.2,40.75,-8.9375,250.4375,-0.616455078125,0.41650390625,0.621826171875,0.0208,-12.875,35.75,-59.4375,2.12,-1.04,climb_up,7
3.49,3.413607627,23,3,3,3,2,-1277.0,4.14,-1.02,-3.26,2.03,0.07,-1.51,36.1875,-8.5,249.0625,-0.61895751953125,0.41632080078125,0.62005615234375,0.0208,-12.875,35.75,-59.4375,2.11,-1.1,climb_up,7
3.5,3.413607627,23,3,3,3,2,-1371.0,4.37,-1.09,-4.2,2.27,0.06,-0.99,34.125,-8.25,247.875,-0.6212158203125,0.416259765625,0.61822509765625,0.0208,-12.875,35.75,-59.375,2.09,-1.16,climb_up,7
3.51,3.44364083,23,3,3,3,2,-1431.0,4.38,-1.04,-4.8,2.29,0.17,-0.69,33.0625,-9.75,246.9375,-0.6234130859375,0.41619873046875,0.61639404296875,0.0208,-12.875,35.75,-59.375,2.08,-1.21,climb_up,7
3.51,3.44364083,23,3,3,3,2,-1476.0,3.88,-0.71,-5.26,1.82,0.54,-0.49,32.0,-12.875,246.3125,-0.62567138671875,0.416015625,0.614501953125,0.0207,-12.875,38.375,-59.375,2.06,-1.26,climb_up,7
3.52,3.458842612,23,3,3,3,2,-1509.0,3.55,-0.43,-5.58,1.52,0.88,-0.2,30.25,-17.4375,246.0625,-0.62799072265625,0.4156494140625,0.612548828125,0.0207,-12.875,38.375,-59.375,2.03,-1.31,climb_up,7
3.54,3.458842612,23,3,3,3,2,-1537.0,3.36,-0.11,-5.87,1.36,1.25,0.01,28.5,-22.625,246.1875,-0.63031005859375,0.41497802734375,0.6104736328125,0.0207,-12.875,38.375,-59.375,1.99,-1.36,climb_up,7
3.55,3.489235841,23,3,3,3,2,-1552.0,3.41,0.27,-6.01,1.46,1.68,-0.12,28.375,-28.625,246.6875,-0.63287353515625,0.4139404296875,0.60833740234375,0.0207,-12.875,38.375,-59.375,1.94,-1.4,climb_up,7
3.56,3.489235841,23,3,3,3,2,-1539.0,3.67,0.83,-5.88,1.78,2.28,-0.36,29.1875,-34.75,247.3125,-0.63568115234375,0.41253662109375,0.6060791015625,0.0207,-12.875,38.375,-59.4375,1.89,-1.45,climb_up,7
3.57,3.49239205,23,3,3,3,1,-1520.0,3.65,0.85,-5.68,1.83,2.35,-0.12,25.6875,-39.25,248.4375,-0.63848876953125,0.410888671875,0.6038818359375,0.021,-12.875,38.0,-59.4375,1.82,-1.49,climb_up,7
3.58,3.49239205,23,3,3,3,1,-1489.0,3.61,0.5,-5.37,1.86,2.02,0.25,15.3125,-41.3125,250.25,-0.64068603515625,0.408935546875,0.60211181640625,0.021,-12.875,38.0,-59.5,1.75,-1.52,climb_up,7
3.59,3.517944215,23,3,3,3,1,-1405.0,3.36,-0.06,-4.51,1.67,1.45,0.56,-3.0625,-41.25,252.75,-0.64190673828125,0.40679931640625,0.60125732421875,0.021,-12.875,38.0,-59.5625,1.68,-1.52,climb_up,7
3.6,3.517944215,23,3,3,3,1,-1372.0,3.15,-1.62,-4.16,1.53,-0.13,0.99,-24.125,-40.0625,256.125,-0.64190673828125,0.40435791015625,0.6015625,0.021,-12.875,38.0,-59.6875,1.62,-1.48,climb_up,7
3.61,3.532840089,23,3,3,3,1,-1355.0,2.91,-2.32,-3.98,1.35,-0.9,1.03,-37.75,-37.5625,259.875,-0.64111328125,0.4017333984375,0.6026611328125,0.021,-12.875,38.0,-59.8125,1.55,-1.42,climb_up,7
3.62,3.532840089,23,3,3,3,1,-1305.0,2.2,-2.68,-3.45,0.7,-1.33,0.96,-42.375,-36.0,263.6875,-0.6400146484375,0.39910888671875,0.60400390625,0.021,-11.875,39.0625,-59.9375,1.49,-1.35,climb_up,7
3.63,3.562847698,23,3,3,3,1,-1244.0,1.29,-2.99,-2.83,-0.13,-1.7,1.34,-38.75,-36.8125,267.5,-0.6390380859375,0.3966064453125,0.60504150390625,0.021,-11.875,39.0625,-60.0625,1.43,-1.28,climb_up,7
3.64,3.562847698,23,3,3,3,1,-1167.0,-0.39,-3.52,-2.04,-1.75,-2.29,2.35,-33.5,-37.3125,271.5625,-0.63818359375,0.39453125,0.6055908203125,0.021,-11.875,39.0625,-60.1875,1.36,-1.23,climb_up,7
3.65,3.580851401,23,3,3,3,1,-1148.0,-0.93,-3.91,-1.83,-2.23,-2.72,3.95,-32.0625,-36.625,276.0625,-0.63714599609375,0.39306640625,0.60565185546875,0.021,-11.875,39.0625,-60.25,1.3,-1.18,climb_up,7
3.66,3.580851401,23,3,3,3,1,-1121.0,-1.24,-4.22,-1.55,-2.48,-3.09,5.77,-35.5625,-35.125,281.25,-0.6356201171875,0.3922119140625,0.6055908203125,0.021,-11.875,39.0625,-60.375,1.23,-1.13,climb_up,7
3.67,3.593236858,23,3,3,3,0,-1121.0,-1.24,-4.22,-1.55,-2.48,-3.09,5.77,-35.5625,-35.125,281.25,-0.6356201171875,0.3922119140625,0.6055908203125,0.021,-11.875,39.0625,-60.375,1.23,-1.13,climb_up,7
3.67,3.593236858,23,3,3,3,0,-1093.0,-1.38,-4.39,-1.26,-2.55,-3.32,7.57,-44.9375,-32.6875,287.3125,-0.63323974609375,0.39178466796875,0.60565185546875,0.0214,-11.875,38.6875,-60.4375,1.16,-1.06,climb_up,7
3.68,3.60773576,23,3,3,3,0,-983.0,-1.04,-4.38,-0.13,-2.15,-3.39,8.61,-55.9375,-29.375,293.875,-0.62994384765625,0.3916015625,0.606201171875,0.0214,-11.875,38.6875,-60.5625,1.11,-0.98,climb_up,7
3.69,3.60773576,23,3,3,3,0,-924.0,-0.44,-4.13,0.46,-1.49,-3.25,8.34,-62.5625,-25.0625,300.375,-0.62615966796875,0.39141845703125,0.607177734375,0.0214,-11.875,38.6875,-60.625,1.05,-0.88,climb_up,7
3.7,3.622589316,23,3,3,3,0,-874.0,0.14,-3.74,0.98,-0.87,-2.94,7.1,-60.625,-22.375,306.1875,-0.62255859375,0.3909912109375,0.6083984375,0.0214,-11.875,38.6875,-60.75,1.01,-0.79,climb_up,7
3.71,3.622589316,23,3,3,3,0,-812.0,0.85,-2.74,1.6,-0.11,-2.02,5.86,-51.375,-21.1875,311.125,-0.61956787109375,0.39044189453125,0.609375,0.0214,-11.875,38.6875,-60.8125,0.97,-0.71,climb_up,7
3.72,3.637841839,23,3,3,3,0,-788.0,0.98,-2.2,1.85,0.04,-1.55,5.03,-37.875,-19.25,315.25,-0.617431640625,0.39007568359375,0.60980224609375,0.0215,-11.1875,34.75,-60.8125,0.93,-0.65,climb_up,7
3.73,3.637841839,23,3,3,3,0,-765.0,0.92,-1.6,2.09,0.02,-0.98,4.55,-25.0625,-16.875,318.625,-0.61590576171875,0.3900146484375,0.6097412109375,0.0215,-11.1875,34.75,-60.875,0.9,-0.61,climb_up,7
3.74,3.668997316,23,3,3,3,0,-742.0,0.74,-0.93,2.32,-0.13,-0.33,4.38,-14.0625,-14.25,321.375,-0.6148681640625,0.39031982421875,0.60919189453125,0.0215,-11.1875,34.75,-60.875,0.87,-0.59,climb_up,7
3.75,3.668997316,23,3,3,3,0,-693.0,0.27,0.5,2.82,-0.57,1.09,4.22,-4.375,-12.0625,323.625,-0.61431884765625,0.39093017578125,0.608154296875,0.0215,-11.1875,34.75,-60.9375,0.85,-0.59,climb_up,7
3.76,3.685169272,23,3,3,3,0,-650.0,0.06,1.47,3.24,-0.76,2.08,3.84,5.3125,-10.375,325.3125,-0.61431884765625,0.39178466796875,0.60675048828125,0.0215,-11.1875,34.75,-60.9375,0.83,-0.6,climb_up,7
3.77,3.685169272,23,3,3,3,0,-605.0,0.01,2.41,3.7,-0.79,3.04,3.27,15.8125,-8.8125,326.375,-0.6148681640625,0.392822265625,0.60498046875,0.0222,-10.5,34.75,-60.9375,0.81,-0.63,climb_up,7
3.78,3.713503297,23,3,3,3,0,-583.0,0.13,3.09,3.91,-0.66,3.77,2.82,26.625,-7.5625,326.8125,-0.6160888671875,0.39410400390625,0.60272216796875,0.0222,-10.5,34.75,-60.875,0.8,-0.68,climb_up,7
3.79,3.713503297,23,3,3,3,0,-519.0,0.29,3.33,4.55,-0.49,4.07,2.64,34.875,-5.5,326.8125,-0.61761474609375,0.3956298828125,0.60009765625,0.0222,-10.5,34.75,-60.875,0.79,-0.74,climb_up,7
3.8,3.728881919,23,3,3,3,0,-486.0,0.2,2.8,4.87,-0.57,3.6,2.76,33.8125,-2.0625,326.6875,-0.6190185546875,0.39739990234375,0.59765625,0.0222,-10.5,34.75,-60.875,0.78,-0.8,climb_up,7
3.81,3.728881919,23,3,3,3,0,-453.0,0.18,1.97,5.2,-0.59,2.81,3.14,20.1875,2.5,326.9375,-0.619384765625,0.39910888671875,0.595947265625,0.0222,-10.5,34.75,-60.8125,0.78,-0.84,climb_up,7
3.82,3.758924806,23,3,3,3,0,-410.0,0.05,1.09,5.63,-0.74,1.94,3.44,0.5,5.75,327.8125,-0.61859130859375,0.4005126953125,0.5953369140625,0.0215,-10.875,35.25,-60.8125,0.79,-0.84,climb_up,7
3.83,3.758924806,23,3,3,3,0,-363.0,-0.34,-0.39,6.1,-1.14,0.42,3.39,-16.1875,5.9375,329.25,-0.616943359375,0.4014892578125,0.59564208984375,0.0215,-10.875,35.25,-60.8125,0.79,-0.82,climb_up,7
3.84,3.762227703,23,3,3,3,0,-355.0,-0.2,-0.95,6.19,-1.0,-0.17,3.43,-25.1875,4.8125,331.0625,-0.6148681640625,0.40216064453125,0.59637451171875,0.0215,-10.875,35.25,-60.875,0.8,-0.78,climb_up,7
3.85,3.762227703,23,3,3,3,0,-354.0,-0.04,-1.39,6.19,-0.85,-0.65,4.48,-28.0,4.0625,333.375,-0.61248779296875,0.40301513671875,0.59698486328125,0.0215,-10.875,35.25,-60.875,0.8,-0.73,climb_up,7
3.86,3.788165366,23,3,3,3,0,-424.0,0.18,-2.0,5.5,-0.62,-1.3,5.77,-27.375,4.5,336.125,-0.60986328125,0.40435791015625,0.59735107421875,0.0215,-10.875,35.25,-60.875,0.81,-0.69,climb_up,7
3.87,3.788165366,23,3,3,3,0,-504.0,0.42,-2.12,4.7,-0.38,-1.46,6.53,-24.3125,5.0625,338.9375,-0.60723876953125,0.40606689453125,0.59735107421875,0.0222,-10.5,34.5,-60.9375,0.81,-0.65,climb_up,7
3.88,3.802974245,23,3,3,3,0,-596.0,0.76,-2.04,3.78,-0.05,-1.41,6.87,-21.3125,5.0625,341.8125,-0.60467529296875,0.407958984375,0.59710693359375,0.0222,-10.5,34.5,-60.9375,0.81,-0.62,climb_up,7
3.89,3.802974245,23,3,3,3,0,-656.0,1.01,-1.87,3.18,0.19,-1.27,6.78,-19.4375,5.25,344.5,-0.60223388671875,0.40985107421875,0.59674072265625,0.0222,-10.5,34.5,-60.9375,0.82,-0.6,climb_up,7
3.9,3.833696738,23,3,3,3,0,-754.0,1.3,-1.63,2.21,0.47,-1.05,6.05,-16.25,6.25,346.8125,-0.60009765625,0.41168212890625,0.596435546875,0.0222,-10.5,34.5,-60.9375,0.82,-0.57,climb_up,7
3.91,3.833696738,23,3,3,3,0,-837.0,1.42,-1.53,1.37,0.58,-0.97,5.14,-11.4375,8.1875,348.5,-0.59820556640625,0.4134521484375,0.59613037109375,0.0222,-10.5,34.5,-60.9375,0.84,-0.56,climb_up,7
3.92,3.847551149,23,3,3,3,0,-920.0,1.41,-1.51,0.55,0.56,-0.95,4.84,-7.5,11.5625,349.8125,-0.59649658203125,0.4154052734375,0.59576416015625,0.0217,-9.75,32.875,-60.9375,0.85,-0.55,climb_up,7
3.93,3.847551149,23,3,3,3,0,-920.0,1.41,-1.51,0.55,0.56,-0.95,4.84,-7.5,11.5625,349.8125,-0.59649658203125,0.4154052734375,0.59576416015625,0.0217,-9.75,32.875,-60.9375,0.85,-0.55,climb_up,7
3.93,3.85067501,23,3,3,3,0,-1010.0,1.25,-1.42,-0.34,0.37,-0.87,5.16,-4.4375,15.4375,350.875,-0.59478759765625,0.417724609375,0.59527587890625,0.0217,-9.75,32.875,-60.9375,0.88,-0.55,climb_up,7
3.94,3.85067501,23,3,3,3,0,-1203.0,0.71,-1.07,-2.28,-0.19,-0.51,5.93,-2.0625,19.1875,351.875,-0.59283447265625,0.42059326171875,0.5946044921875,0.0217,-9.75,32.875,-60.875,0.9,-0.55,climb_up,7
3.95,3.879194785,23,3,3,3,0,-1325.0,0.35,-0.74,-3.51,-0.58,-0.18,6.97,0.25,22.0,353.0,-0.5906982421875,0.42401123046875,0.5936279296875,0.0217,-9.75,32.875,-60.875,0.94,-0.56,climb_up,7
3.96,3.879194785,23,3,3,3,0,-1438.0,0.03,-0.27,-4.64,-0.93,0.3,8.15,2.25,23.25,354.375,-0.58843994140625,0.42791748046875,0.59234619140625,0.0217,-9.75,32.875,-60.875,0.97,-0.57,climb_up,7
3.97,3.893520184,23,3,3,3,0,-1534.0,-0.26,0.47,-5.6,-1.27,1.07,8.79,4.875,21.875,355.9375,-0.58624267578125,0.4320068359375,0.5906982421875,0.0232,-10.5,33.6875,-60.8125,1.0,-0.59,climb_up,7
3.98,3.893520184,23,3,3,3,0,-1605.0,-0.61,2.07,-6.32,-1.65,2.69,8.41,11.375,18.5625,357.25,-0.58453369140625,0.43603515625,0.58868408203125,0.0232,-10.5,33.6875,-60.8125,1.03,-0.62,climb_up,7
3.99,3.923458131,23,3,3,3,0,-1591.0,-0.04,2.69,-6.18,-1.1,3.36,6.94,22.5625,15.0,357.875,-0.58380126953125,0.439697265625,0.5863037109375,0.0232,-10.5,33.6875,-60.75,1.05,-0.66,climb_up,7
4.0,3.923458131,23,3,3,3,0,-1584.0,0.58,2.87,-6.12,-0.49,3.6,4.44,34.5625,13.8125,357.25,-0.58416748046875,0.44287109375,0.58392333984375,0.0232,-10.5,33.6875,-60.75,1.07,-0.73,climb_up,7
4.01,3.937506756,23,3,3,3,0,-1587.0,1.13,2.04,-6.16,0.03,2.84,1.95,38.1875,16.25,355.5,-0.5850830078125,0.4454345703125,0.58197021484375,0.0232,-10.5,33.6875,-60.6875,1.1,-0.79,climb_up,7
4.02,3.937506756,23,3,3,3,0,-1566.0,1.35,1.54,-5.96,0.21,2.38,0.35,26.8125,21.375,353.4375,-0.5855712890625,0.44744873046875,0.5811767578125,0.0211,-9.75,34.0625,-60.625,1.13,-0.84,climb_up,7
4.03,3.953361859,23,3,3,3,0,-1519.0,1.63,1.06,-5.49,0.44,1.92,-1.15,7.0,27.9375,351.375,-0.58502197265625,0.44873046875,0.5819091796875,0.0211,-9.75,34.0625,-60.5625,1.18,-0.85,climb_up,7
4.04,3.953361859,23,3,3,3,0,-1460.0,1.96,0.44,-4.91,0.71,1.27,-3.01,-12.4375,34.875,349.0625,-0.5836181640625,0.44915771484375,0.5843505859375,0.0211,-9.75,34.0625,-60.5625,1.24,-0.83,climb_up,7
4.05,3.983983603,23,3,3,3,0,-1294.0,2.03,-1.05,-3.25,0.71,-0.27,-4.58,-26.6875,40.375,346.5625,-0.58148193359375,0.448974609375,0.5880126953125,0.0211,-9.75,34.0625,-60.5,1.31,-0.77,climb_up,7
4.06,3.983983603,23,3,3,3,0,-1244.0,1.41,-1.63,-2.76,0.01,-0.92,-5.72,-36.125,45.375,343.75,-0.57891845703125,0.44830322265625,0.59259033203125,0.0211,-9.75,34.0625,-60.5,1.39,-0.7,climb_up,7
4.07,4.01629647,23,3,3,3,1,-1244.0,0.81,-1.83,-2.76,-0.66,-1.19,-6.06,-37.8125,47.5,340.8125,-0.576171875,0.4476318359375,0.597412109375,0.0208,-10.0625,34.5,-60.4375,1.48,-0.63,climb_up,7
4.08,4.01629647,23,3,3,3,1,-1229.0,0.62,-1.88,-2.63,-0.93,-1.31,-5.47,-32.8125,43.1875,338.0625,-0.57379150390625,0.447021484375,0.60162353515625,0.0208,-10.0625,34.5,-60.375,1.55,-0.56,climb_up,7
4.09,4.019365684,23,3,3,3,1,-1167.0,2.08,-2.15,-2.01,0.46,-1.63,-4.37,-25.875,36.1875,335.75,-0.57177734375,0.4466552734375,0.60504150390625,0.0208,-10.0625,34.5,-60.3125,1.62,-0.51,climb_up,7
4.1,4.019365684,23,3,3,3,1,-1114.0,3.08,-2.26,-1.49,1.41,-1.78,-2.71,-22.9375,30.0,334.1875,-0.56988525390625,0.44659423828125,0.607666015625,0.0208,-10.0625,34.5,-60.3125,1.67,-0.47,climb_up,7
4.11,4.044334271,23,3,3,3,1,-1031.0,3.68,-2.3,-0.67,1.96,-1.87,-1.09,-26.5625,25.75,333.5,-0.567626953125,0.44671630859375,0.6099853515625,0.0208,-10.0625,34.5,-60.25,1.71,-0.42,climb_up,7
4.12,4.044334271,23,3,3,3,1,-959.0,3.93,-2.43,0.04,2.17,-2.06,-0.42,-34.6875,23.0625,333.5,-0.56500244140625,0.44677734375,0.61248779296875,0.0217,-11.0625,33.5625,-60.25,1.75,-0.36,climb_up,7
4.13,4.059052044,23,3,3,3,1,-872.0,4.04,-3.08,0.91,2.24,-2.78,-0.91,-42.25,21.5,333.75,-0.56201171875,0.4462890625,0.61541748046875,0.0217,-11.0625,33.5625,-60.1875,1.79,-0.29,climb_up,7
4.14,4.059052044,23,3,3,3,1,-837.0,3.95,-3.28,1.25,2.11,-3.07,-2.17,-48.3125,21.4375,333.8125,-0.5589599609375,0.44525146484375,0.618896484375,0.0217,-11.0625,33.5625,-60.1875,1.83,-0.2,climb_up,7
4.15,4.072654014,23,3,3,3,1,-806.0,3.74,-3.24,1.56,1.88,-3.12,-3.65,-51.5625,22.25,333.5,-0.55596923828125,0.443603515625,0.6229248046875,0.0217,-11.0625,33.5625,-60.125,1.86,-0.11,climb_up,7
4.16,4.072654014,23,3,3,3,1,-767.0,3.44,-3.0,1.94,1.53,-2.97,-4.64,-49.25,21.625,332.75,-0.55328369140625,0.44171142578125,0.6270751953125,0.0217,-11.0625,33.5625,-60.0625,1.9,-0.02,climb_up,7
4.17,4.103098228,23,3,3,3,2,-708.0,2.66,-1.99,2.52,0.72,-2.04,-4.65,-40.625,19.0625,331.875,-0.5511474609375,0.43988037109375,0.63067626953125,0.0215,-11.0625,31.25,-60.0625,1.93,0.05,climb_up,7
4.18,4.103098228,23,3,3,3,2,-679.0,2.23,-1.4,2.81,0.26,-1.51,-4.21,-28.0625,15.875,330.75,-0.54974365234375,0.4383544921875,0.63348388671875,0.0215,-11.0625,31.25,-60.0,1.96,0.11,climb_up,7
4.19,4.106259889,23,3,3,3,2,-637.0,1.9,-0.81,3.22,-0.07,-0.96,-3.4,-16.4375,12.5625,329.625,-0.5489501953125,0.4373779296875,0.63543701171875,0.0215,-11.0625,31.25,-60.0,1.98,0.14,climb_up,7
4.19,4.106259889,23,3,3,3,2,-637.0,1.9,-0.81,3.22,-0.07,-0.96,-3.4,-16.4375,12.5625,329.625,-0.5489501953125,0.4373779296875,0.63543701171875,0.0215,-11.0625,31.25,-60.0,1.98,0.14,climb_up,7
4.2,4.132797813,23,3,3,3,2,-572.0,1.56,0.28,3.86,-0.43,0.12,-2.4,-8.5625,9.625,328.6875,-0.54852294921875,0.436767578125,0.63665771484375,0.0215,-11.0625,31.25,-59.9375,2.0,0.16,climb_up,7
4.21,4.132797813,23,3,3,3,2,-543.0,1.55,0.77,4.16,-0.46,0.6,-1.7,-3.5,7.5625,327.875,-0.54833984375,0.4364013671875,0.637451171875,0.0215,-11.0625,31.25,-59.9375,2.01,0.17,climb_up,7
4.22,4.147820273,23,3,3,3,2,-513.0,1.57,1.24,4.46,-0.44,1.07,-1.39,4.0625,3.3125,327.125,-0.5487060546875,0.43621826171875,0.6376953125,0.0219,-10.0,29.375,-59.9375,2.01,0.16,climb_up,7
4.23,4.147820273,23,3,3,3,2,-473.0,1.92,1.56,4.85,-0.1,1.39,-1.39,4.0625,3.3125,326.3125,-0.54901123046875,0.43603515625,0.63787841796875,0.0219,-10.0,29.375,-59.9375,2.02,0.16,climb_up,7
4.24,4.162740643,23,3,3,3,2,-423.0,2.6,1.62,5.35,0.58,1.47,-2.32,10.6875,2.125,325.0625,-0.5499267578125,0.43560791015625,0.63800048828125,0.0219,-10.0,29.375,-59.9375,2.02,0.15,climb_up,7
4.25,4.162740643,23,3,3,3,2,-422.0,2.62,1.6,5.37,0.59,1.47,-3.26,19.6875,1.75,323.1875,-0.551513671875,0.43511962890625,0.63787841796875,0.0219,-10.0,29.375,-59.9375,2.02,0.12,climb_up,7
4.26,4.193561484,23,3,3,3,2,-425.0,2.43,1.54,5.33,0.4,1.45,-3.66,29.0,1.6875,320.8125,-0.5537109375,0.43475341796875,0.63739013671875,0.0219,-10.0,29.375,-59.9375,2.03,0.08,climb_up,7
4.27,4.193561484,23,3,3,3,2,-416.0,2.21,1.4,5.43,0.18,1.36,-5.77,34.6875,-0.0625,317.6875,-0.556640625,0.43365478515625,0.6370849609375,0.0222,-10.0,29.6875,-59.9375,2.03,0.04,climb_up,7
4.28,4.207816042,23,3,3,3,2,-417.0,1.9,0.63,5.42,-0.12,0.63,-5.77,34.6875,-0.0625,314.5,-0.55950927734375,0.4326171875,0.63677978515625,0.0222,-10.0,29.6875,-59.9375,2.03,0.0,climb_up,7
4.29,4.207816042,23,3,3,3,2,-439.0,1.88,0.03,5.2,-0.14,0.07,-7.52,32.5625,-0.75,310.9375,-0.5626220703125,0.43084716796875,0.63690185546875,0.0222,-10.0,29.6875,-59.9375,2.03,-0.04,climb_up,7
4.3,4.22244625,23,3,3,3,2,-456.0,1.61,-0.46,5.03,-0.41,-0.38,-8.36,29.5,0.8125,307.125,-0.5655517578125,0.42877197265625,0.637451171875,0.0222,-10.0,29.6875,-59.9375,2.03,-0.07,climb_up,7
4.31,4.22244625,23,3,3,3,2,-482.0,1.41,-0.88,4.76,-0.62,-0.77,-7.7,31.3125,1.875,303.375,-0.5684814453125,0.427001953125,0.63775634765625,0.0222,-10.0,29.6875,-59.9375,2.03,-0.1,climb_up,7
4.32,4.252926597,23,3,3,3,2,-511.0,1.28,-1.25,4.47,-0.75,-1.1,-7.04,34.4375,1.8125,299.6875,-0.57147216796875,0.425537109375,0.6376953125,0.0212,-9.6875,29.375,-59.9375,2.04,-0.15,climb_up,7
4.33,4.252926597,23,3,3,3,2,-544.0,1.1,-1.18,4.14,-0.93,-0.98,-6.56,38.25,0.6875,296.125,-0.5745849609375,0.42425537109375,0.6373291015625,0.0212,-9.6875,29.375,-59.875,2.04,-0.19,climb_up,7
4.34,4.268804649,23,3,3,3,2,-594.0,0.91,-1.04,3.63,-1.12,-0.78,-5.85,42.0,-1.1875,292.6875,-0.577880859375,0.4232177734375,0.63653564453125,0.0212,-9.6875,29.375,-59.875,2.04,-0.25,climb_up,7
4.35,4.268804649,23,3,3,3,2,-762.0,1.0,-0.77,1.96,-1.03,-0.45,-5.02,44.8125,-3.4375,289.5625,-0.581298828125,0.42242431640625,0.6353759765625,0.0212,-9.6875,29.375,-59.875,2.04,-0.32,climb_up,7
4.36,4.28266439,23,3,3,3,2,-845.0,1.15,-0.69,1.13,-0.87,-0.31,-4.41,45.0,-5.6875,286.75,-0.58465576171875,0.4217529296875,0.63397216796875,0.0212,-9.6875,29.375,-59.875,2.03,-0.38,climb_up,7
4.37,4.28266439,23,3,3,3,2,-914.0,1.24,-0.67,0.44,-0.77,-0.22,-3.99,43.875,-8.4375,284.25,-0.5880126953125,0.42095947265625,0.6324462890625,0.0217,-9.25,30.0625,-59.875,2.02,-0.45,climb_up,7
4.38,4.314703289,23,3,3,3,2,-975.0,1.35,-0.62,-0.17,-0.65,-0.11,-3.53,42.9375,-10.9375,282.0625,-0.59130859375,0.42022705078125,0.6307373046875,0.0217,-9.25,30.0625,-59.875,2.0,-0.51,climb_up,7
4.39,4.314703289,23,3,3,3,2,-1126.0,1.99,-0.5,-1.68,0.01,0.07,-2.82,42.875,-12.75,280.25,-0.59454345703125,0.419677734375,0.62890625,0.0217,-9.25,30.0625,-59.875,1.98,-0.58,climb_up,7
4.4,4.328474286,23,3,3,3,2,-1208.0,2.46,-0.44,-2.49,0.49,0.2,-2.36,43.875,-13.3125,278.5625,-0.5977783203125,0.419189453125,0.6268310546875,0.0217,-9.25,30.0625,-59.875,1.96,-0.64,climb_up,7
4.41,4.328474286,23,3,3,3,2,-1290.0,3.02,-0.41,-3.32,1.08,0.3,-2.25,44.9375,-13.125,276.875,-0.60107421875,0.4188232421875,0.62469482421875,0.0217,-9.25,30.0625,-59.875,1.94,-0.71,climb_up,7
4.42,4.343476808,23,3,3,3,2,-1352.0,3.55,-0.35,-3.94,1.63,0.43,-2.09,46.5,-13.3125,275.125,-0.6043701171875,0.41851806640625,0.62237548828125,0.0226,-11.1875,31.6875,-59.875,1.92,-0.79,climb_up,7
4.43,4.343476808,23,3,3,3,2,-1401.0,4.64,-0.04,-4.43,2.74,0.82,-1.5,49.375,-14.125,273.5625,-0.6077880859375,0.41839599609375,0.61981201171875,0.0226,-11.1875,31.6875,-59.875,1.9,-0.87,climb_up,7
4.44,4.373461957,23,3,3,3,2,-1409.0,4.92,0.08,-4.51,3.05,1.04,-0.99,52.875,-16.25,272.125,-0.61138916015625,0.41845703125,0.6168212890625,0.0226,-11.1875,31.6875,-59.8125,1.87,-0.95,climb_up,7
4.45,4.373461957,23,3,3,3,2,-1419.0,5.09,0.15,-4.62,3.25,1.2,-1.2,56.6875,-19.1875,270.625,-0.61529541015625,0.4183349609375,0.6136474609375,0.0226,-11.1875,31.6875,-59.8125,1.84,-1.05,climb_up,7
4.46,4.403956952,23,3,3,3,2,-1411.0,5.17,0.18,-4.54,3.36,1.32,-1.82,57.5,-22.5625,269.125,-0.61944580078125,0.4178466796875,0.6104736328125,0.0226,-11.1875,31.6875,-59.8125,1.8,-1.14,climb_up,7
4.47,4.403956952,23,3,3,3,2,-1393.0,4.98,0.42,-4.36,3.22,1.64,-2.51,52.125,-26.3125,267.6875,-0.62353515625,0.416748046875,0.60760498046875,0.0222,-10.5,33.1875,-59.75,1.76,-1.22,climb_up,7
4.48,4.405923016,23,3,3,3,2,-1385.0,4.57,0.6,-4.28,2.85,1.88,-2.99,40.625,-30.25,266.75,-0.627197265625,0.4150390625,0.60540771484375,0.0222,-10.5,33.1875,-59.75,1.72,-1.28,climb_up,7
4.49,4.405923016,23,3,3,3,2,-1385.0,4.57,0.6,-4.28,2.85,1.88,-2.99,40.625,-30.25,266.75,-0.627197265625,0.4150390625,0.60540771484375,0.0222,-10.5,33.1875,-59.75,1.72,-1.28,climb_up,7
4.49,4.418979291,23,3,3,3,2,-1378.0,4.1,0.71,-4.21,2.43,2.03,-2.9,25.5625,-34.0625,266.625,-0.63018798828125,0.412841796875,0.6038818359375,0.0222,-10.5,33.1875,-59.8125,1.67,-1.32,climb_up,7
4.5,4.418979291,23,3,3,3,2,-1399.0,3.28,0.76,-4.41,1.68,2.1,-2.06,11.125,-38.875,267.5625,-0.6324462890625,0.4102783203125,0.60284423828125,0.0222,-10.5,33.1875,-59.875,1.6,-1.33,climb_up,7
4.51,4.448910565,23,3,3,3,2,-1431.0,2.6,0.7,-4.71,1.06,2.03,-0.57,-1.0,-44.125,269.8125,-0.634033203125,0.4075927734375,0.60205078125,0.0222,-10.5,33.1875,-59.9375,1.53,-1.33,climb_up,7
4.52,4.448910565,23,3,3,3,1,-1426.0,1.88,0.59,-4.65,0.43,1.9,0.61,-11.6875,-48.0625,273.0,-0.635009765625,0.4049072265625,0.6014404296875,0.0219,-10.5,34.375,-60.0,1.45,-1.31,climb_up,7
4.53,4.463631146,23,3,3,3,1,-1325.0,1.13,0.19,-3.62,-0.23,1.48,1.43,-22.1875,-50.1875,277.0,-0.6353759765625,0.40203857421875,0.6011962890625,0.0219,-10.5,34.375,-60.125,1.37,-1.28,climb_up,7
4.54,4.463631146,23,3,3,3,1,-1193.0,0.38,-0.8,-2.29,-0.9,0.43,2.25,-30.0625,-49.6875,281.5625,-0.63519287109375,0.39935302734375,0.60125732421875,0.0219,-10.5,34.375,-60.25,1.28,-1.23,climb_up,7
4.55,4.47885071,23,3,3,3,1,-1169.0,0.31,-1.46,-2.03,-0.89,-0.28,2.79,-31.6875,-45.625,286.125,-0.6346435546875,0.39697265625,0.601318359375,0.0219,-10.5,34.375,-60.375,1.2,-1.18,climb_up,7
4.56,4.47885071,23,3,3,3,1,-1141.0,0.08,-2.17,-1.74,-1.04,-1.03,3.49,-29.375,-40.4375,290.5625,-0.63397216796875,0.3951416015625,0.6011962890625,0.0219,-10.5,34.375,-60.4375,1.13,-1.13,climb_up,7
4.57,4.493850222,23,3,3,3,1,-1125.0,-0.34,-2.83,-1.57,-1.4,-1.73,5.01,-27.3125,-34.875,295.1875,-0.6329345703125,0.3941650390625,0.60076904296875,0.0215,-9.75,33.5625,-60.5,1.06,-1.09,climb_up,7
4.58,4.493850222,23,3,3,3,1,-1121.0,-0.95,-3.94,-1.51,-1.96,-2.89,6.84,-29.6875,-28.375,300.125,-0.63128662109375,0.39410400390625,0.6002197265625,0.0215,-9.75,33.5625,-60.5625,1.01,-1.05,climb_up,7
4.59,4.523738039,23,3,3,3,1,-1130.0,-1.1,-4.39,-1.59,-2.06,-3.39,8.63,-36.3125,-21.125,305.5625,-0.628662109375,0.39483642578125,0.599853515625,0.0215,-9.75,33.5625,-60.625,0.96,-1.0,climb_up,7
4.6,4.523738039,23,3,3,3,1,-1129.0,-1.07,-4.78,-1.58,-2.0,-3.84,9.99,-44.25,-14.9375,311.4375,-0.625244140625,0.3961181640625,0.5997314453125,0.0215,-9.75,33.5625,-60.6875,0.92,-0.93,climb_up,7
4.61,4.538944256,23,3,3,3,1,-1112.0,-0.91,-5.03,-1.39,-1.81,-4.16,10.41,-48.6875,-10.375,317.375,-0.62127685546875,0.39764404296875,0.599853515625,0.0215,-9.75,33.5625,-60.75,0.9,-0.86,climb_up,7
4.62,4.538944256,23,3,3,3,1,-1048.0,-0.33,-5.05,-0.74,-1.21,-4.26,9.6,-45.4375,-8.125,322.75,-0.6175537109375,0.39910888671875,0.5999755859375,0.0222,-9.375,31.25,-60.8125,0.87,-0.79,climb_up,7
4.63,4.555953045,23,3,3,3,1,-1012.0,0.05,-4.78,-0.38,-0.8,-4.04,8.55,-35.4375,-7.625,327.3125,-0.614501953125,0.4005126953125,0.599853515625,0.0222,-9.375,31.25,-60.875,0.85,-0.74,climb_up,7
4.64,4.555953045,23,3,3,3,1,-983.0,0.36,-4.31,-0.08,-0.47,-3.59,7.55,-22.875,-7.8125,331.125,-0.61224365234375,0.4019775390625,0.59918212890625,0.0222,-9.375,31.25,-60.875,0.84,-0.71,climb_up,7
4.65,4.58457125,23,3,3,3,1,-955.0,0.46,-3.71,0.18,-0.35,-3.01,6.68,-11.5625,-7.875,334.25,-0.6107177734375,0.40338134765625,0.59808349609375,0.0222,-9.375,31.25,-60.875,0.82,-0.7,climb_up,7
4.66,4.58457125,23,3,3,3,1,-899.0,0.31,-2.29,0.74,-0.48,-1.58,6.04,-2.0625,-7.1875,336.8125,-0.60980224609375,0.4049072265625,0.5966796875,0.0222,-9.375,31.25,-60.875,0.8,-0.7,climb_up,7
4.67,4.599101605,23,3,3,3,1,-859.0,0.27,-1.51,1.15,-0.51,-0.79,5.37,7.5625,-7.0,338.6875,-0.6094970703125,0.406494140625,0.5948486328125,0.0222,-8.25,29.0625,-60.875,0.78,-0.72,climb_up,7
4.68,4.599101605,23,3,3,3,1,-824.0,0.29,-0.75,1.5,-0.47,0.0,4.67,17.1875,-6.4375,340.0,-0.6097412109375,0.408203125,0.59271240234375,0.0222,-8.25,29.0625,-60.875,0.77,-0.75,climb_up,7
4.69,4.61469328,23,3,3,3,1,-739.0,0.22,0.63,2.35,-0.53,1.43,3.98,25.875,-5.75,340.75,-0.610595703125,0.409912109375,0.59027099609375,0.0222,-8.25,29.0625,-60.875,0.76,-0.8,climb_up,7
4.7,4.61469328,23,3,3,3,1,-708.0,0.22,1.36,2.65,-0.52,2.22,3.27,33.0,-5.125,340.875,-0.61187744140625,0.41168212890625,0.587646484375,0.0222,-8.25,29.0625,-60.875,0.74,-0.86,climb_up,7
4.71,4.644704755,23,3,3,3,1,-690.0,0.26,2.1,2.83,-0.47,3.03,2.22,38.875,-4.875,340.5,-0.6136474609375,0.41326904296875,0.58489990234375,0.0222,-8.25,29.0625,-60.8125,0.73,-0.92,climb_up,7
4.72,4.644704755,23,3,3,3,1,-674.0,0.39,2.75,2.97,-0.33,3.75,0.85,42.375,-5.3125,339.5,-0.6158447265625,0.4144287109375,0.582275390625,0.0215,-9.0625,27.5,-60.75,0.72,-1.0,climb_up,7
4.73,4.659366172,23,3,3,3,1,-634.0,0.46,3.02,3.37,-0.25,4.09,0.08,39.5,-4.6875,338.25,-0.6180419921875,0.41534423828125,0.58001708984375,0.0215,-9.0625,27.5,-60.75,0.72,-1.06,climb_up,7
4.74,4.659366172,23,3,3,3,1,-634.0,0.46,3.02,3.37,-0.25,4.09,0.08,39.5,-4.6875,338.25,-0.6180419921875,0.41534423828125,0.58001708984375,0.0215,-9.0625,27.5,-60.75,0.72,-1.06,climb_up,7
4.74,4.674281333,23,3,3,3,1,-603.0,-0.02,2.75,3.68,-0.74,3.86,0.78,26.5,-1.6875,337.625,-0.6192626953125,0.416259765625,0.578369140625,0.0215,-9.0625,27.5,-60.6875,0.71,-1.11,climb_up,7
4.75,4.674281333,23,3,3,3,1,-555.0,-0.67,2.43,4.16,-1.39,3.56,2.61,7.375,1.875,338.1875,-0.619140625,0.41741943359375,0.577392578125,0.0215,-9.0625,27.5,-60.6875,0.71,-1.12,climb_up,7
4.76,4.690142865,23,3,3,3,1,-484.0,-1.01,1.87,4.87,-1.73,2.98,4.37,-12.0625,5.0,339.875,-0.6175537109375,0.418701171875,0.57720947265625,0.0215,-9.0625,27.5,-60.6875,0.72,-1.11,climb_up,7
4.77,4.690142865,23,3,3,3,1,-389.0,-1.11,0.5,5.83,-1.84,1.56,4.88,-27.5,6.5625,342.25,-0.614990234375,0.4197998046875,0.5777587890625,0.0212,-8.25,27.875,-60.75,0.72,-1.06,climb_up,7
4.78,4.70321806,23,3,3,3,1,-380.0,-0.9,-0.33,5.92,-1.63,0.67,4.22,-35.5,6.9375,344.6875,-0.6121826171875,0.42047119140625,0.57891845703125,0.0212,-8.25,27.875,-60.75,0.73,-1.01,climb_up,7
4.79,4.70321806,23,3,3,3,1,-411.0,-0.74,-1.18,5.62,-1.48,-0.23,3.23,-37.375,6.75,346.8125,-0.60943603515625,0.42071533203125,0.58038330078125,0.0212,-8.25,27.875,-60.8125,0.74,-0.95,climb_up,7
4.8,4.735111086,23,3,3,3,1,-449.0,-0.52,-1.98,5.23,-1.27,-1.09,2.8,-36.375,6.25,348.8125,-0.60687255859375,0.42083740234375,0.58184814453125,0.0212,-8.25,27.875,-60.8125,0.74,-0.89,climb_up,7
4.81,4.735111086,23,3,3,3,1,-545.0,0.29,-2.8,4.29,-0.45,-1.96,3.18,-33.9375,6.375,350.875,-0.60430908203125,0.42120361328125,0.5831298828125,0.0212,-8.25,27.875,-60.875,0.75,-0.83,climb_up,7
4.82,4.748763389,23,3,3,3,1,-594.0,0.77,-2.7,3.8,0.01,-1.92,4.29,-31.125,7.6875,353.0625,-0.60162353515625,0.4219970703125,0.583984375,0.0212,-8.0,26.6875,-60.875,0.76,-0.78,climb_up,7
4.83,4.748763389,23,3,3,3,1,-635.0,1.09,-2.38,3.39,0.32,-1.64,5.71,-26.6875,9.4375,355.5,-0.59881591796875,0.42352294921875,0.5843505859375,0.0212,-8.0,26.6875,-60.875,0.77,-0.74,climb_up,7
4.84,4.764023684,23,3,3,3,1,-690.0,1.31,-1.51,2.84,0.52,-0.79,7.1,-20.4375,12.0,358.0625,-0.59600830078125,0.42578125,0.58416748046875,0.0212,-8.0,26.6875,-60.875,0.79,-0.71,climb_up,7
4.85,4.764023684,23,3,3,3,1,-719.0,1.33,-1.2,2.55,0.52,-0.5,8.24,-13.375,15.625,360.5,-0.5931396484375,0.4288330078125,0.5833740234375,0.0212,-8.0,26.6875,-60.875,0.81,-0.7,climb_up,7
4.86,4.7947723,23,3,3,3,1,-787.0,1.23,-1.08,1.86,0.39,-0.38,8.93,-5.625,18.875,362.6875,-0.5904541015625,0.43243408203125,0.5821533203125,0.0212,-8.0,26.6875,-60.875,0.83,-0.69,climb_up,7
4.87,4.7947723,23,3,3,3,1,-942.0,0.86,-1.04,0.31,0.0,-0.33,9.48,-0.5625,19.75,364.75,-0.58782958984375,0.43646240234375,0.58056640625,0.0219,-8.25,25.1875,-60.875,0.86,-0.7,climb_up,7
4.88,4.808811444,23,3,3,3,1,-1198.0,0.16,-0.34,-2.24,-0.72,0.37,9.61,1.3125,17.6875,366.9375,-0.5853271484375,0.4404296875,0.5787353515625,0.0219,-8.25,25.1875,-60.875,0.88,-0.71,climb_up,7
4.89,4.808811444,23,3,3,3,1,-1246.0,-0.04,0.08,-2.72,-0.94,0.81,7.89,2.8125,15.1875,368.625,-0.5833740234375,0.44378662109375,0.5771484375,0.0219,-8.25,25.1875,-60.8125,0.9,-0.73,climb_up,7
4.9,4.823653119,23,3,3,3,1,-1312.0,0.28,0.44,-3.39,-0.63,1.18,4.51,5.625,13.875,369.1875,-0.58221435546875,0.44610595703125,0.57623291015625,0.0219,-8.25,25.1875,-60.8125,0.92,-0.74,climb_up,7
4.91,4.823653119,23,3,3,3,1,-1379.0,0.97,0.48,-4.06,0.02,1.24,1.41,10.4375,15.25,368.4375,-0.5819091796875,0.4476318359375,0.5758056640625,0.0219,-8.25,25.1875,-60.8125,0.94,-0.76,climb_up,7
4.92,4.854153119,23,3,3,3,1,-1410.0,1.23,0.97,-4.37,0.25,1.77,0.42,16.0625,17.3125,367.0625,-0.5819091796875,0.44915771484375,0.575439453125,0.0225,-9.0,24.0625,-60.75,0.97,-0.79,climb_up,7
4.93,4.854153119,23,3,3,3,1,-1415.0,0.99,1.46,-4.43,-0.02,2.29,0.75,24.125,20.625,365.25,-0.58221435546875,0.451171875,0.57470703125,0.0225,-9.0,24.0625,-60.6875,1.01,-0.83,climb_up,7
4.94,4.869290651,23,3,3,3,1,-1435.0,0.68,1.72,-4.64,-0.36,2.6,0.54,31.8125,25.0625,362.875,-0.58270263671875,0.45361328125,0.57373046875,0.0225,-9.0,24.0625,-60.625,1.05,-0.88,climb_up,7
4.95,4.869290651,23,3,3,3,1,-1472.0,0.4,1.82,-5.02,-0.7,2.76,-0.66,30.0,30.9375,359.875,-0.58306884765625,0.45587158203125,0.57330322265625,0.0225,-9.0,24.0625,-60.5625,1.1,-0.93,climb_up,7
4.96,4.884935223,23,3,3,3,1,-1567.0,0.47,1.3,-5.98,-0.69,2.27,-2.47,15.625,37.625,356.5,-0.58282470703125,0.45751953125,0.57427978515625,0.0225,-9.0,24.0625,-60.5,1.17,-0.96,climb_up,7
4.97,4.884935223,23,3,3,3,1,-1575.0,0.79,0.68,-6.07,-0.45,1.62,-4.36,-7.0625,44.875,353.0625,-0.58148193359375,0.45819091796875,0.57708740234375,0.0211,-8.5625,25.1875,-60.5,1.25,-0.94,climb_up,7
4.98,4.91577995,23,3,3,3,1,-1517.0,1.1,0.03,-5.5,-0.24,0.92,-5.96,-28.125,51.875,349.625,-0.5791015625,0.45806884765625,0.58154296875,0.0211,-8.5625,25.1875,-60.4375,1.34,-0.88,climb_up,7
4.99,4.91577995,23,3,3,3,1,-1317.0,1.93,-1.53,-3.51,0.48,-0.72,-7.18,-37.75,57.5,345.875,-0.57623291015625,0.45758056640625,0.58697509765625,0.0211,-8.5625,25.1875,-60.375,1.45,-0.81,climb_up,7
5.0,4.921282635,23,3,3,3,1,-1317.0,1.93,-1.53,-3.51,0.48,-0.72,-7.18,-37.75,57.5,345.875,-0.57623291015625,0.45758056640625,0.58697509765625,0.0211,-8.5625,25.1875,-60.375,1.45,-0.81,climb_up,7
5.0,4.921282635,23,3,3,3,1,-1210.0,2.22,-2.11,-2.44,0.65,-1.38,-8.13,-38.625,63.25,341.5,-0.57318115234375,0.45697021484375,0.5927734375,0.0211,-8.5625,25.1875,-60.3125,1.56,-0.73,climb_up,7
5.01,4.944622845,23,3,3,3,1,-1126.0,2.17,-2.5,-1.62,0.49,-1.84,-8.68,-32.5,65.25,336.625,-0.57049560546875,0.4564208984375,0.59844970703125,0.0211,-8.5625,25.1875,-60.1875,1.67,-0.66,climb_up,7
5.02,4.944622845,23,3,3,3,2,-1119.0,1.74,-2.58,-1.56,-0.04,-1.98,-8.1,-23.8125,59.25,331.8125,-0.56829833984375,0.4560546875,0.60333251953125,0.0217,-7.75,25.1875,-60.125,1.78,-0.6,climb_up,7
5.03,4.958595787,23,3,3,3,2,-1155.0,2.06,-2.45,-1.94,0.19,-1.89,-6.41,-18.125,49.25,327.875,-0.5665283203125,0.45587158203125,0.60723876953125,0.0217,-7.75,25.1875,-60.0,1.87,-0.56,climb_up,7
5.04,4.958595787,23,3,3,3,2,-1132.0,2.63,-2.58,-1.72,0.69,-2.06,-4.74,-17.9375,38.75,325.0,-0.5648193359375,0.4556884765625,0.61041259765625,0.0217,-7.75,25.1875,-59.9375,1.93,-0.52,climb_up,7
5.05,4.974479901,23,3,3,3,2,-1107.0,3.15,-2.74,-1.48,1.15,-2.26,-4.25,-22.625,29.75,323.0,-0.56317138671875,0.455078125,0.6134033203125,0.0217,-7.75,25.1875,-59.9375,1.99,-0.47,climb_up,7
5.06,4.974479901,23,3,3,3,2,-1076.0,3.34,-2.99,-1.17,1.3,-2.57,-4.89,-29.6875,24.3125,321.3125,-0.56146240234375,0.45379638671875,0.61669921875,0.0217,-7.75,25.1875,-59.875,2.03,-0.41,climb_up,7
5.07,5.016915367,23,3,3,3,2,-992.0,3.6,-3.51,-0.35,1.52,-3.16,-5.57,-35.8125,23.0,319.75,-0.5595703125,0.45208740234375,0.6204833984375,0.0217,-8.5,23.6875,-59.8125,2.07,-0.34,climb_up,7
5.08,5.016915367,23,3,3,3,2,-938.0,3.76,-3.42,0.18,1.65,-3.15,-5.87,-36.75,23.375,318.125,-0.55767822265625,0.45025634765625,0.62432861328125,0.0217,-8.5,23.6875,-59.8125,2.11,-0.26,climb_up,7
5.09,5.02420272,23,3,3,3,2,-881.0,3.97,-3.13,0.74,1.82,-2.93,-5.74,-31.6875,22.75,316.3125,-0.5560302734375,0.448486328125,0.62786865234375,0.0217,-8.5,23.6875,-59.75,2.15,-0.2,climb_up,7
5.1,5.02420272,23,3,3,3,2,-822.0,4.07,-2.68,1.32,1.88,-2.52,-4.7,-21.125,20.625,314.5625,-0.5548095703125,0.44732666015625,0.630615234375,0.0217,-8.5,23.6875,-59.6875,2.18,-0.15,climb_up,7
5.11,5.035128705,23,3,3,3,2,-774.0,3.78,-1.66,1.81,1.56,-1.53,-3.45,-9.0,18.125,312.8125,-0.55419921875,0.44677734375,0.63238525390625,0.0217,-8.5,23.6875,-59.6875,2.22,-0.13,climb_up,7
5.12,5.035128705,23,3,3,3,2,-757.0,3.47,-1.14,1.97,1.22,-1.01,-2.57,0.0,15.6875,311.125,-0.55401611328125,0.4466552734375,0.6334228515625,0.0226,-9.5625,21.0,-59.625,2.24,-0.12,climb_up,7
5.13,5.064274538,23,3,3,3,2,-750.0,3.16,-0.58,2.03,0.89,-0.45,-1.77,4.6875,14.8125,309.5625,-0.55401611328125,0.4468994140625,0.634033203125,0.0226,-9.5625,21.0,-59.5625,2.27,-0.13,climb_up,7
5.14,5.064274538,23,3,3,3,2,-757.0,2.92,0.02,1.95,0.62,0.16,-0.83,6.1875,14.1875,308.25,-0.553955078125,0.44744873046875,0.63427734375,0.0226,-9.5625,21.0,-59.5625,2.29,-0.13,climb_up,7
5.15,5.078474652,23,3,3,3,2,-692.0,2.61,1.18,2.6,0.29,1.33,-0.19,8.375,13.75,307.0625,-0.55389404296875,0.44830322265625,0.63427734375,0.0226,-9.5625,21.0,-59.5,2.31,-0.15,climb_up,7
5.16,5.078474652,23,3,3,3,2,-625.0,2.34,1.63,3.27,0.0,1.79,-0.45,10.6875,12.9375,305.75,-0.5540771484375,0.44903564453125,0.63421630859375,0.0226,-9.5625,21.0,-59.5,2.34,-0.16,climb_up,7
5.17,5.093302004,23,3,3,3,2,-585.0,2.14,1.89,3.66,-0.21,2.07,-1.9,12.75,10.3125,304.0625,-0.5546875,0.44921875,0.63433837890625,0.0229,-9.875,20.1875,-59.4375,2.35,-0.18,climb_up,7
5.18,5.093302004,23,3,3,3,2,-548.0,1.81,1.94,4.02,-0.54,2.14,-4.09,13.75,5.3125,301.9375,-0.555908203125,0.44842529296875,0.634765625,0.0229,-9.875,20.1875,-59.4375,2.36,-0.19,climb_up,7
5.19,5.123975588,23,3,3,3,2,-530.0,1.73,1.7,4.21,-0.63,1.91,-5.71,14.6875,-0.375,299.5625,-0.5576171875,0.44683837890625,0.63543701171875,0.0229,-9.875,20.1875,-59.4375,2.36,-0.2,climb_up,7
5.2,5.123975588,23,3,3,3,2,-483.0,1.66,1.3,4.67,-0.7,1.52,-6.67,15.375,-5.375,297.1875,-0.55975341796875,0.44464111328125,0.63616943359375,0.0229,-9.875,20.1875,-59.4375,2.36,-0.21,climb_up,7
5.21,5.138738039,23,3,3,3,2,-435.0,1.54,0.81,5.16,-0.8,1.03,-7.03,13.625,-9.5625,294.9375,-0.56201171875,0.44207763671875,0.636962890625,0.0229,-9.875,20.1875,-59.4375,2.34,-0.22,climb_up,7
5.22,5.138738039,23,3,3,3,2,-474.0,1.05,0.05,4.77,-1.27,0.27,-7.01,10.0,-12.625,293.0625,-0.56414794921875,0.43927001953125,0.63787841796875,0.0219,-9.875,18.6875,-59.5,2.32,-0.21,climb_up,7
5.23,5.170900311,23,3,3,3,2,-511.0,0.83,0.0,4.41,-1.47,0.2,-6.96,3.75,-14.625,291.5625,-0.56597900390625,0.43621826171875,0.63897705078125,0.0219,-9.875,18.6875,-59.5,2.3,-0.2,climb_up,7
5.24,5.170900311,23,3,3,3,2,-493.0,1.2,-0.24,4.59,-1.08,-0.06,-6.88,-3.0625,-15.75,290.375,-0.56744384765625,0.4329833984375,0.640380859375,0.0219,-9.875,18.6875,-59.5625,2.28,-0.18,climb_up,7
5.25,5.176591351,23,3,3,3,2,-468.0,1.78,-1.07,4.86,-0.48,-0.9,-6.58,-2.625,-13.0625,289.125,-0.56884765625,0.42999267578125,0.6417236328125,0.0219,-9.875,18.6875,-59.625,2.26,-0.16,climb_up,7
5.26,5.176591351,23,3,3,3,2,-468.0,1.78,-1.07,4.86,-0.48,-0.9,-6.58,-2.625,-13.0625,289.125,-0.56884765625,0.42999267578125,0.6417236328125,0.0219,-9.875,18.6875,-59.625,2.26,-0.16,climb_up,7
5.26,5.183611778,23,3,3,3,2,-571.0,1.83,-1.68,3.83,-0.4,-1.51,-5.75,8.25,-11.5625,287.6875,-0.57061767578125,0.4276123046875,0.64239501953125,0.0219,-9.875,18.6875,-59.625,2.24,-0.16,climb_up,7
5.27,5.183611778,23,3,3,3,2,-624.0,1.6,-1.5,3.3,-0.61,-1.31,-5.57,19.6875,-11.75,285.8125,-0.572998046875,0.425537109375,0.64239501953125,0.0219,-8.875,17.875,-59.625,2.22,-0.18,climb_up,7
5.28,5.216142173,23,3,3,3,2,-683.0,1.8,-1.22,2.71,-0.4,-1.0,-5.71,26.5625,-11.0625,283.5625,-0.57574462890625,0.42364501953125,0.64215087890625,0.0219,-8.875,17.875,-59.6875,2.2,-0.21,climb_up,7
5.29,5.216142173,23,3,3,3,2,-725.0,1.93,-1.11,2.3,-0.25,-0.86,-5.23,27.375,-10.125,281.4375,-0.5784912109375,0.42193603515625,0.6417236328125,0.0219,-8.875,17.875,-59.6875,2.19,-0.24,climb_up,7
5.3,5.2283324,23,3,3,3,2,-859.0,2.1,-0.29,0.96,-0.07,-0.01,-4.7,25.9375,-10.4375,279.5625,-0.58099365234375,0.42041015625,0.6412353515625,0.0219,-8.875,17.875,-59.6875,2.17,-0.28,climb_up,7
5.31,5.2283324,23,3,3,3,2,-901.0,1.91,0.05,0.54,-0.24,0.37,-4.67,26.125,-11.4375,277.6875,-0.58355712890625,0.4188232421875,0.64068603515625,0.0219,-8.875,17.875,-59.75,2.15,-0.31,climb_up,7
5.32,5.259669721,23,3,3,3,2,-925.0,1.78,0.3,0.3,-0.35,0.65,-4.25,27.3125,-12.9375,276.0,-0.586181640625,0.41729736328125,0.63995361328125,0.0223,-9.6875,17.875,-59.75,2.13,-0.34,climb_up,7
5.33,5.259669721,23,3,3,3,2,-1012.0,2.17,0.25,-0.55,0.06,0.64,-3.69,29.1875,-13.75,274.5,-0.5888671875,0.416015625,0.63897705078125,0.0223,-9.6875,17.875,-59.75,2.11,-0.38,climb_up,7
5.34,5.289470136,23,3,3,3,2,-1082.0,2.45,-0.02,-1.25,0.36,0.4,-3.24,30.6875,-13.6875,273.0625,-0.591552734375,0.4149169921875,0.6378173828125,0.0223,-9.6875,17.875,-59.8125,2.09,-0.43,climb_up,7
5.35,5.289470136,23,3,3,3,2,-1157.0,2.66,-0.3,-1.99,0.58,0.16,-2.55,28.625,-13.125,271.875,-0.593994140625,0.41400146484375,0.6365966796875,0.0223,-9.6875,17.875,-59.8125,2.07,-0.47,climb_up,7
5.36,5.295015383,23,3,3,3,2,-1231.0,2.83,-0.54,-2.73,0.78,-0.03,-1.65,23.5,-12.6875,271.1875,-0.59600830078125,0.413330078125,0.635498046875,0.0223,-9.6875,17.875,-59.8125,2.05,-0.51,climb_up,7
5.37,5.295015383,23,3,3,3,2,-1301.0,3.58,-0.34,-3.43,1.55,0.2,-0.48,20.375,-13.3125,271.0625,-0.59765625,0.4129638671875,0.63421630859375,0.0217,-9.25,18.25,-59.8125,2.03,-0.54,climb_up,7
5.38,5.303354779,23,3,3,3,2,-1309.0,4.0,-0.1,-3.51,1.99,0.47,0.73,21.9375,-15.375,271.3125,-0.59930419921875,0.41290283203125,0.632568359375,0.0217,-9.25,18.25,-59.875,2.0,-0.58,climb_up,7
5.39,5.303354779,23,3,3,3,2,-1339.0,4.25,0.05,-3.81,2.27,0.68,1.58,24.5625,-18.75,272.0,-0.60113525390625,0.41302490234375,0.6304931640625,0.0217,-9.25,18.25,-59.875,1.97,-0.62,climb_up,7
5.4,5.335217206,23,3,3,3,2,-1390.0,4.26,0.18,-4.31,2.32,0.85,1.97,23.5,-23.1875,273.125,-0.60296630859375,0.41302490234375,0.62823486328125,0.0217,-9.25,18.25,-59.9375,1.93,-0.67,climb_up,7
5.41,5.335217206,23,3,3,3,2,-1366.0,3.3,0.98,-4.07,1.42,1.69,2.21,17.3125,-28.0,274.75,-0.6046142578125,0.4127197265625,0.626220703125,0.0217,-9.25,18.25,-59.9375,1.88,-0.7,climb_up,7
5.42,5.348523643,23,3,3,3,2,-1327.0,2.73,1.47,-3.66,0.9,2.2,2.36,10.25,-33.0,277.0625,-0.60595703125,0.41204833984375,0.62432861328125,0.0217,-8.1875,17.1875,-60.0,1.83,-0.72,climb_up,7
5.43,5.348523643,23,3,3,3,2,-1322.0,2.26,1.7,-3.6,0.49,2.44,1.97,4.5625,-37.8125,279.625,-0.6072998046875,0.41082763671875,0.622802734375,0.0217,-8.1875,17.1875,-60.0625,1.76,-0.73,climb_up,7
5.44,5.364809695,23,3,3,3,2,-1329.0,2.06,1.76,-3.66,0.37,2.5,1.64,-1.4375,-42.0625,282.5625,-0.60845947265625,0.40911865234375,0.6214599609375,0.0217,-8.1875,17.1875,-60.1875,1.69,-0.73,climb_up,7
5.45,5.364809695,23,3,3,3,2,-1271.0,1.88,1.26,-3.06,0.27,1.98,1.82,-11.125,-45.375,286.125,-0.60919189453125,0.40704345703125,0.62060546875,0.0217,-8.1875,17.1875,-60.25,1.61,-0.72,climb_up,7
5.46,5.393976239,23,3,3,3,2,-1177.0,1.65,0.71,-2.11,0.12,1.4,2.54,-23.125,-46.6875,290.4375,-0.60919189453125,0.40484619140625,0.6201171875,0.0217,-8.1875,17.1875,-60.375,1.53,-0.68,climb_up,7
5.47,5.393976239,23,3,3,3,1,-1112.0,1.45,0.01,-1.44,0.0,0.65,3.23,-30.8125,-45.1875,295.125,-0.60858154296875,0.40277099609375,0.61993408203125,0.022,-8.5625,18.6875,-60.4375,1.45,-0.63,climb_up,7
5.48,5.408595421,23,3,3,3,1,-1114.0,1.45,-1.19,-1.45,0.07,-0.6,3.59,-32.6875,-41.3125,299.8125,-0.607666015625,0.4010009765625,0.619873046875,0.022,-8.5625,18.6875,-60.5625,1.38,-0.58,climb_up,7
5.49,5.408595421,23,3,3,3,1,-1108.0,1.36,-1.65,-1.38,0.04,-1.11,3.72,-31.9375,-36.0,304.1875,-0.60662841796875,0.3995361328125,0.61981201171875,0.022,-8.5625,18.6875,-60.625,1.32,-0.54,climb_up,7
5.5,5.423690025,23,3,3,3,1,-1102.0,1.07,-2.13,-1.31,-0.19,-1.64,3.91,-31.3125,-30.0,308.3125,-0.60528564453125,0.3984375,0.61981201171875,0.022,-8.5625,18.6875,-60.6875,1.26,-0.49,climb_up,7
5.51,5.423690025,23,3,3,3,1,-1108.0,0.78,-2.65,-1.36,-0.44,-2.2,4.54,-31.8125,-23.6875,312.25,-0.6036376953125,0.39788818359375,0.61993408203125,0.022,-8.5625,18.6875,-60.6875,1.22,-0.44,climb_up,7
5.52,5.438943362,23,3,3,3,1,-1108.0,0.78,-2.65,-1.36,-0.44,-2.2,4.54,-31.8125,-23.6875,312.25,-0.6036376953125,0.39788818359375,0.61993408203125,0.022,-8.5625,18.6875,-60.6875,1.22,-0.44,climb_up,7
5.52,5.438943362,23,3,3,3,1,-1133.0,-0.37,-3.73,-1.6,-1.56,-3.33,5.6,-30.6875,-19.625,316.3125,-0.60174560546875,0.39794921875,0.61981201171875,0.0209,-8.0,14.5,-60.75,1.19,-0.4,climb_up,7
5.53,5.453444745,23,3,3,3,1,-1146.0,-0.99,-4.05,-1.72,-2.15,-3.69,7.14,-27.9375,-18.25,320.75,-0.599609375,0.39862060546875,0.61920166015625,0.0209,-8.0,14.5,-60.8125,1.15,-0.36,climb_up,7
5.54,5.453444745,23,3,3,3,1,-1138.0,-1.35,-4.1,-1.64,-2.47,-3.77,8.69,-24.375,-18.4375,325.5625,-0.59747314453125,0.39990234375,0.61810302734375,0.0209,-8.0,14.5,-60.8125,1.12,-0.33,climb_up,7
5.55,5.483869224,23,3,3,3,1,-1104.0,-1.32,-3.9,-1.3,-2.4,-3.58,9.39,-18.5625,-18.9375,330.375,-0.595458984375,0.40155029296875,0.616455078125,0.0209,-8.0,14.5,-60.875,1.08,-0.31,climb_up,7
5.56,5.483869224,23,3,3,3,1,-1020.0,-0.22,-2.93,-0.46,-1.28,-2.63,8.61,-9.875,-19.5,334.6875,-0.5941162109375,0.4031982421875,0.61456298828125,0.0209,-8.0,14.5,-60.875,1.05,-0.3,climb_up,7
5.57,5.498634971,23,3,3,3,1,-988.0,0.36,-2.42,-0.13,-0.64,-2.1,7.17,-1.125,-20.3125,338.1875,-0.593505859375,0.40447998046875,0.6124267578125,0.0209,-7.25,9.5,-60.875,1.01,-0.31,climb_up,7
5.58,5.498634971,23,3,3,3,1,-953.0,0.73,-1.88,0.22,-0.23,-1.55,5.94,5.875,-20.875,341.0625,-0.593505859375,0.40557861328125,0.6102294921875,0.0209,-7.25,9.5,-60.9375,0.97,-0.32,climb_up,7
5.59,5.513034711,23,3,3,3,1,-920.0,0.88,-1.4,0.55,-0.05,-1.05,4.99,10.875,-20.1875,343.4375,-0.5938720703125,0.406494140625,0.60791015625,0.0209,-7.25,9.5,-60.9375,0.94,-0.35,climb_up,7
5.6,5.513034711,23,3,3,3,1,-845.0,1.02,-0.28,1.3,0.11,0.09,4.44,15.1875,-18.1875,345.375,-0.59454345703125,0.407470703125,0.6055908203125,0.0209,-7.25,9.5,-60.9375,0.9,-0.38,climb_up,7
5.61,5.543658653,23,3,3,3,1,-813.0,0.9,0.23,1.62,0.02,0.65,3.93,19.5,-15.4375,346.75,-0.59539794921875,0.4085693359375,0.603271484375,0.0209,-7.25,9.5,-60.9375,0.87,-0.41,climb_up,7
5.62,5.543658653,23,3,3,3,1,-786.0,0.76,0.6,1.89,-0.09,1.06,3.52,22.5,-12.1875,347.75,-0.59637451171875,0.40972900390625,0.6009521484375,0.021,-7.25,7.5625,-60.9375,0.85,-0.46,climb_up,7
5.63,5.558371747,23,3,3,3,1,-757.0,0.56,0.94,2.18,-0.26,1.44,3.48,21.75,-9.4375,348.625,-0.59716796875,0.4110107421875,0.5987548828125,0.021,-7.25,7.5625,-60.9375,0.83,-0.5,climb_up,7
5.64,5.558371747,23,3,3,3,1,-702.0,0.16,1.37,2.73,-0.65,1.91,3.6,18.125,-7.4375,349.5625,-0.59771728515625,0.412353515625,0.59674072265625,0.021,-7.25,7.5625,-60.9375,0.82,-0.53,climb_up,7
5.65,5.589716026,23,3,3,3,1,-673.0,0.0,1.38,3.02,-0.82,1.94,3.55,12.375,-5.4375,350.625,-0.59796142578125,0.41357421875,0.59515380859375,0.021,-7.25,7.5625,-60.9375,0.81,-0.56,climb_up,7
5.66,5.589716026,23,3,3,3,1,-643.0,-0.2,1.15,3.32,-1.0,1.72,3.56,5.0625,-3.875,351.8125,-0.59765625,0.4146728515625,0.59393310546875,0.021,-7.25,7.5625,-60.9375,0.8,-0.57,climb_up,7
5.67,5.603367068,23,3,3,3,2,-608.0,-0.51,0.29,3.66,-1.3,0.87,3.9,-2.625,-3.25,353.375,-0.596923828125,0.41571044921875,0.59307861328125,0.021,-6.0625,8.375,-60.9375,0.79,-0.57,climb_up,7
5.68,5.603367068,23,3,3,3,2,-575.0,-0.54,-0.17,4.0,-1.32,0.38,4.59,-9.4375,-2.75,355.4375,-0.595703125,0.416748046875,0.59246826171875,0.021,-6.0625,8.375,-60.9375,0.78,-0.55,climb_up,7
5.69,5.618651125,23,3,3,3,2,-573.0,-0.58,-0.62,4.02,-1.36,-0.08,5.36,-14.625,-1.6875,357.8125,-0.593994140625,0.41796875,0.5919189453125,0.021,-6.0625,8.375,-61.0,0.78,-0.53,climb_up,7
5.7,5.618651125,23,3,3,3,2,-583.0,-0.68,-1.03,3.92,-1.46,-0.51,6.0,-17.0625,-0.5625,360.5,-0.59197998046875,0.4193115234375,0.5914306640625,0.021,-6.0625,8.375,-61.0,0.77,-0.51,climb_up,7
5.71,5.649497317,23,3,3,3,2,-593.0,-0.67,-1.19,3.82,-1.44,-0.7,6.64,-18.3125,-0.125,363.375,-0.5897216796875,0.4208984375,0.5908203125,0.021,-6.0625,8.375,-61.0,0.77,-0.48,climb_up,7
5.72,5.649497317,23,3,3,3,2,-613.0,-0.42,-1.11,3.63,-1.19,-0.64,7.16,-15.625,-0.1875,366.3125,-0.5875244140625,0.4227294921875,0.59002685546875,0.02,-5.75,6.75,-61.0,0.76,-0.46,climb_up,7
5.73,5.664352745,23,3,3,3,2,-649.0,-0.08,-1.03,3.27,-0.85,-0.57,7.41,-9.8125,-0.375,369.125,-0.58563232421875,0.4248046875,0.58880615234375,0.02,-5.75,6.75,-61.0,0.76,-0.45,climb_up,7
5.74,5.664352745,23,3,3,3,2,-677.0,0.29,-0.91,2.99,-0.46,-0.45,7.19,-0.9375,0.0,371.5,-0.58416748046875,0.42706298828125,0.587158203125,0.02,-5.75,6.75,-61.0,0.76,-0.46,climb_up,7
5.75,5.679178103,23,3,3,3,2,-717.0,1.01,-0.55,2.59,0.25,-0.07,6.74,8.125,1.75,373.3125,-0.58319091796875,0.4295654296875,0.585205078125,0.02,-5.75,6.75,-61.0,0.76,-0.48,climb_up,7
5.76,5.679178103,23,3,3,3,2,-742.0,1.17,-0.26,2.33,0.41,0.25,6.4,16.0625,4.1875,374.5625,-0.58258056640625,0.43231201171875,0.5830078125,0.02,-5.75,6.75,-61.0,0.76,-0.51,climb_up,7
5.77,5.693228111,23,3,3,3,2,-775.0,1.14,-0.11,2.0,0.37,0.44,6.0,22.4375,6.9375,375.3125,-0.58221435546875,0.435302734375,0.5806884765625,0.0211,-6.0625,4.5625,-61.0,0.77,-0.55,climb_up,7
5.78,5.693228111,23,3,3,3,2,-775.0,1.14,-0.11,2.0,0.37,0.44,6.0,22.4375,6.9375,375.3125,-0.58221435546875,0.435302734375,0.5806884765625,0.0211,-6.0625,4.5625,-61.0,0.77,-0.55,climb_up,7
5.78,5.70823926,23,3,3,3,2,-819.0,1.06,-0.04,1.56,0.27,0.56,5.6,26.5,10.0,375.5625,-0.58209228515625,0.43841552734375,0.57830810546875,0.0211,-6.0625,4.5625,-60.9375,0.78,-0.6,climb_up,7
5.79,5.70823926,23,3,3,3,2,-938.0,0.77,0.14,0.36,-0.02,0.79,5.43,26.0625,13.3125,375.625,-0.581787109375,0.441650390625,0.57611083984375,0.0211,-6.0625,4.5625,-60.9375,0.8,-0.65,climb_up,7
5.8,5.739959882,23,3,3,3,2,-1008.0,0.6,0.28,-0.34,-0.22,0.98,5.51,22.5625,16.5,375.6875,-0.5811767578125,0.4449462890625,0.57415771484375,0.0211,-6.0625,4.5625,-60.875,0.82,-0.7,climb_up,7
5.81,5.739959882,23,3,3,3,2,-1058.0,0.39,0.47,-0.84,-0.45,1.21,5.4,16.9375,18.375,375.8125,-0.58026123046875,0.4481201171875,0.57257080078125,0.0211,-6.0625,4.5625,-60.875,0.85,-0.73,climb_up,7
5.82,5.753718183,23,3,3,3,1,-1165.0,0.27,0.52,-1.92,-0.61,1.28,4.78,11.25,18.9375,375.9375,-0.5791015625,0.450927734375,0.5714111328125,0.0203,-6.0,4.875,-60.8125,0.88,-0.75,climb_up,7
5.83,5.753718183,23,3,3,3,1,-1227.0,0.42,0.38,-2.54,-0.48,1.16,3.99,6.125,20.0,375.9375,-0.57781982421875,0.453369140625,0.57073974609375,0.0203,-6.0,4.875,-60.8125,0.91,-0.77,climb_up,7
5.84,5.768439618,23,3,3,3,1,-1268.0,0.54,0.27,-2.95,-0.4,1.06,3.3,3.125,21.3125,375.8125,-0.57647705078125,0.45556640625,0.5704345703125,0.0203,-6.0,4.875,-60.75,0.94,-0.78,climb_up,7
5.85,5.768439618,23,3,3,3,1,-1306.0,0.64,0.17,-3.34,-0.33,0.96,2.81,1.875,23.125,375.5,-0.57513427734375,0.4576416015625,0.57037353515625,0.0203,-6.0,4.875,-60.75,0.98,-0.78,climb_up,7
5.86,5.799234988,23,3,3,3,1,-1369.0,0.79,0.16,-3.97,-0.22,0.95,2.32,1.75,25.375,374.875,-0.57373046875,0.459716796875,0.570556640625,0.0203,-6.0,4.875,-60.75,1.02,-0.79,climb_up,7
5.87,5.799234988,23,3,3,3,1,-1388.0,0.87,0.27,-4.17,-0.19,1.07,1.85,1.375,28.4375,373.9375,-0.572265625,0.46173095703125,0.5709228515625,0.02,-6.0,4.875,-60.6875,1.07,-0.79,climb_up,7
5.88,5.814719566,23,3,3,3,1,-1395.0,1.05,0.46,-4.24,-0.07,1.26,1.03,-0.5,32.25,372.625,-0.57080078125,0.463623046875,0.5716552734375,0.02,-6.0,4.875,-60.625,1.12,-0.79,climb_up,7
5.89,5.814719566,23,3,3,3,1,-1391.0,1.21,0.64,-4.21,0.02,1.44,-0.27,-4.0625,36.375,370.875,-0.56915283203125,0.4652099609375,0.5731201171875,0.02,-6.0,4.875,-60.625,1.18,-0.79,climb_up,7
5.9,5.828624433,23,3,3,3,1,-1328.0,1.24,0.96,-3.58,0.0,1.73,-2.04,-10.6875,39.8125,368.625,-0.5673828125,0.46624755859375,0.57537841796875,0.02,-6.0,4.875,-60.5625,1.25,-0.77,climb_up,7
5.91,5.828624433,23,3,3,3,1,-1263.0,1.39,0.95,-2.95,0.06,1.68,-4.09,-18.25,43.4375,365.875,-0.56549072265625,0.46649169921875,0.5787353515625,0.02,-6.0,4.875,-60.5,1.33,-0.73,climb_up,7
5.92,5.858764529,23,3,3,3,1,-1217.0,1.81,0.72,-2.49,0.4,1.41,-6.2,-24.3125,47.4375,362.5,-0.56353759765625,0.46612548828125,0.58294677734375,0.0199,-6.1875,5.0,-60.4375,1.41,-0.68,climb_up,7
5.93,5.858764529,23,3,3,3,1,-1172.0,2.3,0.25,-2.05,0.79,0.87,-7.88,-28.25,50.3125,358.5625,-0.56158447265625,0.46514892578125,0.587890625,0.0199,-6.1875,5.0,-60.4375,1.5,-0.62,climb_up,7
5.94,5.873537641,23,3,3,3,1,-995.0,3.2,-1.49,-0.29,1.6,-0.94,-9.17,-32.75,52.625,354.3125,-0.55950927734375,0.46380615234375,0.59344482421875,0.0199,-6.1875,5.0,-60.3125,1.6,-0.55,climb_up,7
5.95,5.873537641,23,3,3,3,1,-928.0,2.73,-2.25,0.35,1.03,-1.78,-10.05,-37.5625,55.0,349.8125,-0.55718994140625,0.4620361328125,0.59942626953125,0.0199,-6.1875,5.0,-60.25,1.69,-0.46,climb_up,7
5.96,5.889379234,23,3,3,3,1,-991.0,2.09,-2.89,-0.28,0.3,-2.51,-9.71,-40.1875,53.75,345.5625,-0.5546875,0.46026611328125,0.60546875,0.0199,-6.1875,5.0,-60.1875,1.79,-0.38,climb_up,7
5.97,5.889379234,23,3,3,3,0,-1169.0,1.52,-3.54,-2.07,-0.35,-3.24,-8.45,-41.625,48.0625,342.0625,-0.5521240234375,0.45855712890625,0.6109619140625,0.0202,-7.25,2.6875,-60.125,1.87,-0.29,climb_up,7
5.98,5.919611819,23,3,3,3,0,-1195.0,2.11,-3.76,-2.34,0.16,-3.55,-7.3,-41.875,41.0625,339.3125,-0.549560546875,0.45684814453125,0.61602783203125,0.0202,-7.25,2.6875,-60.0,1.94,-0.21,climb_up,7
5.99,5.919611819,23,3,3,3,0,-1171.0,2.96,-3.84,-2.12,0.95,-3.72,-6.41,-41.4375,33.625,337.1875,-0.547119140625,0.45513916015625,0.62054443359375,0.0202,-7.25,2.6875,-59.9375,2.0,-0.12,climb_up,7
6.0,5.933825483,23,3,3,3,0,-1137.0,3.7,-3.86,-1.79,1.64,-3.81,-5.67,-38.9375,27.25,335.5,-0.54498291015625,0.453369140625,0.62457275390625,0.0202,-7.25,2.6875,-59.875,2.05,-0.04,climb_up,7
6.01,5.933825483,23,3,3,3,0,-1015.0,4.17,-3.1,-0.57,2.07,-3.11,-5.04,-33.5,23.1875,334.0,-0.54315185546875,0.4517822265625,0.62811279296875,0.0202,-7.25,2.6875,-59.875,2.09,0.01,climb_up,7
6.02,5.948817345,23,3,3,3,0,-921.0,3.96,-2.38,0.35,1.83,-2.45,-4.79,-26.3125,21.1875,332.4375,-0.54168701171875,0.45037841796875,0.631103515625,0.0191,-6.875,2.25,-59.8125,2.12,0.07,climb_up,7
6.03,5.948817345,23,3,3,3,0,-837.0,3.63,-1.56,1.19,1.47,-1.67,-4.47,-18.4375,20.75,330.6875,-0.5406494140625,0.4493408203125,0.6336669921875,0.0191,-6.875,2.25,-59.75,2.15,0.11,climb_up,7
6.04,5.963849856,23,3,3,3,0,-837.0,3.63,-1.56,1.19,1.47,-1.67,-4.47,-18.4375,20.75,330.6875,-0.5406494140625,0.4493408203125,0.6336669921875,0.0191,-6.875,2.25,-59.75,2.15,0.11,climb_up,7
6.04,5.963849856,23,3,3,3,0,-772.0,3.27,-0.78,1.83,1.08,-0.92,-3.69,-10.25,20.5625,328.8125,-0.53997802734375,0.44873046875,0.6356201171875,0.0191,-6.875,2.25,-59.6875,2.19,0.13,climb_up,7
6.05,5.980278526,23,3,3,3,0,-655.0,2.48,0.46,2.99,0.25,0.31,-3.04,-2.625,19.375,326.875,-0.53961181640625,0.44854736328125,0.63702392578125,0.0191,-6.875,2.25,-59.625,2.22,0.15,climb_up,7
6.06,5.980278526,23,3,3,3,0,-625.0,2.24,0.89,3.29,-0.01,0.74,-3.08,4.0625,16.8125,324.8125,-0.5396728515625,0.4483642578125,0.6380615234375,0.0191,-6.875,2.25,-59.625,2.25,0.15,climb_up,7
6.07,5.993677411,23,3,3,3,0,-596.0,2.13,1.11,3.57,-0.13,0.96,-3.64,9.3125,13.4375,322.5625,-0.54034423828125,0.447998046875,0.63885498046875,0.0195,-7.5625,-0.25,-59.5625,2.27,0.14,climb_up,7
6.08,5.993677411,23,3,3,3,0,-565.0,2.04,1.07,3.87,-0.24,0.94,-4.28,13.3125,9.875,320.1875,-0.54144287109375,0.44732666015625,0.6395263671875,0.0195,-7.5625,-0.25,-59.5625,2.29,0.13,climb_up,7
6.09,6.024101321,23,3,3,3,0,-526.0,1.97,0.57,4.26,-0.32,0.45,-4.99,18.0,6.3125,317.5625,-0.54302978515625,0.4464111328125,0.64007568359375,0.0195,-7.5625,-0.25,-59.5625,2.3,0.11,climb_up,7
6.1,6.024101321,23,3,3,3,0,-510.0,1.92,0.38,4.42,-0.38,0.29,-5.62,22.625,2.5625,314.8125,-0.545166015625,0.4451904296875,0.64044189453125,0.0195,-7.5625,-0.25,-59.5625,2.3,0.09,climb_up,7
6.11,6.038702558,23,3,3,3,0,-484.0,1.78,0.26,4.68,-0.52,0.19,-5.8,25.125,-0.25,312.0,-0.54754638671875,0.44378662109375,0.640625,0.0195,-7.5625,-0.25,-59.5625,2.3,0.06,climb_up,7
6.12,6.038702558,23,3,3,3,0,-465.0,1.79,0.17,4.88,-0.5,0.14,-5.57,26.0,-1.9375,309.375,-0.54998779296875,0.44244384765625,0.64068603515625,0.0202,-7.1875,-1.0625,-59.5625,2.3,0.03,climb_up,7
6.13,6.053781456,23,3,3,3,0,-476.0,1.9,0.08,4.76,-0.38,0.08,-5.59,27.75,-3.8125,306.8125,-0.5526123046875,0.4410400390625,0.64056396484375,0.0202,-7.1875,-1.0625,-59.5625,2.29,0.0,climb_up,7
6.14,6.053781456,23,3,3,3,0,-491.0,2.12,0.21,4.61,-0.16,0.24,-5.73,29.25,-4.5,304.125,-0.55535888671875,0.43963623046875,0.64044189453125,0.0202,-7.1875,-1.0625,-59.5625,2.28,-0.03,climb_up,7
6.15,6.084469078,23,3,3,3,0,-508.0,2.14,0.17,4.44,-0.13,0.24,-6.04,28.0625,-2.625,301.3125,-0.5579833984375,0.4381103515625,0.64044189453125,0.0202,-7.1875,-1.0625,-59.5625,2.28,-0.06,climb_up,7
6.16,6.084469078,23,3,3,3,0,-587.0,2.23,-0.37,3.66,-0.05,-0.28,-6.16,24.25,0.4375,298.375,-0.560302734375,0.43658447265625,0.6407470703125,0.0202,-7.1875,-1.0625,-59.5625,2.28,-0.08,climb_up,7
6.17,6.098632083,23,3,3,3,0,-626.0,2.11,-0.67,3.26,-0.17,-0.57,-6.34,19.9375,4.125,295.375,-0.56231689453125,0.43505859375,0.641357421875,0.0191,-7.875,-1.5,-59.5625,2.29,-0.1,climb_up,7
6.18,6.098632083,23,3,3,3,0,-676.0,1.98,-0.8,2.76,-0.31,-0.67,-6.43,20.375,6.875,292.1875,-0.56414794921875,0.43365478515625,0.64202880859375,0.0191,-7.875,-1.5,-59.5625,2.3,-0.12,climb_up,7
6.19,6.128720177,23,3,3,3,0,-735.0,2.02,-0.75,2.17,-0.29,-0.61,-6.37,23.625,7.5625,288.8125,-0.56622314453125,0.43243408203125,0.642578125,0.0191,-7.875,-1.5,-59.5,2.31,-0.14,climb_up,7
6.2,6.128720177,23,3,3,3,0,-804.0,2.09,-0.45,1.47,-0.23,-0.27,-6.38,28.875,6.375,285.3125,-0.56854248046875,0.43121337890625,0.642822265625,0.0191,-7.875,-1.5,-59.5,2.32,-0.18,climb_up,7
6.21,6.144030439,23,3,3,3,0,-839.0,1.99,-0.25,1.12,-0.34,-0.03,-6.32,34.875,4.6875,281.6875,-0.5712890625,0.4300537109375,0.64263916015625,0.0191,-7.875,-1.5,-59.5,2.33,-0.22,climb_up,7
6.22,6.144030439,23,3,3,3,0,-866.0,1.83,0.03,0.85,-0.51,0.3,-6.06,40.3125,2.8125,278.0,-0.5743408203125,0.4290771484375,0.64215087890625,0.0195,-6.5,0.375,-59.4375,2.34,-0.27,climb_up,7
6.23,6.158280602,23,3,3,3,0,-890.0,1.67,0.31,0.6,-0.67,0.65,-5.21,44.0625,1.1875,274.5625,-0.5775146484375,0.4283447265625,0.64117431640625,0.0195,-6.5,0.375,-59.4375,2.34,-0.33,climb_up,7
6.24,6.158280602,23,3,3,3,0,-911.0,1.53,0.67,0.39,-0.81,1.07,-3.72,45.1875,-0.875,271.6875,-0.58062744140625,0.42803955078125,0.63970947265625,0.0195,-6.5,0.375,-59.4375,2.34,-0.39,climb_up,7
6.25,6.189722171,23,3,3,3,0,-938.0,1.63,0.69,0.12,-0.71,1.16,-2.38,43.6875,-2.75,269.375,-0.58349609375,0.4281005859375,0.63800048828125,0.0195,-6.5,0.375,-59.4375,2.34,-0.46,climb_up,7
6.26,6.189722171,23,3,3,3,0,-985.0,1.98,0.58,-0.34,-0.35,1.11,-1.33,40.0,-4.5,267.6875,-0.58612060546875,0.4283447265625,0.63616943359375,0.0195,-6.5,0.375,-59.375,2.33,-0.52,climb_up,7
6.27,6.203545738,23,3,3,3,0,-1036.0,2.38,0.35,-0.85,0.05,0.94,-0.3,34.0,-6.0,266.625,-0.5882568359375,0.4287109375,0.63433837890625,0.0199,-6.5,0.375,-59.375,2.32,-0.58,climb_up,7
6.28,6.203545738,23,3,3,3,0,-1156.0,3.14,-0.17,-2.05,0.82,0.45,0.75,25.9375,-7.25,266.25,-0.58984375,0.42919921875,0.6326904296875,0.0199,-6.5,0.375,-59.375,2.31,-0.62,climb_up,7
6.29,6.218460493,23,3,3,3,0,-1214.0,3.33,-0.43,-2.63,1.03,0.22,1.34,18.75,-8.625,266.4375,-0.59100341796875,0.42962646484375,0.6312255859375,0.0199,-6.5,0.375,-59.375,2.3,-0.66,climb_up,7
6.3,6.218460493,23,3,3,3,0,-1214.0,3.33,-0.43,-2.63,1.03,0.22,1.34,18.75,-8.625,266.4375,-0.59100341796875,0.42962646484375,0.6312255859375,0.0199,-6.5,0.375,-59.375,2.3,-0.66,climb_up,7
6.3,6.234129112,23,3,3,3,0,-1258.0,3.49,-0.63,-3.06,1.21,0.05,1.23,14.0625,-10.5,266.9375,-0.592041015625,0.4298095703125,0.62994384765625,0.0199,-6.5,0.375,-59.4375,2.28,-0.69,climb_up,7
6.31,6.234129112,23,3,3,3,0,-1296.0,3.72,-0.39,-3.44,1.45,0.32,0.86,14.0,-13.25,267.4375,-0.5931396484375,0.42974853515625,0.62872314453125,0.0199,-6.5,0.375,-59.4375,2.26,-0.71,climb_up,7
6.32,6.248111575,23,3,3,3,0,-1310.0,3.98,0.0,-3.58,1.75,0.74,0.59,18.25,-16.875,267.875,-0.5947265625,0.42950439453125,0.62725830078125,0.0203,-7.25,-0.25,-59.4375,2.23,-0.74,climb_up,7
6.33,6.248111575,23,3,3,3,0,-1320.0,4.38,0.35,-3.67,2.18,1.13,0.22,23.875,-20.5,268.125,-0.59674072265625,0.4290771484375,0.62548828125,0.0203,-7.25,-0.25,-59.5,2.19,-0.78,climb_up,7
6.34,6.278707807,23,3,3,3,0,-1331.0,4.67,0.62,-3.78,2.51,1.46,-0.39,28.375,-24.375,268.3125,-0.5992431640625,0.4283447265625,0.62353515625,0.0203,-7.25,-0.25,-59.5,2.15,-0.83,climb_up,7
6.35,6.278707807,23,3,3,3,0,-1325.0,4.71,1.37,-3.71,2.59,2.25,-1.14,26.5625,-27.5,268.4375,-0.60186767578125,0.4271240234375,0.62176513671875,0.0203,-7.25,-0.25,-59.5625,2.11,-0.87,climb_up,7
6.36,6.293435346,23,3,3,3,0,-1313.0,4.7,1.69,-3.59,2.63,2.59,-1.82,16.6875,-29.125,268.75,-0.6041259765625,0.42535400390625,0.62066650390625,0.0203,-7.25,-0.25,-59.625,2.06,-0.89,climb_up,7
6.37,6.293435346,23,3,3,3,0,-1301.0,4.7,1.83,-3.46,2.68,2.73,-2.46,1.9375,-29.625,269.5,-0.60565185546875,0.4229736328125,0.6204833984375,0.0199,-7.0,-0.25,-59.6875,2.02,-0.89,climb_up,7
6.38,6.3087581,23,3,3,3,0,-1299.0,4.53,1.79,-3.43,2.56,2.65,-2.69,-16.0,-30.0,270.875,-0.60626220703125,0.42010498046875,0.62127685546875,0.0199,-7.0,-0.25,-59.75,1.97,-0.86,climb_up,7
6.39,6.3087581,23,3,3,3,0,-1149.0,3.39,1.05,-1.91,1.47,1.85,-2.38,-32.625,-30.0625,272.9375,-0.60595703125,0.41693115234375,0.62286376953125,0.0199,-7.0,-0.25,-59.875,1.92,-0.8,climb_up,7
6.4,6.338675174,23,3,3,3,0,-1033.0,2.62,0.52,-0.73,0.74,1.25,-1.48,-42.75,-30.375,275.6875,-0.60491943359375,0.41387939453125,0.624755859375,0.0199,-7.0,-0.25,-59.9375,1.87,-0.72,climb_up,7
6.41,6.338675174,23,3,3,3,0,-945.0,2.05,0.01,0.15,0.22,0.66,-0.31,-43.125,-30.1875,278.875,-0.6036376953125,0.4111328125,0.62640380859375,0.0199,-7.0,-0.25,-60.0625,1.82,-0.65,climb_up,7
6.42,6.354113976,23,3,3,3,0,-925.0,1.51,-0.72,0.37,-0.26,-0.12,0.59,-38.125,-28.6875,282.0625,-0.60247802734375,0.408935546875,0.62762451171875,0.0202,-7.0625,-0.6875,-60.125,1.77,-0.59,climb_up,7
6.43,6.354113976,23,3,3,3,0,-944.0,0.07,-2.15,0.19,-1.66,-1.62,1.73,-34.75,-26.125,285.375,-0.60125732421875,0.40728759765625,0.62841796875,0.0202,-7.0625,-0.6875,-60.1875,1.73,-0.53,climb_up,7
6.44,6.368329796,23,3,3,3,0,-963.0,-0.47,-2.87,0.01,-2.17,-2.38,2.89,-34.625,-22.8125,288.875,-0.59967041015625,0.40625,0.62908935546875,0.0202,-7.0625,-0.6875,-60.25,1.69,-0.48,climb_up,7
6.45,6.368329796,23,3,3,3,0,-980.0,-0.96,-3.62,-0.14,-2.62,-3.19,4.04,-36.0,-20.125,292.6875,-0.5977783203125,0.40570068359375,0.62957763671875,0.0202,-7.0625,-0.6875,-60.3125,1.65,-0.43,climb_up,7
6.46,6.399325157,23,3,3,3,0,-1035.0,-1.56,-4.9,-0.69,-3.18,-4.52,5.45,-35.0625,-19.125,296.875,-0.595703125,0.40570068359375,0.62969970703125,0.0202,-7.0625,-0.6875,-60.375,1.62,-0.38,climb_up,7
6.47,6.399325157,23,3,3,3,0,-1089.0,-1.5,-5.07,-1.22,-3.08,-4.73,7.14,-28.4375,-21.25,301.4375,-0.59375,0.40631103515625,0.62908935546875,0.0209,-6.25,-3.375,-60.4375,1.58,-0.34,climb_up,7
6.48,6.414217939,23,3,3,3,0,-1134.0,-1.25,-4.88,-1.66,-2.79,-4.55,8.3,-16.625,-24.625,306.1875,-0.59234619140625,0.407470703125,0.62744140625,0.0209,-6.25,-3.375,-60.4375,1.54,-0.33,climb_up,7
6.49,6.414217939,23,3,3,3,0,-1161.0,-0.91,-4.36,-1.92,-2.4,-4.03,8.28,-4.125,-27.1875,310.5625,-0.59173583984375,0.40875244140625,0.6251220703125,0.0209,-6.25,-3.375,-60.5,1.49,-0.33,climb_up,7
6.5,6.428488284,23,3,3,3,0,-1139.0,0.1,-3.23,-1.7,-1.34,-2.87,7.26,6.5625,-27.9375,314.3125,-0.59185791015625,0.40997314453125,0.62237548828125,0.0209,-6.25,-3.375,-60.5625,1.44,-0.36,climb_up,7
6.51,6.428488284,23,3,3,3,0,-1096.0,0.49,-2.66,-1.26,-0.89,-2.26,5.98,15.375,-26.6875,317.1875,-0.5926513671875,0.41107177734375,0.61956787109375,0.0209,-6.25,-3.375,-60.5625,1.39,-0.39,climb_up,7
6.52,6.458911746,23,3,3,3,0,-1046.0,0.72,-1.94,-0.76,-0.62,-1.5,5.02,24.4375,-24.875,319.3125,-0.59405517578125,0.412109375,0.616455078125,0.0186,-6.375,-4.5,-60.625,1.34,-0.44,climb_up,7
6.53,6.458911746,23,3,3,3,0,-990.0,0.92,-1.22,-0.19,-0.38,-0.71,4.31,33.1875,-22.25,320.75,-0.59588623046875,0.413330078125,0.6131591796875,0.0186,-6.375,-4.5,-60.625,1.3,-0.5,climb_up,7
6.54,6.473912031,23,3,3,3,0,-878.0,1.21,-0.03,0.92,-0.05,0.54,3.85,37.9375,-19.1875,321.6875,-0.59796142578125,0.41461181640625,0.6097412109375,0.0186,-6.375,-4.5,-60.625,1.27,-0.57,climb_up,7
6.55,6.473912031,23,3,3,3,0,-829.0,1.2,0.35,1.41,-0.03,1.0,3.7,36.6875,-15.875,322.4375,-0.599853515625,0.416015625,0.6065673828125,0.0186,-6.375,-4.5,-60.625,1.24,-0.64,climb_up,7
6.56,6.491623253,23,3,3,3,0,-829.0,1.2,0.35,1.41,-0.03,1.0,3.7,36.6875,-15.875,322.4375,-0.599853515625,0.416015625,0.6065673828125,0.0186,-6.375,-4.5,-60.625,1.24,-0.64,climb_up,7
6.56,6.491623253,23,3,3,3,0,-786.0,1.19,0.6,1.84,-0.02,1.31,3.74,31.6875,-12.3125,323.1875,-0.60137939453125,0.41748046875,0.60369873046875,0.0186,-6.375,-4.5,-60.625,1.22,-0.7,climb_up,7
6.57,6.503704267,23,3,3,3,0,-738.0,1.17,0.72,2.31,-0.02,1.47,3.69,25.5625,-9.3125,323.9375,-0.6024169921875,0.4189453125,0.60125732421875,0.0186,-5.6875,-6.0625,-60.625,1.2,-0.75,climb_up,7
6.58,6.503704267,23,3,3,3,0,-659.0,0.94,0.84,3.1,-0.24,1.63,3.55,20.0,-6.9375,324.8125,-0.60308837890625,0.4202880859375,0.59918212890625,0.0186,-5.6875,-6.0625,-60.625,1.18,-0.79,climb_up,7
