timestamp,android_nano_timestamp,temperature,calib_mag,calib_accel,calib_gyro,calib_sys,acc_x,acc_y,acc_z,lacc_x,lacc_y,lacc_z,gyro_x,gyro_y,gyro_z,quat_w,quat_x,quat_y,quat_z,mag_x,mag_y,mag_z,gravity_x,gravity_y,gravity_z,label,person
0.98,0.949052856,29,3,3,3,0,-8.66,1.83,-4.29,-0.01,0.05,-0.02,-1.4375,-0.5,-0.5,0.46563720703125,0.54937744140625,0.6448974609375,-0.25592041015625,34.5625,55.1875,56.875,-8.64,1.78,-4.26,Nothing,4
0.99,0.949052856,29,3,3,3,0,-8.7,1.79,-4.27,-0.05,0.01,0.0,-1.8125,-0.5625,-0.375,0.46575927734375,0.54925537109375,0.6448974609375,-0.255859375,34.5625,55.1875,56.875,-8.64,1.78,-4.26,Nothing,4
1.0,0.952805379,29,3,3,3,0,-8.71,1.79,-4.28,-0.06,0.01,-0.01,-2.0,-0.25,-0.5,0.46588134765625,0.5491943359375,0.64495849609375,-0.2557373046875,34.5625,55.1875,56.875,-8.64,1.78,-4.26,Nothing,4
1.01,0.952805379,29,3,3,3,0,-8.72,1.78,-4.29,-0.07,0.0,-0.02,-2.125,-0.375,-0.25,0.4659423828125,0.54913330078125,0.64501953125,-0.255615234375,34.25,55.5625,57.25,-8.64,1.78,-4.26,Nothing,4
1.02,0.969234253,29,3,3,3,0,-8.73,1.79,-4.29,-0.08,0.0,-0.02,-2.125,-0.125,-0.25,0.466064453125,0.54901123046875,0.64501953125,-0.2554931640625,34.25,55.5625,57.25,-8.64,1.78,-4.26,Nothing,4
1.03,0.969234253,29,3,3,3,0,-8.7,1.79,-4.31,-0.05,0.0,-0.05,-2.0625,0.0,-0.125,0.4661865234375,0.5489501953125,0.64508056640625,-0.25537109375,34.25,55.5625,57.25,-8.64,1.78,-4.26,Nothing,4
1.04,0.982898478,29,3,3,3,0,-8.69,1.82,-4.28,-0.04,0.03,-0.02,-1.9375,0.125,-0.0625,0.46624755859375,0.548828125,0.6451416015625,-0.25531005859375,34.25,55.5625,57.25,-8.64,1.78,-4.26,Nothing,4
1.05,0.982898478,29,3,3,3,0,-8.66,1.82,-4.28,-0.02,0.03,-0.01,-1.625,0.125,0.0,0.46630859375,0.54876708984375,0.6451416015625,-0.25518798828125,34.25,55.5625,57.25,-8.64,1.79,-4.26,Nothing,4
1.06,0.998780843,29,3,3,3,0,-8.68,1.82,-4.25,-0.03,0.03,0.01,-1.5,0.0,0.0,0.4664306640625,0.5487060546875,0.64520263671875,-0.255126953125,35.0,55.1875,56.875,-8.64,1.79,-4.26,Nothing,4
1.07,0.998780843,29,3,3,3,0,-8.69,1.8,-4.26,-0.04,0.01,0.0,-1.5625,0.1875,0.0,0.46649169921875,0.54864501953125,0.645263671875,-0.2550048828125,35.0,55.1875,56.875,-8.64,1.79,-4.26,Nothing,4
1.08,1.027406982,29,3,3,3,0,-8.69,1.82,-4.27,-0.04,0.03,-0.01,-1.5,0.75,0.0625,0.46649169921875,0.548583984375,0.64532470703125,-0.2548828125,35.0,55.1875,56.875,-8.64,1.79,-4.26,Nothing,4
1.09,1.027406982,29,3,3,3,0,-8.67,1.83,-4.24,-0.02,0.03,0.01,-1.4375,0.875,0.1875,0.466552734375,0.548583984375,0.6453857421875,-0.2547607421875,35.0,55.1875,56.875,-8.64,1.79,-4.26,Nothing,4
1.1,1.042314168,29,3,3,3,0,-8.65,1.8,-4.22,-0.01,0.0,0.04,-1.375,1.0,0.0625,0.466552734375,0.54852294921875,0.64544677734375,-0.254638671875,35.0,55.1875,56.875,-8.64,1.79,-4.26,Nothing,4
1.11,1.042314168,29,3,3,3,0,-8.65,1.8,-4.23,-0.01,0.0,0.02,-1.25,1.1875,0.1875,0.466552734375,0.54852294921875,0.6455078125,-0.2545166015625,35.25,54.75,58.0625,-8.64,1.79,-4.26,Nothing,4
1.12,1.056932332,29,3,3,3,0,-8.69,1.81,-4.22,-0.04,0.01,0.03,-1.0625,1.25,0.3125,0.46649169921875,0.54852294921875,0.6456298828125,-0.25439453125,35.25,54.75,58.0625,-8.64,1.79,-4.26,Nothing,4
1.13,1.056932332,29,3,3,3,0,-8.66,1.8,-4.26,-0.02,0.0,0.0,-0.9375,1.0,0.25,0.46649169921875,0.5484619140625,0.64569091796875,-0.2542724609375,35.25,54.75,58.0625,-8.64,1.79,-4.27,Nothing,4
1.14,1.086862468,29,3,3,3,0,-8.66,1.81,-4.22,-0.02,0.01,0.04,-0.875,0.5,0.125,0.466552734375,0.5484619140625,0.64569091796875,-0.25421142578125,35.25,54.75,58.0625,-8.64,1.79,-4.26,Nothing,4
1.15,1.086862468,29,3,3,3,0,-8.7,1.79,-4.21,-0.05,0.0,0.05,-1.125,0.3125,0.25,0.46661376953125,0.54840087890625,0.64569091796875,-0.254150390625,35.25,54.75,58.0625,-8.64,1.79,-4.26,Nothing,4
1.16,1.101442342,29,3,3,3,0,-8.7,1.81,-4.27,-0.06,0.01,0.0,-1.375,0.5625,0.0,0.46661376953125,0.54833984375,0.645751953125,-0.25408935546875,33.875,55.1875,58.5,-8.64,1.8,-4.26,Nothing,4
1.17,1.101442342,29,3,3,3,0,-8.72,1.82,-4.33,-0.08,0.02,-0.06,-1.5625,0.25,0.1875,0.46673583984375,0.54827880859375,0.64581298828125,-0.25396728515625,33.875,55.1875,58.5,-8.64,1.8,-4.26,Nothing,4
1.18,1.11738383,29,3,3,3,0,-8.72,1.81,-4.26,-0.07,0.0,0.0,-1.625,0.75,0.125,0.46673583984375,0.5482177734375,0.6458740234375,-0.25384521484375,33.875,55.1875,58.5,-8.64,1.8,-4.27,Nothing,4
1.19,1.11738383,29,3,3,3,0,-8.72,1.8,-4.24,-0.08,0.0,0.02,-1.4375,0.4375,0.25,0.466796875,0.54815673828125,0.64593505859375,-0.2537841796875,33.875,55.1875,58.5,-8.64,1.8,-4.26,Nothing,4
1.2,1.148225871,29,3,3,3,0,-8.68,1.81,-4.29,-0.04,0.0,-0.02,-1.75,0.3125,0.125,0.4669189453125,0.548095703125,0.64593505859375,-0.253662109375,33.875,55.1875,58.5,-8.64,1.8,-4.26,Nothing,4
1.21,1.148225871,29,3,3,3,0,-8.67,1.79,-4.26,-0.03,-0.01,0.0,-1.8125,0.3125,0.125,0.46697998046875,0.54803466796875,0.64599609375,-0.2535400390625,34.5625,55.1875,57.6875,-8.64,1.8,-4.26,Nothing,4
1.22,1.162054606,29,3,3,3,0,-8.66,1.78,-4.26,-0.02,-0.02,0.0,-1.6875,0.875,0.0,0.467041015625,0.5479736328125,0.64605712890625,-0.25341796875,34.5625,55.1875,57.6875,-8.64,1.8,-4.26,Nothing,4
1.23,1.162054606,29,3,3,3,0,-8.67,1.78,-4.23,-0.03,-0.02,0.03,-1.625,0.8125,-0.1875,0.467041015625,0.54791259765625,0.6461181640625,-0.2532958984375,34.5625,55.1875,57.6875,-8.64,1.8,-4.27,Nothing,4
1.24,1.17847168,29,3,3,3,0,-8.67,1.79,-4.24,-0.03,-0.01,0.02,-1.75,0.875,-0.125,0.46710205078125,0.5478515625,0.64617919921875,-0.253173828125,34.5625,55.1875,57.6875,-8.64,1.81,-4.27,Nothing,4
1.25,1.17847168,29,3,3,3,0,-8.67,1.77,-4.21,-0.03,-0.03,0.05,-1.875,0.8125,-0.1875,0.46710205078125,0.54779052734375,0.64630126953125,-0.25299072265625,34.5625,55.1875,57.6875,-8.63,1.81,-4.27,Nothing,4
1.26,1.207843547,29,3,3,3,0,-8.62,1.77,-4.23,0.0,-0.04,0.03,-1.8125,0.5,-0.1875,0.46722412109375,0.5477294921875,0.64630126953125,-0.2529296875,34.5625,54.75,57.25,-8.63,1.81,-4.27,Nothing,4
1.27,1.207843547,29,3,3,3,0,-8.64,1.78,-4.23,0.0,-0.02,0.03,-1.625,0.625,-0.125,0.46722412109375,0.54766845703125,0.6463623046875,-0.25274658203125,34.5625,54.75,57.25,-8.63,1.81,-4.27,Nothing,4
1.28,1.222282145,29,3,3,3,0,-8.63,1.8,-4.23,0.0,-0.01,0.03,-1.375,0.1875,-0.125,0.46728515625,0.547607421875,0.64642333984375,-0.252685546875,34.5625,54.75,57.25,-8.63,1.81,-4.27,Nothing,4
1.29,1.222282145,29,3,3,3,0,-8.65,1.83,-4.23,-0.01,0.01,0.03,-1.125,0.0,-0.125,0.46734619140625,0.547607421875,0.64642333984375,-0.25262451171875,34.5625,54.75,57.25,-8.63,1.81,-4.27,Nothing,4
1.3,1.237168823,29,3,3,3,0,-8.64,1.81,-4.2,0.0,0.0,0.06,-1.0,-0.125,-0.0625,0.4674072265625,0.54754638671875,0.646484375,-0.2525634765625,34.5625,54.75,57.25,-8.63,1.81,-4.27,Nothing,4
1.31,1.237168823,29,3,3,3,0,-8.64,1.82,-4.24,0.0,0.01,0.02,-1.0,-0.125,-0.3125,0.46746826171875,0.5474853515625,0.646484375,-0.25250244140625,35.0,54.75,56.5,-8.63,1.81,-4.26,Nothing,4
1.32,1.269251099,29,3,3,3,0,-8.68,1.82,-4.24,-0.04,0.0,0.02,-1.0,-0.125,-0.3125,0.467529296875,0.54742431640625,0.64654541015625,-0.25244140625,35.0,54.75,56.5,-8.63,1.81,-4.26,Nothing,4
1.33,1.269251099,29,3,3,3,0,-8.7,1.8,-4.28,-0.06,-0.01,-0.01,-1.0625,0.0,-0.3125,0.46759033203125,0.54742431640625,0.64654541015625,-0.25238037109375,35.0,54.75,56.5,-8.63,1.81,-4.26,Nothing,4
1.34,1.282463583,29,3,3,3,0,-8.7,1.81,-4.26,-0.06,0.0,0.0,-1.0625,0.0,-0.25,0.4676513671875,0.54736328125,0.64654541015625,-0.2523193359375,35.0,54.75,56.5,-8.63,1.82,-4.26,Nothing,4
1.35,1.282463583,29,3,3,3,0,-8.71,1.81,-4.28,-0.07,0.0,-0.01,-1.0625,0.0625,-0.1875,0.4676513671875,0.54730224609375,0.6466064453125,-0.25225830078125,35.0,54.75,56.5,-8.63,1.82,-4.26,Nothing,4
1.36,1.298170451,29,3,3,3,0,-8.73,1.82,-4.28,-0.09,0.0,-0.01,-0.625,0.125,-0.125,0.46771240234375,0.54730224609375,0.6466064453125,-0.25225830078125,35.0,55.1875,58.0625,-8.63,1.82,-4.26,Nothing,4
1.37,1.298170451,29,3,3,3,0,-8.7,1.83,-4.27,-0.06,0.01,0.0,-0.625,0.125,-0.125,0.4677734375,0.5472412109375,0.6466064453125,-0.252197265625,35.0,55.1875,58.0625,-8.63,1.82,-4.26,Nothing,4
1.38,1.327796916,29,3,3,3,0,-8.69,1.83,-4.29,-0.05,0.01,-0.02,-0.625,0.5,-0.125,0.4677734375,0.5472412109375,0.6466064453125,-0.25213623046875,35.0,55.1875,58.0625,-8.63,1.82,-4.26,Nothing,4
1.39,1.327796916,29,3,3,3,0,-8.7,1.83,-4.31,-0.06,0.01,-0.04,-0.6875,0.6875,-0.0625,0.4677734375,0.5472412109375,0.64666748046875,-0.2520751953125,35.0,55.1875,58.0625,-8.63,1.82,-4.26,Nothing,4
1.4,1.343168254,29,3,3,3,0,-8.65,1.84,-4.27,-0.01,0.02,0.0,-0.5,0.75,-0.1875,0.46771240234375,0.5472412109375,0.646728515625,-0.2520751953125,35.0,55.1875,58.0625,-8.63,1.82,-4.26,Nothing,4
1.41,1.343168254,29,3,3,3,0,-8.64,1.84,-4.28,0.0,0.02,-0.01,-0.125,0.3125,-0.0625,0.46771240234375,0.5472412109375,0.646728515625,-0.2520751953125,35.0,54.75,58.5,-8.63,1.82,-4.26,Nothing,4
1.42,1.356683146,29,3,3,3,0,-8.63,1.84,-4.24,0.0,0.02,0.02,-0.125,0.3125,-0.0625,0.46771240234375,0.5472412109375,0.646728515625,-0.2520751953125,35.0,54.75,58.5,-8.63,1.82,-4.26,Nothing,4
1.43,1.356683146,29,3,3,3,0,-8.63,1.83,-4.25,0.0,0.01,0.01,-0.0625,0.5,0.0,0.46771240234375,0.5472412109375,0.646728515625,-0.2520751953125,35.0,54.75,58.5,-8.63,1.82,-4.26,Nothing,4
1.44,1.386948893,29,3,3,3,0,-8.62,1.8,-4.2,0.01,-0.01,0.05,0.125,0.4375,-0.0625,0.46771240234375,0.5472412109375,0.646728515625,-0.2520751953125,35.0,54.75,58.5,-8.63,1.82,-4.26,Nothing,4
1.45,1.386948893,29,3,3,3,0,-8.64,1.83,-4.19,0.0,0.01,0.07,0.375,0.0,0.0,0.46771240234375,0.5472412109375,0.646728515625,-0.2520751953125,35.0,54.75,58.5,-8.63,1.82,-4.26,Nothing,4
1.46,1.402788656,29,3,3,3,0,-8.63,1.81,-4.19,0.0,-0.01,0.07,0.625,-0.375,0.1875,0.46771240234375,0.5472412109375,0.64666748046875,-0.2520751953125,34.5625,54.75,58.0625,-8.63,1.82,-4.26,Nothing,4
1.47,1.402788656,29,3,3,3,0,-8.64,1.82,-4.22,-0.01,0.0,0.04,0.625,-0.375,0.1875,0.4676513671875,0.54730224609375,0.64666748046875,-0.25213623046875,34.5625,54.75,58.0625,-8.63,1.82,-4.27,Nothing,4
1.48,1.417236654,29,3,3,3,0,-8.66,1.8,-4.27,-0.02,-0.01,0.0,0.6875,-0.625,0.25,0.4676513671875,0.54730224609375,0.6466064453125,-0.252197265625,34.5625,54.75,58.0625,-8.63,1.82,-4.26,Nothing,4
1.49,1.417236654,29,3,3,3,0,-8.67,1.78,-4.27,-0.03,-0.03,0.0,0.625,-0.625,0.25,0.4676513671875,0.54730224609375,0.6466064453125,-0.25225830078125,34.5625,54.75,58.0625,-8.63,1.82,-4.26,Nothing,4
1.5,1.448142741,29,3,3,3,0,-8.67,1.79,-4.29,-0.03,-0.02,-0.02,0.625,-0.75,0.1875,0.46771240234375,0.54730224609375,0.64654541015625,-0.25238037109375,34.5625,54.75,58.0625,-8.63,1.82,-4.26,Nothing,4
1.51,1.448142741,29,3,3,3,0,-8.68,1.8,-4.31,-0.04,-0.01,-0.04,0.75,-0.8125,0.4375,0.46771240234375,0.54736328125,0.646484375,-0.25244140625,34.25,54.75,58.0625,-8.64,1.81,-4.26,Nothing,4
1.52,1.463565389,29,3,3,3,0,-8.65,1.79,-4.32,-0.01,-0.02,-0.05,0.75,-0.8125,0.4375,0.46771240234375,0.54736328125,0.64642333984375,-0.25250244140625,34.25,54.75,58.0625,-8.64,1.81,-4.26,Nothing,4
1.53,1.463565389,29,3,3,3,0,-8.65,1.81,-4.32,-0.01,0.0,-0.05,1.0,-0.5,0.5,0.4676513671875,0.54736328125,0.64642333984375,-0.2525634765625,34.25,54.75,58.0625,-8.64,1.81,-4.26,Nothing,4
1.54,1.477705323,29,3,3,3,0,-8.67,1.8,-4.32,-0.03,-0.01,-0.06,1.125,-0.1875,0.5625,0.46759033203125,0.5474853515625,0.6463623046875,-0.25262451171875,34.25,54.75,58.0625,-8.64,1.81,-4.26,Nothing,4
1.55,1.477705323,29,3,3,3,0,-8.68,1.83,-4.27,-0.04,0.01,0.0,1.375,-0.1875,0.6875,0.46759033203125,0.54754638671875,0.64630126953125,-0.252685546875,34.25,54.75,58.0625,-8.64,1.81,-4.26,Nothing,4
1.56,1.507391765,29,3,3,3,0,-8.69,1.81,-4.24,-0.05,0.0,0.02,1.1875,-0.75,0.8125,0.46759033203125,0.54766845703125,0.64617919921875,-0.25274658203125,33.875,55.5625,58.5,-8.64,1.81,-4.26,Nothing,4
1.57,1.507391765,29,3,3,3,0,-8.69,1.84,-4.25,-0.05,0.02,0.01,1.1875,-0.75,0.8125,0.46759033203125,0.5477294921875,0.6461181640625,-0.2528076171875,33.875,55.5625,58.5,-8.64,1.81,-4.26,Nothing,4
1.58,1.521568197,29,3,3,3,0,-8.69,1.82,-4.31,-0.05,0.0,-0.05,1.5,-0.6875,0.75,0.46759033203125,0.54779052734375,0.64599609375,-0.2529296875,33.875,55.5625,58.5,-8.64,1.81,-4.26,Nothing,4
1.59,1.521568197,29,3,3,3,0,-8.67,1.85,-4.32,-0.03,0.03,-0.05,1.4375,-0.6875,0.8125,0.467529296875,0.54791259765625,0.6458740234375,-0.25299072265625,33.875,55.5625,58.5,-8.64,1.81,-4.26,Nothing,4
1.6,1.536996298,29,3,3,3,0,-8.65,1.83,-4.27,-0.01,0.01,0.0,1.5,-0.125,0.875,0.467529296875,0.54803466796875,0.64581298828125,-0.2530517578125,33.875,55.5625,58.5,-8.64,1.81,-4.26,Nothing,4
1.61,1.536996298,29,3,3,3,0,-8.64,1.82,-4.28,0.0,0.0,-0.01,2.0,-0.0625,1.4375,0.46746826171875,0.5482177734375,0.64569091796875,-0.25311279296875,34.5625,54.1875,58.5,-8.64,1.82,-4.26,Nothing,4
1.62,1.567365031,29,3,3,3,0,-8.65,1.82,-4.28,-0.01,0.0,-0.01,2.0,-0.0625,1.4375,0.46734619140625,0.54833984375,0.64556884765625,-0.253173828125,34.5625,54.1875,58.5,-8.64,1.82,-4.26,Nothing,4
1.63,1.567365031,29,3,3,3,0,-8.62,1.84,-4.24,0.02,0.02,0.01,2.375,-0.4375,1.375,0.46728515625,0.54852294921875,0.64544677734375,-0.25323486328125,34.5625,54.1875,58.5,-8.64,1.82,-4.26,Nothing,4
1.64,1.582544149,29,3,3,3,0,-8.63,1.83,-4.22,0.0,0.01,0.04,2.625,-0.5,1.4375,0.46722412109375,0.5487060546875,0.64532470703125,-0.25335693359375,34.5625,54.1875,58.5,-8.63,1.82,-4.26,Nothing,4
1.65,1.582544149,29,3,3,3,0,-8.63,1.82,-4.23,0.0,0.0,0.02,2.625,-0.6875,1.5625,0.4671630859375,0.54888916015625,0.6451416015625,-0.25347900390625,34.5625,54.1875,58.5,-8.63,1.82,-4.26,Nothing,4
1.66,1.612643392,29,3,3,3,0,-8.63,1.84,-4.24,0.0,0.02,0.02,2.0625,-1.5625,1.375,0.4671630859375,0.54901123046875,0.64501953125,-0.25360107421875,35.0,54.75,57.6875,-8.64,1.82,-4.26,Nothing,4
1.67,1.612643392,29,3,3,3,0,-8.62,1.86,-4.26,0.02,0.04,0.0,2.0625,-1.5625,1.375,0.4671630859375,0.54913330078125,0.64483642578125,-0.25372314453125,35.0,54.75,57.6875,-8.64,1.82,-4.26,Nothing,4
1.68,1.626830974,29,3,3,3,0,-8.61,1.83,-4.28,0.03,0.0,-0.02,1.625,-1.875,1.5,0.46722412109375,0.54925537109375,0.6446533203125,-0.25384521484375,35.0,54.75,57.6875,-8.64,1.82,-4.26,Nothing,4
1.69,1.626830974,29,3,3,3,0,-8.6,1.83,-4.28,0.03,0.0,-0.02,1.125,-2.0,1.375,0.46734619140625,0.54937744140625,0.64447021484375,-0.25396728515625,35.0,54.75,57.6875,-8.64,1.82,-4.25,Nothing,4
1.7,1.642736939,29,3,3,3,0,-8.64,1.81,-4.27,0.0,0.0,-0.02,0.375,-2.1875,1.25,0.46746826171875,0.54937744140625,0.644287109375,-0.2540283203125,35.0,54.75,57.6875,-8.64,1.82,-4.25,Nothing,4
1.71,1.642736939,29,3,3,3,0,-8.64,1.81,-4.28,0.0,-0.01,-0.03,-0.75,-2.3125,1.625,0.46771240234375,0.54937744140625,0.6441650390625,-0.2540283203125,35.25,54.5,57.6875,-8.64,1.83,-4.25,Nothing,4
1.72,1.657914755,29,3,3,3,0,-8.63,1.81,-4.31,0.0,-0.01,-0.06,-0.75,-2.3125,1.625,0.4678955078125,0.54937744140625,0.64398193359375,-0.2540283203125,35.25,54.5,57.6875,-8.64,1.83,-4.24,Nothing,4
1.73,1.657914755,29,3,3,3,0,-8.62,1.81,-4.34,0.02,-0.02,-0.1,-1.0,-1.9375,1.5625,0.46807861328125,0.54937744140625,0.64385986328125,-0.25396728515625,35.25,54.5,57.6875,-8.64,1.83,-4.24,Nothing,4
1.74,1.687318441,29,3,3,3,0,-8.58,1.79,-4.35,0.06,-0.04,-0.11,-1.125,-1.5625,1.8125,0.46826171875,0.5494384765625,0.64373779296875,-0.25390625,35.25,54.5,57.6875,-8.64,1.84,-4.24,Nothing,4
1.75,1.687318441,29,3,3,3,0,-8.56,1.79,-4.33,0.08,-0.04,-0.1,-1.1875,-1.5,1.625,0.46844482421875,0.5494384765625,0.64361572265625,-0.25384521484375,35.25,54.5,57.6875,-8.64,1.84,-4.23,Nothing,4
1.76,1.702618978,29,3,3,3,0,-8.56,1.81,-4.32,0.08,-0.03,-0.08,-1.625,-1.3125,1.3125,0.4686279296875,0.54937744140625,0.6435546875,-0.2537841796875,34.25,55.5625,56.875,-8.64,1.84,-4.23,Nothing,4
1.77,1.702618978,29,3,3,3,0,-8.57,1.82,-4.32,0.07,-0.02,-0.08,-1.625,-1.3125,1.3125,0.46881103515625,0.54937744140625,0.6434326171875,-0.253662109375,34.25,55.5625,56.875,-8.65,1.85,-4.23,Nothing,4
1.78,1.716547567,29,3,3,3,0,-8.57,1.8,-4.27,0.07,-0.05,-0.04,-1.8125,-1.125,1.125,0.468994140625,0.54931640625,0.64337158203125,-0.25360107421875,34.25,55.5625,56.875,-8.65,1.85,-4.23,Nothing,4
1.79,1.716547567,29,3,3,3,0,-8.56,1.81,-4.25,0.08,-0.03,-0.02,-2.125,-1.375,0.75,0.46917724609375,0.54925537109375,0.643310546875,-0.25347900390625,34.25,55.5625,56.875,-8.65,1.85,-4.22,Nothing,4
1.8,1.748784546,29,3,3,3,0,-8.57,1.8,-4.23,0.08,-0.05,0.0,-2.3125,-1.5625,0.3125,0.46942138671875,0.54913330078125,0.643310546875,-0.25341796875,34.25,55.5625,56.875,-8.65,1.85,-4.22,Nothing,4
1.81,1.748784546,29,3,3,3,0,-8.58,1.83,-4.22,0.06,-0.02,0.0,-2.625,-2.125,0.125,0.46966552734375,0.54901123046875,0.643310546875,-0.25341796875,36.0625,54.1875,57.5625,-8.65,1.85,-4.22,Nothing,4
1.82,1.76352653,29,3,3,3,0,-8.6,1.87,-4.24,0.05,0.01,-0.02,-2.625,-2.125,0.125,0.46990966796875,0.548828125,0.64324951171875,-0.25335693359375,36.0625,54.1875,57.5625,-8.65,1.86,-4.21,Nothing,4
1.83,1.76352653,29,3,3,3,0,-8.62,1.86,-4.2,0.03,0.0,0.0,-2.75,-2.5625,0.0,0.47015380859375,0.54864501953125,0.64324951171875,-0.2532958984375,36.0625,54.1875,57.5625,-8.65,1.86,-4.21,Nothing,4
1.84,1.777845826,29,3,3,3,0,-8.63,1.84,-4.18,0.02,-0.02,0.02,-3.0,-2.8125,-0.125,0.470458984375,0.5484619140625,0.6431884765625,-0.2532958984375,36.0625,54.1875,57.5625,-8.65,1.86,-4.2,Nothing,4
1.85,1.777845826,29,3,3,3,0,-8.6,1.87,-4.21,0.06,0.0,-0.01,-3.125,-2.75,0.0,0.47076416015625,0.54827880859375,0.64312744140625,-0.25323486328125,36.0625,54.1875,57.5625,-8.66,1.86,-4.2,Nothing,4
1.86,1.806999634,29,3,3,3,0,-8.64,1.91,-4.23,0.01,0.04,-0.03,-3.3125,-3.0,0.1875,0.47113037109375,0.548095703125,0.64306640625,-0.253173828125,34.25,54.0625,57.1875,-8.66,1.87,-4.19,Nothing,4
1.87,1.806999634,29,3,3,3,0,-8.67,1.92,-4.14,-0.01,0.05,0.04,-3.3125,-3.0,0.1875,0.471435546875,0.5478515625,0.64300537109375,-0.253173828125,34.25,54.0625,57.1875,-8.66,1.87,-4.19,Nothing,4
1.88,1.821601604,29,3,3,3,0,-8.63,1.92,-4.17,0.03,0.05,0.0,-3.5,-3.4375,0.4375,0.4718017578125,0.54766845703125,0.6429443359375,-0.25311279296875,34.25,54.0625,57.1875,-8.66,1.87,-4.18,Nothing,4
1.89,1.821601604,29,3,3,3,0,-8.59,1.92,-4.22,0.08,0.04,-0.05,-3.875,-4.0,0.4375,0.47222900390625,0.54742431640625,0.64288330078125,-0.25311279296875,34.25,54.0625,57.1875,-8.67,1.87,-4.17,Nothing,4
1.9,1.837296753,29,3,3,3,0,-8.59,1.93,-4.23,0.07,0.05,-0.06,-4.3125,-4.3125,0.5625,0.47271728515625,0.54718017578125,0.64276123046875,-0.2530517578125,34.25,54.0625,57.1875,-8.67,1.88,-4.16,Nothing,4
1.91,1.837296753,29,3,3,3,0,-8.6,1.94,-4.21,0.07,0.05,-0.05,-4.875,-4.25,0.3125,0.47314453125,0.546875,0.6427001953125,-0.25299072265625,35.0,54.0625,56.75,-8.67,1.88,-4.16,Nothing,4
1.92,1.866729493,29,3,3,3,0,-8.62,1.95,-4.2,0.06,0.06,-0.04,-4.875,-4.25,0.3125,0.4736328125,0.54656982421875,0.64263916015625,-0.25286865234375,35.0,54.0625,56.75,-8.68,1.88,-4.15,Nothing,4
1.93,1.866729493,29,3,3,3,0,-8.66,1.97,-4.2,0.01,0.08,-0.05,-5.0,-3.875,0.25,0.47412109375,0.5462646484375,0.642578125,-0.2528076171875,35.0,54.0625,56.75,-8.68,1.89,-4.14,Nothing,4
1.94,1.883072022,29,3,3,3,0,-8.68,1.96,-4.2,0.0,0.06,-0.07,-4.8125,-3.875,0.1875,0.47454833984375,0.54595947265625,0.64251708984375,-0.25274658203125,35.0,54.0625,56.75,-8.68,1.89,-4.13,Nothing,4
1.95,1.883072022,29,3,3,3,0,-8.68,1.97,-4.2,0.0,0.07,-0.07,-4.3125,-3.8125,0.3125,0.4749755859375,0.54571533203125,0.6424560546875,-0.252685546875,35.0,54.0625,56.75,-8.68,1.89,-4.13,Nothing,4
1.96,1.896834188,29,3,3,3,0,-8.66,1.97,-4.19,0.02,0.07,-0.07,-3.75,-4.0625,0.125,0.475341796875,0.54547119140625,0.64239501953125,-0.25262451171875,34.5625,53.75,56.75,-8.69,1.9,-4.12,Nothing,4
1.97,1.896834188,29,3,3,3,0,-8.62,2.01,-4.19,0.07,0.1,-0.07,-3.75,-4.0625,0.125,0.47576904296875,0.54522705078125,0.64227294921875,-0.25262451171875,34.5625,53.75,56.75,-8.69,1.9,-4.11,Nothing,4
1.98,1.927783814,29,3,3,3,0,-8.63,2.06,-4.19,0.06,0.16,-0.08,-3.5,-3.625,0.0625,0.47613525390625,0.54498291015625,0.6422119140625,-0.25262451171875,34.5625,53.75,56.75,-8.69,1.9,-4.1,Nothing,4
1.99,1.927783814,29,3,3,3,0,-8.67,2.08,-4.18,0.02,0.17,-0.07,-3.4375,-3.0625,0.125,0.47650146484375,0.5447998046875,0.64215087890625,-0.2525634765625,34.5625,53.75,56.75,-8.69,1.91,-4.1,Nothing,4
2.0,1.942674561,29,3,3,3,0,-8.7,2.12,-4.14,0.0,0.21,-0.05,-3.3125,-2.625,0.0,0.476806640625,0.54461669921875,0.64215087890625,-0.25250244140625,34.5625,53.75,56.75,-8.7,1.91,-4.09,Nothing,4
2.01,1.942674561,29,3,3,3,0,-8.8,2.15,-4.09,-0.1,0.23,0.0,-2.8125,-1.875,-0.25,0.47705078125,0.54443359375,0.64208984375,-0.25244140625,35.0,54.5,56.75,-8.7,1.91,-4.09,Nothing,4
2.02,1.957600464,29,3,3,3,0,-8.84,2.15,-4.07,-0.14,0.23,0.01,-2.5625,-1.625,-0.6875,0.47723388671875,0.54425048828125,0.64215087890625,-0.25238037109375,35.0,54.5,56.75,-8.7,1.91,-4.09,Nothing,4
2.03,1.957600464,29,3,3,3,0,-8.86,2.1,-4.1,-0.16,0.19,-0.01,-2.5625,-1.625,-0.6875,0.4774169921875,0.5440673828125,0.64215087890625,-0.2523193359375,35.0,54.5,56.75,-8.7,1.91,-4.08,Nothing,4
2.04,1.998243205,29,3,3,3,0,-8.83,2.09,-4.11,-0.12,0.17,-0.03,-2.25,-1.625,-1.0625,0.47760009765625,0.54388427734375,0.6422119140625,-0.2523193359375,35.0,54.5,56.75,-8.7,1.91,-4.08,Nothing,4
2.05,1.998243205,29,3,3,3,0,-8.81,2.07,-4.13,-0.1,0.16,-0.05,-1.8125,-1.6875,-1.0625,0.477783203125,0.543701171875,0.6422119140625,-0.25238037109375,35.0,54.5,56.75,-8.7,1.91,-4.08,Nothing,4
2.06,2.002376465,29,3,3,3,0,-8.78,2.03,-4.13,-0.07,0.11,-0.05,-1.1875,-0.9375,-1.0,0.47784423828125,0.5435791015625,0.64227294921875,-0.25238037109375,34.5625,52.6875,58.375,-8.71,1.91,-4.07,Nothing,4
2.07,2.002376465,29,3,3,3,0,-8.74,2.01,-4.15,-0.03,0.09,-0.07,-0.9375,-0.5,-0.8125,0.4779052734375,0.54345703125,0.642333984375,-0.25238037109375,34.5625,52.6875,58.375,-8.71,1.91,-4.07,Nothing,4
2.08,2.016711752,29,3,3,3,0,-8.73,1.98,-4.13,-0.01,0.07,-0.06,-0.75,-0.0625,-0.625,0.4779052734375,0.54339599609375,0.642333984375,-0.2523193359375,34.5625,52.6875,58.375,-8.71,1.91,-4.07,Nothing,4
2.09,2.016711752,29,3,3,3,0,-8.72,1.99,-4.1,-0.01,0.08,-0.02,-0.9375,0.25,-0.25,0.47796630859375,0.54339599609375,0.64239501953125,-0.25225830078125,34.5625,52.6875,58.375,-8.71,1.91,-4.07,Nothing,4
2.1,2.048509319,29,3,3,3,0,-8.71,1.96,-4.07,0.0,0.05,0.0,-1.4375,0.4375,-0.3125,0.47802734375,0.5433349609375,0.64239501953125,-0.252197265625,34.5625,52.6875,58.375,-8.71,1.91,-4.07,Nothing,4
2.11,2.048509319,29,3,3,3,0,-8.69,1.92,-4.03,0.01,0.0,0.04,-2.0,0.75,-0.0625,0.47808837890625,0.54327392578125,0.64251708984375,-0.2520751953125,35.0,54.5,58.0,-8.7,1.91,-4.07,Nothing,4
2.12,2.063370891,29,3,3,3,0,-8.63,1.87,-4.04,0.07,-0.04,0.03,-2.75,0.5625,-0.4375,0.4781494140625,0.54315185546875,0.642578125,-0.2518310546875,35.0,54.5,58.0,-8.7,1.91,-4.07,Nothing,4
2.13,2.063370891,29,3,3,3,0,-8.62,1.86,-4.01,0.08,-0.05,0.06,-3.3125,0.4375,-0.375,0.47833251953125,0.54302978515625,0.64263916015625,-0.25164794921875,35.0,54.5,58.0,-8.7,1.92,-4.07,Nothing,4
2.14,2.093163656,29,3,3,3,0,-8.62,1.82,-3.99,0.08,-0.09,0.08,-4.25,0.1875,-0.75,0.478515625,0.54278564453125,0.64276123046875,-0.25146484375,35.0,54.5,58.0,-8.7,1.92,-4.07,Nothing,4
2.15,2.093163656,29,3,3,3,0,-8.64,1.83,-3.98,0.06,-0.08,0.08,-5.3125,-0.25,-1.1875,0.478759765625,0.54248046875,0.6429443359375,-0.251220703125,35.0,54.5,58.0,-8.71,1.92,-4.07,Nothing,4
2.16,2.106705893,29,3,3,3,0,-8.75,1.78,-4.0,-0.04,-0.14,0.06,-5.8125,-0.9375,-1.6875,0.47906494140625,0.5421142578125,0.64312744140625,-0.2509765625,35.0,54.0625,56.75,-8.71,1.92,-4.07,Nothing,4
2.17,2.106705893,29,3,3,3,0,-8.76,1.75,-3.98,-0.05,-0.17,0.08,-6.125,-1.4375,-2.0,0.4793701171875,0.541748046875,0.643310546875,-0.25079345703125,35.0,54.0625,56.75,-8.71,1.92,-4.06,Nothing,4
2.18,2.122494874,29,3,3,3,0,-8.82,1.75,-4.02,-0.1,-0.17,0.03,-6.5625,-1.625,-2.375,0.479736328125,0.541259765625,0.64349365234375,-0.2506103515625,35.0,54.0625,56.75,-8.71,1.92,-4.06,Nothing,4
2.19,2.122494874,29,3,3,3,0,-8.85,1.76,-4.06,-0.13,-0.16,-0.01,-6.625,-2.1875,-2.5,0.4801025390625,0.54083251953125,0.6436767578125,-0.25042724609375,35.0,54.0625,56.75,-8.71,1.93,-4.05,Nothing,4
2.2,2.152109742,29,3,3,3,0,-8.83,1.81,-4.04,-0.11,-0.11,0.0,-7.0,-2.8125,-2.625,0.48052978515625,0.54034423828125,0.643798828125,-0.25030517578125,35.0,54.0625,56.75,-8.72,1.93,-4.04,Nothing,4
2.21,2.152109742,29,3,3,3,0,-8.79,1.83,-3.98,-0.07,-0.09,0.05,-7.6875,-2.5625,-2.4375,0.48101806640625,0.539794921875,0.64398193359375,-0.25006103515625,34.5625,53.375,58.0,-8.72,1.93,-4.04,Nothing,4
2.22,2.166956666,29,3,3,3,0,-8.8,1.84,-3.97,-0.08,-0.09,0.06,-8.0,-2.0,-2.0625,0.4814453125,0.539306640625,0.6441650390625,-0.24981689453125,34.5625,53.375,58.0,-8.72,1.93,-4.03,Nothing,4
2.23,2.166956666,29,3,3,3,0,-8.76,1.89,-4.1,-0.04,-0.04,-0.07,-8.875,-1.4375,-1.6875,0.48193359375,0.538818359375,0.6444091796875,-0.24945068359375,34.5625,53.375,58.0,-8.72,1.93,-4.03,Nothing,4
2.24,2.182948528,29,3,3,3,0,-8.79,1.85,-4.02,-0.06,-0.08,0.0,-9.375,-0.375,-1.4375,0.4822998046875,0.538330078125,0.6446533203125,-0.2490234375,34.5625,53.375,58.0,-8.72,1.94,-4.02,Nothing,4
2.25,2.182948528,29,3,3,3,0,-8.8,1.78,-4.04,-0.07,-0.16,-0.02,-9.0,0.4375,-0.9375,0.48272705078125,0.53790283203125,0.6448974609375,-0.24853515625,34.5625,53.375,58.0,-8.72,1.94,-4.02,Nothing,4
2.26,2.19831071,29,3,3,3,0,-8.81,1.79,-4.03,-0.08,-0.15,-0.01,-8.25,0.8125,-0.5625,0.4830322265625,0.53753662109375,0.6451416015625,-0.248046875,35.25,53.75,58.75,-8.72,1.95,-4.02,Nothing,4
2.27,2.19831071,29,3,3,3,0,-8.87,1.8,-3.98,-0.14,-0.15,0.04,-8.0,0.6875,-0.25,0.4833984375,0.53717041015625,0.64532470703125,-0.24755859375,35.25,53.75,58.75,-8.72,1.95,-4.02,Nothing,4
2.28,2.22805359,29,3,3,3,0,-8.9,1.81,-3.95,-0.17,-0.14,0.06,-8.0,0.8125,-0.1875,0.48370361328125,0.536865234375,0.64556884765625,-0.2470703125,35.25,53.75,58.75,-8.72,1.96,-4.02,Nothing,4
2.29,2.22805359,29,3,3,3,0,-8.93,1.85,-3.89,-0.2,-0.11,0.12,-8.375,1.125,-0.3125,0.4840087890625,0.53656005859375,0.64581298828125,-0.24652099609375,35.25,53.75,58.75,-8.72,1.97,-4.01,Nothing,4
2.3,2.242321859,29,3,3,3,0,-8.91,1.83,-3.91,-0.19,-0.14,0.1,-9.1875,1.4375,-0.375,0.484375,0.5361328125,0.64605712890625,-0.24603271484375,35.25,53.75,58.75,-8.72,1.97,-4.01,Nothing,4
2.31,2.242321859,29,3,3,3,0,-8.91,1.89,-3.94,-0.19,-0.08,0.07,-9.9375,1.875,-0.5625,0.4847412109375,0.53570556640625,0.6463623046875,-0.2454833984375,33.875,54.1875,58.0,-8.72,1.98,-4.01,Nothing,4
2.32,2.25831836,29,3,3,3,0,-8.91,1.9,-3.94,-0.18,-0.08,0.07,-10.625,1.9375,-0.8125,0.48516845703125,0.53521728515625,0.646728515625,-0.244873046875,33.875,54.1875,58.0,-8.72,1.98,-4.01,Nothing,4
2.33,2.25831836,29,3,3,3,0,-8.88,1.92,-3.96,-0.16,-0.06,0.05,-11.3125,1.9375,-1.0,0.48553466796875,0.53466796875,0.6470947265625,-0.24420166015625,33.875,54.1875,58.0,-8.72,1.99,-4.01,Nothing,4
2.34,2.287155274,29,3,3,3,0,-8.85,1.95,-4.0,-0.13,-0.04,0.0,-12.0,2.3125,-1.6875,0.4859619140625,0.53411865234375,0.64752197265625,-0.2435302734375,33.875,54.1875,58.0,-8.72,1.99,-4.01,Nothing,4
2.35,2.287155274,29,3,3,3,0,-8.84,1.99,-4.0,-0.12,-0.01,0.0,-12.0,2.5,-2.0625,0.486328125,0.53350830078125,0.64801025390625,-0.24285888671875,33.875,54.1875,58.0,-8.72,2.0,-4.01,Nothing,4
2.36,2.318519695,29,3,3,3,0,-8.83,1.99,-4.04,-0.1,0.0,-0.03,-11.25,2.625,-2.25,0.48663330078125,0.532958984375,0.6484375,-0.2421875,34.25,53.375,58.375,-8.72,2.0,-4.01,Nothing,4
2.37,2.318519695,29,3,3,3,0,-8.81,2.02,-4.03,-0.09,0.01,-0.02,-10.375,3.0,-2.1875,0.4869384765625,0.532470703125,0.64886474609375,-0.2415771484375,34.25,53.375,58.375,-8.71,2.01,-4.01,Nothing,4
2.38,2.3215778,29,3,3,3,0,-8.79,2.04,-4.04,-0.07,0.03,-0.02,-9.4375,3.3125,-2.0,0.48712158203125,0.531982421875,0.64935302734375,-0.240966796875,34.25,53.375,58.375,-8.71,2.01,-4.01,Nothing,4
2.39,2.3215778,29,3,3,3,0,-8.74,2.07,-4.0,-0.03,0.05,0.0,-8.5,3.625,-1.75,0.4873046875,0.5316162109375,0.64971923828125,-0.2403564453125,34.25,53.375,58.375,-8.71,2.01,-4.01,Nothing,4
2.4,2.348050009,29,3,3,3,0,-8.72,2.07,-3.97,-0.01,0.05,0.04,-8.125,3.4375,-1.5,0.4874267578125,0.53125,0.650146484375,-0.23980712890625,34.25,53.375,58.375,-8.71,2.02,-4.01,Nothing,4
2.41,2.348050009,29,3,3,3,0,-8.68,2.09,-3.96,0.02,0.06,0.05,-8.0625,3.125,-1.0625,0.48760986328125,0.5308837890625,0.6505126953125,-0.2392578125,35.6875,52.6875,58.375,-8.71,2.02,-4.02,Nothing,4
2.42,2.363460898,29,3,3,3,0,-8.63,2.13,-3.96,0.07,0.1,0.05,-8.0,3.3125,-0.9375,0.48779296875,0.53057861328125,0.65081787109375,-0.2386474609375,35.6875,52.6875,58.375,-8.71,2.02,-4.02,Nothing,4
2.43,2.363460898,29,3,3,3,0,-8.65,2.12,-3.93,0.05,0.08,0.08,-8.0625,3.0625,-0.6875,0.48797607421875,0.5302734375,0.65118408203125,-0.23809814453125,35.6875,52.6875,58.375,-8.7,2.03,-4.02,Nothing,4
2.44,2.393039389,29,3,3,3,0,-8.65,2.09,-3.88,0.05,0.05,0.13,-8.0625,2.9375,-0.6875,0.4881591796875,0.5299072265625,0.6514892578125,-0.237548828125,35.6875,52.6875,58.375,-8.7,2.03,-4.02,Nothing,4
2.45,2.393039389,29,3,3,3,0,-8.69,2.1,-3.86,0.0,0.05,0.16,-8.0,2.5,-0.9375,0.4884033203125,0.52960205078125,0.65179443359375,-0.23699951171875,35.6875,52.6875,58.375,-8.7,2.04,-4.02,Nothing,4
2.46,2.407415121,29,3,3,3,0,-8.75,2.06,-3.87,-0.05,0.01,0.14,-7.875,1.75,-0.875,0.48870849609375,0.52923583984375,0.65203857421875,-0.23651123046875,35.0,52.6875,59.5,-8.7,2.04,-4.02,Nothing,4
2.47,2.407415121,29,3,3,3,0,-8.79,2.03,-3.89,-0.08,-0.01,0.12,-7.8125,1.125,-1.0,0.489013671875,0.52886962890625,0.65228271484375,-0.236083984375,35.0,52.6875,59.5,-8.7,2.05,-4.02,Nothing,4
2.48,2.421862753,29,3,3,3,0,-8.79,2.0,-3.89,-0.08,-0.05,0.12,-7.625,0.5625,-1.0625,0.48931884765625,0.5284423828125,0.65252685546875,-0.23565673828125,35.0,52.6875,59.5,-8.7,2.05,-4.02,Nothing,4
2.49,2.421862753,29,3,3,3,0,-8.81,1.98,-3.86,-0.11,-0.07,0.15,-7.6875,0.5625,-1.125,0.4896240234375,0.528076171875,0.65277099609375,-0.23529052734375,35.0,52.6875,59.5,-8.7,2.05,-4.01,Nothing,4
2.5,2.452480998,29,3,3,3,0,-8.81,2.0,-4.02,-0.1,-0.06,-0.01,-7.75,0.5625,-1.0,0.48992919921875,0.52764892578125,0.6529541015625,-0.23486328125,35.0,52.6875,59.5,-8.7,2.06,-4.01,Nothing,4
2.51,2.452480998,29,3,3,3,0,-8.84,2.03,-3.99,-0.13,-0.03,0.01,-7.625,0.6875,-0.75,0.490234375,0.52728271484375,0.6531982421875,-0.23443603515625,35.0,52.6875,59.1875,-8.7,2.06,-4.01,Nothing,4
2.52,2.467473471,29,3,3,3,0,-8.84,2.01,-3.95,-0.13,-0.05,0.06,-7.4375,0.6875,-0.9375,0.49053955078125,0.52691650390625,0.6534423828125,-0.23406982421875,35.0,52.6875,59.1875,-8.7,2.06,-4.01,Nothing,4
2.53,2.467473471,29,3,3,3,0,-8.85,2.01,-3.95,-0.14,-0.05,0.05,-7.1875,0.75,-0.8125,0.49078369140625,0.52655029296875,0.65362548828125,-0.233642578125,35.0,52.6875,59.1875,-8.7,2.07,-4.01,Nothing,4
2.54,2.482543132,29,3,3,3,0,-8.76,2.05,-3.94,-0.05,-0.02,0.06,-6.8125,1.0,-0.75,0.49102783203125,0.5262451171875,0.65386962890625,-0.2332763671875,35.0,52.6875,59.1875,-8.7,2.07,-4.0,Nothing,4
2.55,2.482543132,29,3,3,3,0,-8.73,2.06,-3.94,-0.03,-0.01,0.06,-6.375,1.1875,-0.75,0.49127197265625,0.52593994140625,0.654052734375,-0.23291015625,35.0,52.6875,59.1875,-8.7,2.07,-4.0,Nothing,4
2.56,2.497508261,29,3,3,3,0,-8.71,2.07,-3.93,-0.01,0.0,0.07,-6.125,1.0,-1.0,0.491455078125,0.525634765625,0.654296875,-0.2325439453125,35.25,52.25,60.375,-8.7,2.08,-4.0,Nothing,4
2.57,2.497508261,29,3,3,3,0,-8.72,2.11,-3.94,-0.02,0.03,0.06,-5.5625,1.1875,-1.3125,0.49163818359375,0.52532958984375,0.65447998046875,-0.23223876953125,35.25,52.25,60.375,-8.7,2.08,-4.0,Nothing,4
2.58,2.527565227,29,3,3,3,0,-8.71,2.11,-3.89,-0.01,0.03,0.11,-5.125,0.9375,-1.1875,0.4918212890625,0.5250244140625,0.65472412109375,-0.23193359375,35.25,52.25,60.375,-8.7,2.08,-4.0,Nothing,4
2.59,2.527565227,29,3,3,3,0,-8.72,2.12,-3.86,-0.01,0.03,0.14,-4.5,0.625,-1.0625,0.49200439453125,0.5247802734375,0.65484619140625,-0.231689453125,35.25,52.25,60.375,-8.7,2.08,-4.0,Nothing,4
2.6,2.542598674,29,3,3,3,0,-8.71,2.14,-3.89,0.0,0.05,0.11,-3.8125,0.0625,-1.0,0.4921875,0.52459716796875,0.65496826171875,-0.2315673828125,35.25,52.25,60.375,-8.7,2.08,-4.0,Nothing,4
2.61,2.542598674,29,3,3,3,0,-8.71,2.14,-3.89,-0.01,0.05,0.1,-3.125,-0.25,-0.75,0.4923095703125,0.52435302734375,0.65509033203125,-0.23138427734375,33.875,52.25,59.5,-8.7,2.09,-4.0,Nothing,4
2.62,2.571916423,29,3,3,3,0,-8.71,2.15,-3.87,0.0,0.06,0.12,-2.375,-0.375,-0.75,0.492431640625,0.52423095703125,0.6551513671875,-0.2313232421875,33.875,52.25,59.5,-8.7,2.09,-4.0,Nothing,4
2.63,2.571916423,29,3,3,3,0,-8.72,2.16,-3.88,-0.01,0.07,0.11,-1.8125,-0.6875,-0.5625,0.4925537109375,0.52410888671875,0.6551513671875,-0.23126220703125,33.875,52.25,59.5,-8.7,2.09,-3.99,Nothing,4
2.64,2.587176108,29,3,3,3,0,-8.72,2.2,-3.85,-0.01,0.1,0.14,-1.5,-0.9375,-0.3125,0.49273681640625,0.52398681640625,0.65509033203125,-0.231201171875,33.875,52.25,59.5,-8.7,2.09,-3.99,Nothing,4
2.65,2.587176108,29,3,3,3,0,-8.69,2.16,-3.87,0.01,0.07,0.11,-1.25,-0.875,-0.0625,0.49285888671875,0.52392578125,0.65509033203125,-0.231201171875,33.875,52.25,59.5,-8.7,2.09,-3.99,Nothing,4
2.66,2.601662761,29,3,3,3,0,-8.71,2.16,-3.87,0.0,0.07,0.11,-1.0625,-1.125,0.0,0.4930419921875,0.52386474609375,0.655029296875,-0.23114013671875,34.25,52.6875,59.875,-8.7,2.09,-3.99,Nothing,4
2.67,2.601662761,29,3,3,3,0,-8.73,2.15,-3.9,-0.01,0.05,0.07,-1.0,-1.4375,0.125,0.4931640625,0.5238037109375,0.65496826171875,-0.231201171875,34.25,52.6875,59.875,-8.71,2.09,-3.98,Nothing,4
2.68,2.633991619,29,3,3,3,0,-8.74,2.14,-3.94,-0.03,0.04,0.03,-0.75,-1.625,0.125,0.4932861328125,0.52374267578125,0.6549072265625,-0.231201171875,34.25,52.6875,59.875,-8.71,2.09,-3.98,Nothing,4
2.69,2.633991619,29,3,3,3,0,-8.76,2.14,-3.95,-0.05,0.04,0.02,-0.375,-1.625,0.125,0.493408203125,0.523681640625,0.65484619140625,-0.23126220703125,34.25,52.6875,59.875,-8.71,2.09,-3.98,Nothing,4
2.7,2.646715618,29,3,3,3,0,-8.78,2.13,-3.95,-0.07,0.03,0.02,0.0,-1.4375,0.0,0.4935302734375,0.52362060546875,0.65478515625,-0.2313232421875,34.25,52.6875,59.875,-8.71,2.09,-3.98,Nothing,4
2.71,2.646715618,29,3,3,3,0,-8.83,2.12,-3.95,-0.12,0.02,0.02,0.25,-1.3125,0.0,0.49359130859375,0.52362060546875,0.65472412109375,-0.23138427734375,35.0,52.0,60.375,-8.71,2.09,-3.97,Nothing,4
2.72,2.664476726,29,3,3,3,0,-8.82,2.1,-3.96,-0.11,0.01,0.01,0.75,-0.9375,0.0,0.49359130859375,0.52362060546875,0.6546630859375,-0.23150634765625,35.0,52.0,60.375,-8.71,2.09,-3.97,Nothing,4
2.73,2.664476726,29,3,3,3,0,-8.85,2.12,-3.98,-0.14,0.02,0.0,0.9375,-0.5625,-0.0625,0.49359130859375,0.523681640625,0.65460205078125,-0.2315673828125,35.0,52.0,60.375,-8.71,2.09,-3.97,Nothing,4
2.74,2.692028769,29,3,3,3,0,-8.87,2.09,-3.99,-0.16,0.0,-0.02,1.25,-0.4375,-0.25,0.49359130859375,0.523681640625,0.654541015625,-0.231689453125,35.0,52.0,60.375,-8.71,2.09,-3.97,Nothing,4
2.75,2.692028769,29,3,3,3,0,-8.86,2.06,-3.99,-0.14,-0.02,-0.02,1.1875,-0.125,-0.5625,0.49346923828125,0.52374267578125,0.654541015625,-0.23175048828125,35.0,52.0,60.375,-8.71,2.09,-3.97,Nothing,4
2.76,2.706956178,29,3,3,3,0,-8.81,2.04,-4.02,-0.09,-0.04,-0.04,0.875,0.1875,-1.0625,0.493408203125,0.523681640625,0.65460205078125,-0.23187255859375,34.25,51.5625,59.5,-8.71,2.09,-3.97,Nothing,4
2.77,2.706956178,29,3,3,3,0,-8.8,2.03,-4.0,-0.08,-0.05,-0.03,0.5,0.6875,-1.3125,0.49334716796875,0.52362060546875,0.6546630859375,-0.23187255859375,34.25,51.5625,59.5,-8.71,2.08,-3.97,Nothing,4
2.78,2.721769085,29,3,3,3,0,-8.81,2.0,-4.03,-0.09,-0.07,-0.05,0.3125,1.1875,-1.625,0.4932861328125,0.5235595703125,0.65484619140625,-0.23193359375,34.25,51.5625,59.5,-8.71,2.08,-3.97,Nothing,4
2.79,2.721769085,29,3,3,3,0,-8.8,2.0,-3.99,-0.08,-0.08,-0.01,0.0,2.0625,-1.875,0.49310302734375,0.52349853515625,0.655029296875,-0.23193359375,34.25,51.5625,59.5,-8.71,2.08,-3.98,Nothing,4
2.8,2.752289837,29,3,3,3,0,-8.78,2.03,-3.94,-0.07,-0.04,0.03,-0.25,2.1875,-2.0625,0.492919921875,0.52337646484375,0.65521240234375,-0.23193359375,34.25,51.5625,59.5,-8.71,2.07,-3.98,Nothing,4
2.81,2.752289837,29,3,3,3,0,-8.78,2.03,-3.94,-0.07,-0.04,0.04,-0.625,2.0625,-2.3125,0.4927978515625,0.52325439453125,0.6553955078125,-0.23187255859375,35.0,53.0,59.1875,-8.71,2.07,-3.98,Nothing,4
2.82,2.766760255,29,3,3,3,0,-8.78,2.06,-3.97,-0.07,0.0,0.02,-1.3125,1.75,-2.5,0.49273681640625,0.52313232421875,0.6556396484375,-0.23187255859375,35.0,53.0,59.1875,-8.71,2.07,-3.99,Nothing,4
2.83,2.766760255,29,3,3,3,0,-8.78,2.06,-4.02,-0.07,0.0,-0.03,-1.8125,1.6875,-2.5625,0.49267578125,0.52288818359375,0.65582275390625,-0.2318115234375,35.0,53.0,59.1875,-8.71,2.07,-3.99,Nothing,4
2.84,2.782245077,29,3,3,3,0,-8.73,2.07,-4.09,-0.01,0.0,-0.09,-2.25,1.75,-2.875,0.49261474609375,0.522705078125,0.6561279296875,-0.231689453125,35.0,53.0,59.1875,-8.71,2.06,-3.99,Nothing,4
2.85,2.782245077,29,3,3,3,0,-8.72,2.04,-4.11,0.0,-0.01,-0.12,-2.4375,1.5,-2.8125,0.4925537109375,0.5224609375,0.6563720703125,-0.23162841796875,35.0,53.0,59.1875,-8.71,2.06,-3.99,Nothing,4
2.86,2.812910971,29,3,3,3,0,-8.73,2.05,-4.08,-0.02,0.0,-0.08,-2.625,1.625,-3.0625,0.49249267578125,0.52215576171875,0.6566162109375,-0.23150634765625,34.5625,52.0,60.375,-8.71,2.06,-3.99,Nothing,4
2.87,2.812910971,29,3,3,3,0,-8.73,2.07,-4.01,-0.02,0.01,-0.01,-3.3125,2.0,-3.25,0.49249267578125,0.52191162109375,0.65692138671875,-0.23138427734375,34.5625,52.0,60.375,-8.71,2.05,-3.99,Nothing,4
2.88,2.827541871,29,3,3,3,0,-8.71,2.07,-3.98,0.0,0.01,0.02,-4.0625,2.375,-3.375,0.49249267578125,0.52154541015625,0.65728759765625,-0.231201171875,34.5625,52.0,60.375,-8.71,2.05,-4.0,Nothing,4
2.89,2.827541871,29,3,3,3,0,-8.65,2.1,-4.0,0.05,0.04,0.0,-4.375,1.9375,-3.8125,0.49249267578125,0.52117919921875,0.6575927734375,-0.23101806640625,34.5625,52.0,60.375,-8.71,2.05,-4.0,Nothing,4
2.9,2.842432862,29,3,3,3,0,-8.62,2.1,-4.03,0.08,0.05,-0.02,-4.5625,1.5625,-3.8125,0.49249267578125,0.52081298828125,0.657958984375,-0.2308349609375,34.5625,52.0,60.375,-8.71,2.05,-4.0,Nothing,4
2.91,2.842432862,29,3,3,3,0,-8.65,2.06,-4.05,0.06,0.01,-0.04,-4.1875,1.875,-4.0,0.49249267578125,0.52044677734375,0.65826416015625,-0.230712890625,33.875,52.6875,60.375,-8.71,2.04,-4.0,Nothing,4
2.92,2.872561769,29,3,3,3,0,-8.65,2.04,-4.07,0.06,0.0,-0.06,-3.625,1.4375,-4.125,0.49249267578125,0.52008056640625,0.65863037109375,-0.2305908203125,33.875,52.6875,60.375,-8.71,2.04,-4.0,Nothing,4
2.93,2.872561769,29,3,3,3,0,-8.69,2.03,-4.06,0.01,-0.01,-0.05,-3.0,1.0625,-4.375,0.49249267578125,0.51971435546875,0.658935546875,-0.23052978515625,33.875,52.6875,60.375,-8.71,2.04,-4.0,Nothing,4
2.94,2.88660254,29,3,3,3,0,-8.73,2.03,-4.09,-0.02,0.0,-0.08,-3.0,0.1875,-4.9375,0.4925537109375,0.519287109375,0.65924072265625,-0.2305908203125,33.875,52.6875,60.375,-8.71,2.03,-4.0,Nothing,4
2.95,2.88660254,29,3,3,3,0,-8.78,2.05,-4.12,-0.06,0.02,-0.12,-3.3125,-0.625,-5.3125,0.49261474609375,0.51885986328125,0.65948486328125,-0.23065185546875,33.875,52.6875,60.375,-8.71,2.02,-4.0,Nothing,4
2.96,2.902075847,29,3,3,3,0,-8.75,2.03,-4.1,-0.03,0.01,-0.1,-4.125,-1.25,-6.0625,0.49273681640625,0.518310546875,0.6597900390625,-0.230712890625,33.875,51.1875,61.0625,-8.72,2.02,-4.0,Nothing,4
2.97,2.902075847,29,3,3,3,0,-8.7,2.04,-4.07,0.01,0.02,-0.07,-5.1875,-1.25,-6.4375,0.492919921875,0.5177001953125,0.66015625,-0.23077392578125,33.875,51.1875,61.0625,-8.72,2.01,-3.99,Nothing,4
2.98,2.932609091,29,3,3,3,0,-8.65,2.04,-4.06,0.06,0.02,-0.06,-6.0625,-0.5625,-6.625,0.49310302734375,0.51702880859375,0.6605224609375,-0.230712890625,33.875,51.1875,61.0625,-8.72,2.01,-3.99,Nothing,4
2.99,2.932609091,29,3,3,3,0,-8.61,2.07,-4.11,0.11,0.06,-0.12,-6.5,0.375,-6.875,0.49322509765625,0.516357421875,0.6610107421875,-0.2305908203125,33.875,51.1875,61.0625,-8.72,2.0,-3.99,Nothing,4
3.0,2.94687553,29,3,3,3,0,-8.63,2.04,-4.13,0.09,0.04,-0.14,-5.9375,1.1875,-6.6875,0.4932861328125,0.5157470703125,0.6614990234375,-0.23046875,33.875,51.1875,61.0625,-8.73,1.99,-3.99,Nothing,4
3.01,2.94687553,29,3,3,3,0,-8.68,2.07,-4.09,0.05,0.08,-0.09,-5.375,1.0,-6.375,0.49334716796875,0.51519775390625,0.66192626953125,-0.2303466796875,35.25,52.25,61.5,-8.73,1.99,-3.99,Nothing,4
3.02,2.964117311,29,3,3,3,0,-8.72,2.14,-4.07,0.0,0.15,-0.08,-4.625,0.9375,-5.75,0.49334716796875,0.51470947265625,0.662353515625,-0.23028564453125,35.25,52.25,61.5,-8.73,1.98,-3.99,Nothing,4
3.03,2.964117311,29,3,3,3,0,-8.77,2.19,-4.13,-0.04,0.21,-0.14,-4.0625,0.875,-5.0,0.49334716796875,0.5142822265625,0.66265869140625,-0.23016357421875,35.25,52.25,61.5,-8.73,1.98,-3.99,Nothing,4
3.04,2.977047161,29,3,3,3,0,-8.77,2.19,-4.14,-0.03,0.21,-0.14,-3.1875,0.5625,-4.25,0.493408203125,0.513916015625,0.6629638671875,-0.2301025390625,35.25,52.25,61.5,-8.73,1.98,-3.99,Nothing,4
3.05,2.977047161,29,3,3,3,0,-8.73,2.19,-4.15,0.0,0.21,-0.16,-2.4375,0.4375,-3.625,0.493408203125,0.513671875,0.66314697265625,-0.23004150390625,35.25,52.25,61.5,-8.73,1.97,-3.99,Nothing,4
3.06,3.008347372,29,3,3,3,0,-8.68,2.22,-4.15,0.04,0.24,-0.16,-1.8125,0.625,-2.8125,0.493408203125,0.51348876953125,0.663330078125,-0.22991943359375,33.875,52.0,61.5,-8.73,1.97,-3.99,Nothing,4
3.07,3.008347372,29,3,3,3,0,-8.62,2.18,-4.12,0.1,0.21,-0.12,-1.5625,1.0,-2.3125,0.49334716796875,0.51336669921875,0.66351318359375,-0.229736328125,33.875,52.0,61.5,-8.73,1.97,-3.99,Nothing,4
3.08,3.037259929,29,3,3,3,0,-8.61,2.15,-4.09,0.12,0.18,-0.08,-1.5,1.75,-1.6875,0.4932861328125,0.5133056640625,0.6636962890625,-0.22955322265625,33.875,52.0,61.5,-8.73,1.97,-4.0,Nothing,4
3.09,3.037259929,29,3,3,3,0,-8.63,2.15,-4.04,0.09,0.17,-0.03,-1.6875,2.1875,-1.4375,0.49322509765625,0.51324462890625,0.66387939453125,-0.2293701171875,33.875,52.0,61.5,-8.73,1.97,-4.0,Nothing,4
3.1,3.040244427,29,3,3,3,0,-8.67,2.02,-3.97,0.05,0.04,0.03,-1.875,2.0,-1.375,0.4931640625,0.51312255859375,0.6640625,-0.22918701171875,33.875,52.0,61.5,-8.72,1.97,-4.0,Nothing,4
3.11,3.040244427,29,3,3,3,0,-8.7,1.96,-3.95,0.02,0.0,0.05,-1.8125,1.5625,-1.5625,0.49310302734375,0.51300048828125,0.66424560546875,-0.22906494140625,33.0625,52.6875,61.5,-8.72,1.97,-4.0,Nothing,4
3.12,3.066900148,29,3,3,3,0,-8.7,1.89,-3.97,0.02,-0.08,0.03,-1.9375,0.9375,-1.625,0.49310302734375,0.51287841796875,0.66436767578125,-0.22900390625,33.0625,52.6875,61.5,-8.72,1.97,-4.0,Nothing,4
3.13,3.066900148,29,3,3,3,0,-8.73,1.86,-3.98,0.0,-0.11,0.01,-1.875,0.0,-2.0,0.4931640625,0.51263427734375,0.66448974609375,-0.22894287109375,33.0625,52.6875,61.5,-8.72,1.97,-4.0,Nothing,4
3.14,3.082196331,29,3,3,3,0,-8.77,1.84,-4.03,-0.04,-0.12,-0.02,-1.875,-0.3125,-2.125,0.4931640625,0.512451171875,0.66461181640625,-0.22894287109375,33.0625,52.6875,61.5,-8.73,1.97,-4.0,Nothing,4
3.15,3.082196331,29,3,3,3,0,-8.81,1.83,-4.03,-0.08,-0.13,-0.02,-2.125,-0.5,-2.125,0.49322509765625,0.51220703125,0.664794921875,-0.22894287109375,33.0625,52.6875,61.5,-8.73,1.97,-4.0,Nothing,4
3.16,3.097594809,29,3,3,3,0,-8.82,1.82,-4.03,-0.08,-0.14,-0.03,-2.625,-0.25,-2.1875,0.4932861328125,0.511962890625,0.6649169921875,-0.2288818359375,33.0625,52.6875,61.5,-8.73,1.96,-4.0,Nothing,4
3.17,3.097594809,29,3,3,3,0,-8.8,1.84,-4.11,-0.07,-0.12,-0.1,-3.125,0.1875,-2.375,0.493408203125,0.51165771484375,0.66510009765625,-0.22882080078125,33.0625,52.6875,61.5,-8.73,1.96,-4.0,Nothing,4
3.18,3.127988079,29,3,3,3,0,-8.79,1.93,-4.09,-0.06,-0.03,-0.09,-3.625,0.5,-2.3125,0.49346923828125,0.51141357421875,0.665283203125,-0.22869873046875,33.0625,52.6875,61.5,-8.73,1.96,-4.0,Nothing,4
3.19,3.127988079,29,3,3,3,0,-8.8,1.95,-4.01,-0.07,0.0,0.0,-4.0625,0.5625,-2.3125,0.49359130859375,0.5111083984375,0.66552734375,-0.22857666015625,33.0625,52.6875,61.5,-8.73,1.96,-4.0,Nothing,4
3.2,3.1421827,29,3,3,3,0,-8.77,1.96,-4.0,-0.04,0.0,0.0,-4.375,0.25,-2.375,0.49371337890625,0.5107421875,0.66571044921875,-0.2283935546875,33.0625,52.6875,61.5,-8.73,1.96,-4.0,Nothing,4
3.21,3.1421827,29,3,3,3,0,-8.74,1.99,-3.99,-0.01,0.03,0.0,-4.5625,0.6875,-2.4375,0.49383544921875,0.51043701171875,0.66595458984375,-0.22821044921875,33.5,52.25,60.6875,-8.73,1.96,-4.0,Nothing,4
3.22,3.156671022,29,3,3,3,0,-8.7,2.06,-4.03,0.03,0.1,-0.03,-4.6875,0.8125,-2.375,0.49395751953125,0.5101318359375,0.66619873046875,-0.22802734375,33.5,52.25,60.6875,-8.73,1.96,-4.0,Nothing,4
3.23,3.156671022,29,3,3,3,0,-8.67,2.07,-3.98,0.05,0.11,0.01,-4.875,0.9375,-2.25,0.49407958984375,0.50982666015625,0.66644287109375,-0.227783203125,33.5,52.25,60.6875,-8.73,1.96,-4.0,Nothing,4
3.24,3.188340781,29,3,3,3,0,-8.71,2.08,-3.98,0.02,0.12,0.01,-4.75,0.9375,-2.25,0.49420166015625,0.50946044921875,0.6666259765625,-0.2275390625,33.5,52.25,60.6875,-8.73,1.96,-4.0,Nothing,4
3.25,3.188340781,29,3,3,3,0,-8.71,2.1,-4.0,0.02,0.14,0.0,-4.375,0.5,-2.0625,0.49432373046875,0.50921630859375,0.66680908203125,-0.22735595703125,33.5,52.25,60.6875,-8.73,1.96,-3.99,Nothing,4
3.26,3.2022004,29,3,3,3,0,-8.72,2.08,-4.0,0.01,0.11,-0.01,-4.0,0.0,-2.0,0.4945068359375,0.5089111328125,0.6669921875,-0.2271728515625,33.875,52.25,61.875,-8.73,1.96,-3.99,Nothing,4
3.27,3.2022004,29,3,3,3,0,-8.75,2.08,-4.01,-0.01,0.12,-0.01,-3.625,-0.125,-1.8125,0.49462890625,0.5086669921875,0.6671142578125,-0.22705078125,33.875,52.25,61.875,-8.73,1.96,-3.99,Nothing,4
3.28,3.217782553,29,3,3,3,0,-8.71,2.06,-4.01,0.02,0.1,-0.01,-3.4375,-0.5,-1.6875,0.4947509765625,0.5084228515625,0.66729736328125,-0.22686767578125,33.875,52.25,61.875,-8.73,1.96,-3.99,Nothing,4
3.29,3.217782553,29,3,3,3,0,-8.72,2.01,-4.04,0.01,0.04,-0.05,-3.375,-0.5625,-1.6875,0.49493408203125,0.5081787109375,0.6673583984375,-0.22674560546875,33.875,52.25,61.875,-8.73,1.96,-3.99,Nothing,4
3.3,3.248012615,29,3,3,3,0,-8.74,2.0,-4.03,0.0,0.03,-0.04,-3.1875,-0.4375,-1.625,0.49505615234375,0.5079345703125,0.66754150390625,-0.22662353515625,33.875,52.25,61.875,-8.73,1.96,-3.99,Nothing,4
3.31,3.248012615,29,3,3,3,0,-8.74,1.97,-4.01,0.0,0.0,-0.02,-3.0625,-0.25,-1.5625,0.4951171875,0.5076904296875,0.66766357421875,-0.22650146484375,32.75,52.6875,63.875,-8.73,1.96,-3.99,Nothing,4
3.32,3.26196159,29,3,3,3,0,-8.74,1.94,-3.98,0.0,-0.01,0.0,-2.8125,-0.125,-1.25,0.4952392578125,0.50750732421875,0.66778564453125,-0.22637939453125,32.75,52.6875,63.875,-8.73,1.96,-3.99,Nothing,4
3.33,3.26196159,29,3,3,3,0,-8.74,1.96,-3.91,0.0,0.0,0.07,-2.8125,-0.125,-1.375,0.495361328125,0.50732421875,0.66790771484375,-0.226318359375,32.75,52.6875,63.875,-8.74,1.96,-3.98,Nothing,4
3.34,3.27710429,29,3,3,3,0,-8.76,1.93,-3.92,-0.02,-0.02,0.06,-2.625,-0.3125,-1.25,0.49542236328125,0.50714111328125,0.66796875,-0.2261962890625,32.75,52.6875,63.875,-8.74,1.96,-3.98,Nothing,4
3.35,3.27710429,29,3,3,3,0,-8.77,1.96,-3.9,-0.03,0.0,0.07,-2.5,-0.4375,-1.5625,0.49554443359375,0.50689697265625,0.6680908203125,-0.22613525390625,32.75,52.6875,63.875,-8.74,1.96,-3.98,Nothing,4
3.36,3.306610231,29,3,3,3,0,-8.77,1.94,-3.88,-0.03,-0.01,0.1,-2.4375,-0.3125,-1.4375,0.49560546875,0.5067138671875,0.668212890625,-0.22607421875,33.5,52.0,61.5,-8.74,1.96,-3.98,Nothing,4
3.37,3.306610231,29,3,3,3,0,-8.78,1.98,-3.89,-0.04,0.02,0.09,-2.3125,-0.5,-1.375,0.49566650390625,0.50653076171875,0.6683349609375,-0.2259521484375,33.5,52.0,61.5,-8.74,1.96,-3.98,Nothing,4
3.38,3.322032635,29,3,3,3,0,-8.78,1.98,-3.9,-0.03,0.02,0.08,-2.25,-0.5,-1.4375,0.49578857421875,0.50634765625,0.66839599609375,-0.22589111328125,33.5,52.0,61.5,-8.74,1.96,-3.98,Nothing,4
3.39,3.322032635,29,3,3,3,0,-8.79,1.98,-3.91,-0.04,0.02,0.06,-2.3125,-0.625,-1.4375,0.49591064453125,0.50616455078125,0.66851806640625,-0.22589111328125,33.5,52.0,61.5,-8.74,1.96,-3.98,Nothing,4
3.4,3.337766237,29,3,3,3,0,-8.78,2.02,-3.91,-0.03,0.06,0.06,-2.3125,-0.75,-1.4375,0.49603271484375,0.50592041015625,0.6685791015625,-0.225830078125,33.5,52.0,61.5,-8.74,1.96,-3.98,Nothing,4
3.41,3.337766237,29,3,3,3,0,-8.76,2.01,-3.96,-0.02,0.05,0.01,-2.1875,-0.625,-1.375,0.49615478515625,0.5057373046875,0.66864013671875,-0.22576904296875,33.5,52.1875,62.25,-8.74,1.96,-3.97,Nothing,4
3.42,3.367021974,29,3,3,3,0,-8.76,1.99,-3.96,-0.02,0.03,0.01,-2.0625,-0.4375,-1.375,0.4962158203125,0.50555419921875,0.66876220703125,-0.2257080078125,33.5,52.1875,62.25,-8.74,1.95,-3.97,Nothing,4
3.43,3.367021974,29,3,3,3,0,-8.75,2.01,-3.98,-0.01,0.05,-0.01,-1.6875,-0.0625,-1.25,0.49627685546875,0.50543212890625,0.6688232421875,-0.2257080078125,33.5,52.1875,62.25,-8.74,1.95,-3.97,Nothing,4
3.44,3.382170574,29,3,3,3,0,-8.73,2.03,-4.02,0.01,0.07,-0.05,-1.375,0.1875,-1.1875,0.496337890625,0.50531005859375,0.66888427734375,-0.22564697265625,33.5,52.1875,62.25,-8.74,1.95,-3.97,Nothing,4
3.45,3.382170574,29,3,3,3,0,-8.74,2.04,-4.01,0.0,0.08,-0.04,-1.0625,0.375,-1.0625,0.496337890625,0.50518798828125,0.6689453125,-0.22564697265625,33.5,52.1875,62.25,-8.74,1.95,-3.97,Nothing,4
3.46,3.397006674,29,3,3,3,0,-8.78,2.04,-4.03,-0.03,0.08,-0.05,-0.6875,0.25,-0.9375,0.496337890625,0.505126953125,0.66900634765625,-0.22564697265625,33.0625,52.5625,63.0625,-8.74,1.95,-3.97,Nothing,4
3.47,3.397006674,29,3,3,3,0,-8.72,2.05,-4.04,0.02,0.09,-0.06,-0.375,0.4375,-0.5625,0.496337890625,0.50506591796875,0.6690673828125,-0.22564697265625,33.0625,52.5625,63.0625,-8.74,1.95,-3.97,Nothing,4
3.48,3.42802649,29,3,3,3,0,-8.73,2.07,-4.02,0.01,0.12,-0.04,0.0,0.5,-0.1875,0.496337890625,0.505126953125,0.6690673828125,-0.2255859375,33.0625,52.5625,63.0625,-8.74,1.95,-3.97,Nothing,4
3.49,3.42802649,29,3,3,3,0,-8.71,2.11,-4.0,0.03,0.15,-0.03,0.0,0.5625,-0.0625,0.496337890625,0.505126953125,0.6690673828125,-0.2255859375,33.0625,52.5625,63.0625,-8.74,1.95,-3.97,Nothing,4
3.5,3.442502931,29,3,3,3,0,-8.72,2.08,-4.0,0.02,0.12,-0.02,0.125,0.5625,-0.125,0.49627685546875,0.50518798828125,0.6690673828125,-0.22552490234375,33.0625,52.5625,63.0625,-8.74,1.95,-3.97,Nothing,4
3.51,3.442502931,29,3,3,3,0,-8.71,2.07,-3.98,0.03,0.11,0.0,0.1875,0.625,0.0,0.49627685546875,0.50518798828125,0.66912841796875,-0.2254638671875,33.5,52.1875,63.0625,-8.74,1.95,-3.97,Nothing,4
3.52,3.456839275,29,3,3,3,0,-8.72,2.04,-4.01,0.02,0.08,-0.03,0.25,0.375,0.0,0.49627685546875,0.50518798828125,0.6690673828125,-0.22540283203125,33.5,52.1875,63.0625,-8.74,1.95,-3.97,Nothing,4
3.53,3.456839275,29,3,3,3,0,-8.71,2.0,-4.04,0.03,0.04,-0.06,0.4375,0.125,0.0,0.49627685546875,0.50518798828125,0.6690673828125,-0.22540283203125,33.5,52.1875,63.0625,-8.74,1.95,-3.97,Nothing,4
3.54,3.487714926,29,3,3,3,0,-8.69,1.96,-4.05,0.05,0.0,-0.07,0.875,-0.3125,0.0625,0.4962158203125,0.5052490234375,0.6690673828125,-0.2254638671875,33.5,52.1875,63.0625,-8.74,1.95,-3.98,Nothing,4
3.55,3.487714926,29,3,3,3,0,-8.69,1.94,-4.08,0.05,-0.01,-0.1,1.1875,-0.875,0.0,0.4962158203125,0.50531005859375,0.66900634765625,-0.2255859375,33.5,52.1875,63.0625,-8.74,1.95,-3.97,Nothing,4
3.56,3.501583619,29,3,3,3,0,-8.72,1.98,-4.01,0.02,0.03,-0.03,1.1875,-1.0625,0.0,0.4962158203125,0.50531005859375,0.6689453125,-0.22564697265625,33.5,52.5625,62.6875,-8.74,1.95,-3.97,Nothing,4
3.57,3.501583619,29,3,3,3,0,-8.75,1.99,-3.93,-0.01,0.03,0.04,0.5,-1.125,-0.0625,0.49627685546875,0.50531005859375,0.66888427734375,-0.2257080078125,33.5,52.5625,62.6875,-8.74,1.95,-3.97,Nothing,4
3.58,3.516589682,29,3,3,3,0,-8.78,1.99,-3.9,-0.03,0.03,0.06,0.125,-1.875,-0.1875,0.49639892578125,0.5052490234375,0.6688232421875,-0.225830078125,33.5,52.5625,62.6875,-8.74,1.95,-3.97,Nothing,4
3.59,3.516589682,29,3,3,3,0,-8.8,2.03,-3.97,-0.05,0.07,0.0,-0.3125,-2.625,-0.5,0.49652099609375,0.5052490234375,0.668701171875,-0.22589111328125,33.5,52.5625,62.6875,-8.75,1.95,-3.96,Nothing,4
3.6,3.547927776,29,3,3,3,0,-8.75,2.02,-4.11,0.0,0.06,-0.14,-0.25,-2.3125,-0.8125,0.49664306640625,0.505126953125,0.66864013671875,-0.22607421875,33.5,52.5625,62.6875,-8.75,1.95,-3.96,Nothing,4
3.61,3.547927776,29,3,3,3,0,-8.75,2.06,-4.1,0.0,0.11,-0.13,0.25,-1.3125,-0.6875,0.4967041015625,0.50506591796875,0.6685791015625,-0.22613525390625,33.0625,52.875,62.375,-8.75,1.95,-3.96,Nothing,4
3.62,3.562370241,29,3,3,3,0,-8.74,2.04,-4.09,0.0,0.09,-0.13,1.0,-0.875,-0.625,0.4967041015625,0.50506591796875,0.6685791015625,-0.22625732421875,33.0625,52.875,62.375,-8.75,1.95,-3.96,Nothing,4
3.63,3.562370241,29,3,3,3,0,-8.73,2.08,-4.1,0.01,0.13,-0.14,1.5625,-0.625,-0.75,0.49664306640625,0.505126953125,0.6685791015625,-0.22637939453125,33.0625,52.875,62.375,-8.75,1.95,-3.96,Nothing,4
3.64,3.592626914,29,3,3,3,0,-8.73,2.06,-4.04,0.02,0.11,-0.07,2.0,-0.5,-0.9375,0.49652099609375,0.50518798828125,0.6685791015625,-0.22650146484375,33.0625,52.875,62.375,-8.75,1.94,-3.96,Nothing,4
3.65,3.592626914,29,3,3,3,0,-8.72,2.05,-4.01,0.03,0.11,-0.04,2.3125,-0.5,-1.125,0.49639892578125,0.50518798828125,0.6685791015625,-0.22662353515625,33.0625,52.875,62.375,-8.75,1.94,-3.96,Nothing,4
3.66,3.622715049,29,3,3,3,0,-8.69,2.08,-3.99,0.06,0.14,-0.03,2.375,-0.625,-1.1875,0.496337890625,0.5052490234375,0.66851806640625,-0.226806640625,33.0625,52.5625,61.5,-8.75,1.94,-3.96,Nothing,4
3.67,3.622715049,29,3,3,3,0,-8.65,2.06,-3.97,0.09,0.12,-0.01,2.1875,-1.25,-1.125,0.49627685546875,0.50531005859375,0.66845703125,-0.22698974609375,33.0625,52.5625,61.5,-8.75,1.94,-3.96,Nothing,4
3.68,3.625755047,29,3,3,3,0,-8.64,2.04,-3.94,0.1,0.11,0.02,2.1875,-1.625,-1.125,0.49627685546875,0.50531005859375,0.66839599609375,-0.22723388671875,33.0625,52.5625,61.5,-8.75,1.93,-3.96,Nothing,4
3.69,3.625755047,29,3,3,3,0,-8.66,2.03,-3.96,0.09,0.09,0.0,1.875,-2.25,-1.3125,0.49627685546875,0.5052490234375,0.6683349609375,-0.22747802734375,33.0625,52.5625,61.5,-8.75,1.93,-3.96,Nothing,4
3.7,3.652195558,29,3,3,3,0,-8.66,2.01,-3.94,0.09,0.08,0.01,1.625,-2.875,-1.25,0.496337890625,0.5052490234375,0.668212890625,-0.22772216796875,33.0625,52.5625,61.5,-8.76,1.93,-3.95,Nothing,4
3.71,3.652195558,29,3,3,3,0,-8.73,1.98,-4.01,0.02,0.05,-0.06,1.375,-3.4375,-1.1875,0.4964599609375,0.50518798828125,0.6680908203125,-0.22802734375,34.0,51.875,61.5,-8.76,1.93,-3.95,Nothing,4
3.72,3.666909344,29,3,3,3,0,-8.74,1.96,-4.06,0.02,0.03,-0.11,1.1875,-3.4375,-0.9375,0.49658203125,0.50506591796875,0.66796875,-0.228271484375,34.0,51.875,61.5,-8.76,1.92,-3.94,Nothing,4
3.73,3.666909344,29,3,3,3,0,-8.79,1.93,-4.08,-0.02,0.01,-0.13,1.3125,-3.25,-1.0,0.4967041015625,0.50506591796875,0.6678466796875,-0.228515625,34.0,51.875,61.5,-8.76,1.92,-3.94,Nothing,4
3.74,3.697677695,29,3,3,3,0,-8.8,1.92,-4.06,-0.03,0.0,-0.12,1.375,-3.0625,-1.0,0.49676513671875,0.5050048828125,0.667724609375,-0.228759765625,34.0,51.875,61.5,-8.77,1.92,-3.93,Walking,4
3.75,3.697677695,29,3,3,3,0,-8.76,1.95,-4.05,0.0,0.03,-0.12,1.5,-2.625,-0.9375,0.496826171875,0.50494384765625,0.6676025390625,-0.22900390625,34.0,51.875,61.5,-8.77,1.92,-3.93,Walking,4
3.76,3.713071535,29,3,3,3,0,-8.78,1.94,-4.04,-0.01,0.02,-0.11,1.6875,-2.0625,-0.875,0.49688720703125,0.50494384765625,0.66754150390625,-0.22918701171875,34.6875,52.875,62.25,-8.77,1.91,-3.93,Walking,4
3.77,3.713071535,29,3,3,3,0,-8.79,1.98,-4.0,-0.01,0.06,-0.07,1.8125,-1.1875,-0.625,0.496826171875,0.50494384765625,0.66748046875,-0.2293701171875,34.6875,52.875,62.25,-8.77,1.91,-3.93,Walking,4
3.78,3.726842205,29,3,3,3,0,-8.74,2.04,-3.99,0.03,0.12,-0.06,1.8125,-1.0625,-0.375,0.496826171875,0.5050048828125,0.66741943359375,-0.22955322265625,34.6875,52.875,62.25,-8.77,1.91,-3.93,Walking,4
3.79,3.726842205,29,3,3,3,0,-8.69,2.04,-4.0,0.08,0.13,-0.07,1.8125,-1.0,-0.4375,0.49676513671875,0.505126953125,0.6673583984375,-0.22967529296875,34.6875,52.875,62.25,-8.77,1.91,-3.93,Walking,4
3.8,3.742329673,29,3,3,3,0,-8.67,2.06,-3.97,0.1,0.14,-0.03,1.875,-1.25,-0.5,0.49676513671875,0.50518798828125,0.667236328125,-0.22979736328125,34.6875,52.875,62.25,-8.77,1.91,-3.93,Walking,4
3.81,3.742329673,29,3,3,3,0,-8.66,2.07,-3.95,0.11,0.16,-0.02,1.75,-1.4375,-0.6875,0.49676513671875,0.5052490234375,0.66717529296875,-0.22991943359375,33.5625,52.875,61.75,-8.77,1.91,-3.92,Walking,4
3.82,3.776331219,29,3,3,3,0,-8.74,2.05,-3.87,0.03,0.14,0.04,1.6875,-1.75,-1.0,0.49676513671875,0.5052490234375,0.66705322265625,-0.2301025390625,33.5625,52.875,61.75,-8.78,1.91,-3.92,Walking,4
3.83,3.776331219,29,3,3,3,0,-8.79,2.04,-3.84,-0.01,0.13,0.07,1.6875,-1.8125,-1.0625,0.496826171875,0.50518798828125,0.6669921875,-0.2303466796875,33.5625,52.875,61.75,-8.78,1.9,-3.92,Walking,4
3.84,3.787710654,29,3,3,3,0,-8.82,2.02,-3.86,-0.04,0.11,0.05,1.8125,-2.3125,-0.875,0.49688720703125,0.50518798828125,0.6668701171875,-0.23052978515625,33.5625,52.875,61.75,-8.78,1.9,-3.92,Walking,4
3.85,3.787710654,29,3,3,3,0,-8.83,1.98,-3.88,-0.04,0.08,0.03,1.5625,-3.0,-0.6875,0.4969482421875,0.50518798828125,0.666748046875,-0.23077392578125,33.5625,52.875,61.75,-8.78,1.9,-3.91,Walking,4
3.86,3.802922202,29,3,3,3,0,-8.8,1.95,-3.86,-0.01,0.05,0.05,1.375,-2.875,-0.375,0.4970703125,0.50518798828125,0.66656494140625,-0.23101806640625,34.0,52.5625,62.5625,-8.78,1.9,-3.91,Walking,4
3.87,3.802922202,29,3,3,3,0,-8.77,1.94,-3.91,0.01,0.03,0.0,1.3125,-2.9375,-0.375,0.4971923828125,0.50518798828125,0.66644287109375,-0.231201171875,34.0,52.5625,62.5625,-8.78,1.9,-3.9,Walking,4
3.88,3.832752728,29,3,3,3,0,-8.76,1.96,-3.88,0.02,0.05,0.01,1.5,-2.25,-0.25,0.49725341796875,0.50518798828125,0.66632080078125,-0.23138427734375,34.0,52.5625,62.5625,-8.79,1.9,-3.9,Walking,4
3.89,3.832752728,29,3,3,3,0,-8.74,1.91,-3.79,0.04,0.01,0.11,2.0625,-1.875,-0.1875,0.497314453125,0.5052490234375,0.6661376953125,-0.2315673828125,34.0,52.5625,62.5625,-8.79,1.9,-3.9,Walking,4
3.9,3.847244874,29,3,3,3,0,-8.74,1.88,-3.71,0.04,-0.01,0.18,2.625,-1.9375,-0.375,0.497314453125,0.50531005859375,0.666015625,-0.2318115234375,34.0,52.5625,62.5625,-8.79,1.9,-3.9,Walking,4
3.91,3.847244874,29,3,3,3,0,-8.74,1.92,-3.77,0.05,0.02,0.12,3.0,-1.8125,-0.4375,0.497314453125,0.50543212890625,0.6658935546875,-0.2320556640625,34.0,52.5625,63.0,-8.79,1.89,-3.89,Walking,4
3.92,3.862660158,29,3,3,3,0,-8.74,1.93,-3.73,0.05,0.04,0.16,3.1875,-1.625,-0.5625,0.49725341796875,0.5054931640625,0.665771484375,-0.23236083984375,34.0,52.5625,63.0,-8.79,1.89,-3.89,Walking,4
3.93,3.862660158,29,3,3,3,0,-8.78,1.95,-3.72,0.01,0.06,0.17,2.875,-2.4375,-0.5,0.497314453125,0.50555419921875,0.66552734375,-0.232666015625,34.0,52.5625,63.0,-8.79,1.89,-3.89,Walking,4
3.94,3.892812868,29,3,3,3,0,-8.66,1.97,-3.76,0.13,0.07,0.12,2.1875,-3.0625,-0.3125,0.4974365234375,0.505615234375,0.66534423828125,-0.23291015625,34.0,52.5625,63.0,-8.8,1.89,-3.89,Walking,4
3.95,3.892812868,29,3,3,3,0,-8.53,1.94,-3.86,0.26,0.05,0.01,1.4375,-3.125,-0.0625,0.49755859375,0.505615234375,0.6651611328125,-0.23309326171875,34.0,52.5625,63.0,-8.8,1.89,-3.88,Walking,4
3.96,3.90743327,29,3,3,3,0,-8.41,1.87,-3.9,0.38,-0.01,-0.02,0.9375,-2.5,0.0625,0.49761962890625,0.505615234375,0.6650390625,-0.2332763671875,33.5625,52.5625,61.0,-8.8,1.89,-3.88,Walking,4
3.97,3.90743327,29,3,3,3,0,-8.16,1.57,-3.95,0.64,-0.31,-0.07,0.5,-1.4375,0.0,0.49774169921875,0.505615234375,0.66497802734375,-0.23333740234375,33.5625,52.5625,61.0,-8.8,1.89,-3.88,Walking,4
3.98,3.921741782,29,3,3,3,0,-8.03,1.36,-3.92,0.77,-0.52,-0.04,0.0,-0.75,0.1875,0.49774169921875,0.50555419921875,0.66497802734375,-0.23333740234375,33.5625,52.5625,61.0,-8.8,1.89,-3.87,Walking,4
3.99,3.921741782,29,3,3,3,0,-7.93,1.19,-3.9,0.87,-0.69,-0.02,-0.625,-0.5,0.0,0.497802734375,0.50555419921875,0.66497802734375,-0.23333740234375,33.5625,52.5625,61.0,-8.8,1.89,-3.87,Walking,4
4.0,3.95217029,29,3,3,3,0,-7.82,1.02,-3.85,0.98,-0.86,0.02,-0.8125,-0.4375,-0.625,0.497802734375,0.5054931640625,0.6650390625,-0.2332763671875,33.5625,52.5625,61.0,-8.8,1.89,-3.87,Walking,4
4.01,3.95217029,29,3,3,3,0,-7.83,0.87,-3.9,0.96,-1.01,-0.02,-0.6875,-0.8125,-1.375,0.49786376953125,0.50531005859375,0.6650390625,-0.23333740234375,33.1875,52.875,61.0625,-8.8,1.89,-3.87,Walking,4
4.02,3.966772503,29,3,3,3,0,-7.93,0.84,-3.93,0.87,-1.04,-0.06,-0.5625,-2.625,-2.25,0.49798583984375,0.505126953125,0.6650390625,-0.2335205078125,33.1875,52.875,61.0625,-8.8,1.88,-3.87,Walking,4
4.03,3.966772503,29,3,3,3,0,-8.05,0.84,-3.98,0.76,-1.04,-0.11,-1.0625,-5.3125,-3.5,0.498291015625,0.5047607421875,0.66497802734375,-0.23382568359375,33.1875,52.875,61.0625,-8.81,1.88,-3.86,Walking,4
4.04,3.983132814,29,3,3,3,0,-8.12,0.83,-4.05,0.69,-1.03,-0.2,-2.25,-8.375,-4.9375,0.498779296875,0.50421142578125,0.6649169921875,-0.23431396484375,33.1875,52.875,61.0625,-8.82,1.87,-3.85,Walking,4
4.05,3.983132814,29,3,3,3,0,-8.38,0.85,-4.18,0.45,-1.01,-0.35,-4.4375,-10.6875,-6.375,0.49945068359375,0.50341796875,0.664794921875,-0.23480224609375,33.1875,52.875,61.0625,-8.83,1.87,-3.83,Walking,4
4.06,4.013745688,29,3,3,3,0,-8.6,0.88,-4.34,0.24,-0.98,-0.53,-6.8125,-12.3125,-7.6875,0.50030517578125,0.50244140625,0.66473388671875,-0.23529052734375,33.5625,53.25,62.25,-8.84,1.86,-3.81,Walking,4
4.07,4.013745688,29,3,3,3,0,-8.8,0.96,-4.45,0.05,-0.88,-0.67,-9.3125,-13.25,-10.0,0.50128173828125,0.50115966796875,0.664794921875,-0.23577880859375,33.5625,53.25,62.25,-8.85,1.85,-3.78,Walking,4
4.08,4.027304119,29,3,3,3,0,-9.05,1.18,-4.69,-0.18,-0.65,-0.93,-11.625,-13.9375,-12.0,0.5023193359375,0.49969482421875,0.66497802734375,-0.2362060546875,33.5625,53.25,62.25,-8.86,1.84,-3.76,Walking,4
4.09,4.027304119,29,3,3,3,0,-9.63,1.58,-5.31,-0.75,-0.25,-1.57,-13.9375,-15.0625,-13.3125,0.5035400390625,0.49798583984375,0.6651611328125,-0.23663330078125,33.5625,53.25,62.25,-8.88,1.83,-3.73,Walking,4
4.1,4.041936647,29,3,3,3,0,-9.86,1.73,-5.65,-0.97,-0.08,-1.94,-16.0,-14.9375,-13.9375,0.50482177734375,0.49615478515625,0.66546630859375,-0.23699951171875,33.5625,53.25,62.25,-8.89,1.81,-3.7,Walking,4
4.11,4.041936647,29,3,3,3,0,-9.98,1.82,-6.02,-1.08,0.02,-2.34,-18.0625,-13.0,-14.25,0.50604248046875,0.4942626953125,0.6658935546875,-0.23712158203125,32.875,53.25,60.5625,-8.9,1.8,-3.68,Walking,4
4.12,4.072285036,29,3,3,3,0,-9.85,1.94,-6.19,-0.93,0.14,-2.53,-19.5625,-8.4375,-14.1875,0.507080078125,0.49237060546875,0.66656494140625,-0.23699951171875,32.875,53.25,60.5625,-8.91,1.79,-3.66,Walking,4
4.13,4.072285036,29,3,3,3,0,-9.73,2.02,-6.06,-0.8,0.23,-2.4,-20.1875,-0.9375,-13.875,0.5076904296875,0.49066162109375,0.66754150390625,-0.2364501953125,32.875,53.25,60.5625,-8.92,1.79,-3.65,Walking,4
4.14,4.087063844,29,3,3,3,0,-9.46,2.02,-5.85,-0.54,0.24,-2.19,-20.625,6.9375,-13.25,0.50787353515625,0.4891357421875,0.6688232421875,-0.23553466796875,32.875,53.25,60.5625,-8.92,1.78,-3.65,Walking,4
4.15,4.087063844,29,3,3,3,0,-9.14,1.95,-5.68,-0.22,0.18,-2.0,-21.375,13.3125,-13.0625,0.50775146484375,0.4876708984375,0.67041015625,-0.23431396484375,32.875,53.25,60.5625,-8.91,1.77,-3.67,Walking,4
4.17,4.102237917,29,3,3,3,0,-8.51,1.82,-5.57,0.39,0.05,-1.88,-22.6875,17.5,-12.8125,0.5074462890625,0.48626708984375,0.67218017578125,-0.2327880859375,33.1875,53.25,63.0625,-8.91,1.77,-3.69,Walking,4
4.18,4.102237917,29,3,3,3,0,-8.28,1.79,-5.51,0.61,0.03,-1.79,-23.3125,18.8125,-13.0,0.50701904296875,0.48486328125,0.674072265625,-0.231201171875,33.1875,53.25,63.0625,-8.9,1.76,-3.71,Walking,4
4.18,4.132492596,29,3,3,3,0,-8.0,1.75,-5.37,0.88,0.0,-1.63,-22.875,18.75,-13.0,0.506591796875,0.48345947265625,0.6759033203125,-0.2296142578125,33.1875,53.25,63.0625,-8.89,1.75,-3.73,Walking,4
4.19,4.132492596,29,3,3,3,0,-7.8,1.74,-5.21,1.08,0.0,-1.45,-22.1875,17.625,-12.8125,0.5062255859375,0.48211669921875,0.67767333984375,-0.2281494140625,33.1875,53.25,63.0625,-8.88,1.75,-3.75,Walking,4
4.2,4.14734485,29,3,3,3,0,-7.3,1.7,-4.92,1.57,-0.04,-1.14,-21.875,15.4375,-12.0625,0.5059814453125,0.480712890625,0.6793212890625,-0.22674560546875,33.1875,53.25,63.0625,-8.87,1.74,-3.77,Walking,4
4.21,4.14734485,29,3,3,3,0,-7.15,1.7,-4.73,1.72,-0.03,-0.94,-22.0625,12.25,-11.25,0.50592041015625,0.47930908203125,0.6807861328125,-0.22540283203125,32.875,53.25,62.5625,-8.87,1.74,-3.79,Walking,4
4.22,4.163786094,29,3,3,3,0,-7.02,1.66,-4.61,1.85,-0.07,-0.82,-22.625,8.0,-10.5625,0.50616455078125,0.47784423828125,0.68206787109375,-0.22418212890625,32.875,53.25,62.5625,-8.87,1.74,-3.79,Walking,4
4.23,4.163786094,29,3,3,3,0,-6.91,1.63,-4.51,1.95,-0.11,-0.71,-22.8125,2.8125,-9.9375,0.5067138671875,0.476318359375,0.68304443359375,-0.22314453125,32.875,53.25,62.5625,-8.87,1.74,-3.79,Walking,4
4.24,4.193450563,29,3,3,3,0,-6.99,1.53,-4.39,1.88,-0.2,-0.61,-22.75,-2.6875,-9.5625,0.50762939453125,0.4747314453125,0.68377685546875,-0.2222900390625,32.875,53.25,62.5625,-8.87,1.74,-3.78,Walking,4
4.25,4.193450563,29,3,3,3,0,-7.06,1.49,-4.43,1.81,-0.24,-0.66,-22.75,-7.6875,-9.375,0.50885009765625,0.47296142578125,0.68426513671875,-0.2216796875,32.875,53.25,62.5625,-8.88,1.74,-3.76,Walking,4
4.26,4.207709718,29,3,3,3,0,-7.15,1.47,-4.47,1.74,-0.26,-0.73,-22.5625,-12.0,-9.25,0.51025390625,0.47119140625,0.6845703125,-0.22119140625,31.75,52.1875,64.5625,-8.89,1.74,-3.73,Walking,4
4.27,4.207709718,29,3,3,3,0,-7.24,1.47,-4.55,1.66,-0.27,-0.84,-21.9375,-16.0,-9.375,0.511962890625,0.4693603515625,0.6846923828125,-0.220947265625,31.75,52.1875,64.5625,-8.9,1.74,-3.7,Walking,4
4.28,4.222393597,29,3,3,3,0,-7.47,1.47,-4.76,1.45,-0.26,-1.08,-21.1875,-19.5625,-9.25,0.5137939453125,0.46746826171875,0.68463134765625,-0.22088623046875,31.75,52.1875,64.5625,-8.92,1.74,-3.67,Walking,4
4.29,4.222393597,29,3,3,3,0,-7.64,1.48,-4.85,1.29,-0.25,-1.21,-20.0,-21.9375,-9.1875,0.51568603515625,0.46563720703125,0.68438720703125,-0.22100830078125,31.75,52.1875,64.5625,-8.94,1.74,-3.63,Walking,4
4.3,4.251928265,29,3,3,3,0,-7.76,1.53,-4.93,1.18,-0.2,-1.34,-18.75,-23.0,-8.75,0.51763916015625,0.46380615234375,0.68408203125,-0.22119140625,31.75,52.1875,64.5625,-8.95,1.74,-3.59,Walking,4
4.31,4.251928265,29,3,3,3,0,-7.92,1.55,-5.06,1.05,-0.18,-1.51,-17.25,-23.0625,-8.3125,0.51953125,0.46209716796875,0.6837158203125,-0.22149658203125,30.0,51.5,63.375,-8.97,1.73,-3.55,Walking,4
4.32,4.266833905,29,3,3,3,0,-8.02,1.6,-5.12,0.96,-0.12,-1.61,-15.5,-22.375,-7.8125,0.52130126953125,0.46051025390625,0.683349609375,-0.2218017578125,30.0,51.5,63.375,-8.99,1.73,-3.51,Walking,4
4.33,4.266833905,29,3,3,3,0,-8.07,1.61,-5.11,0.92,-0.11,-1.63,-13.3125,-20.6875,-7.4375,0.52288818359375,0.45904541015625,0.6829833984375,-0.22216796875,30.0,51.5,63.375,-9.0,1.73,-3.47,Walking,4
4.34,4.282337526,29,3,3,3,0,-8.14,1.65,-5.14,0.87,-0.07,-1.69,-11.25,-18.3125,-6.8125,0.5242919921875,0.45782470703125,0.68267822265625,-0.2225341796875,30.0,51.5,63.375,-9.01,1.72,-3.44,Walking,4
4.35,4.282337526,29,3,3,3,0,-8.25,1.72,-5.13,0.77,0.0,-1.72,-10.125,-15.6875,-6.0,0.52545166015625,0.4566650390625,0.682373046875,-0.2227783203125,30.0,51.5,63.375,-9.02,1.72,-3.41,Walking,4
4.36,4.313738771,29,3,3,3,0,-8.31,1.77,-5.11,0.71,0.05,-1.71,-8.8125,-13.5,-5.1875,0.5264892578125,0.45574951171875,0.68218994140625,-0.2230224609375,31.375,51.875,65.0,-9.03,1.72,-3.39,Walking,4
4.37,4.313738771,29,3,3,3,0,-8.33,1.79,-5.11,0.71,0.07,-1.74,-7.8125,-11.875,-4.3125,0.52740478515625,0.45489501953125,0.68194580078125,-0.22320556640625,31.375,51.875,65.0,-9.04,1.71,-3.37,Walking,4
4.38,4.32761137,29,3,3,3,0,-8.4,1.77,-5.16,0.64,0.05,-1.81,-6.8125,-10.625,-3.5625,0.5281982421875,0.45416259765625,0.6817626953125,-0.223388671875,31.375,51.875,65.0,-9.05,1.71,-3.35,Walking,4
4.39,4.32761137,29,3,3,3,0,-8.58,1.72,-5.27,0.47,0.0,-1.93,-5.8125,-9.1875,-2.9375,0.5289306640625,0.45355224609375,0.68157958984375,-0.22357177734375,31.375,51.875,65.0,-9.05,1.71,-3.33,Walking,4
4.4,4.342556073,29,3,3,3,0,-8.66,1.7,-5.33,0.39,0.0,-2.0,-4.25,-8.0625,-2.625,0.52947998046875,0.45306396484375,0.68145751953125,-0.22369384765625,31.375,51.875,65.0,-9.06,1.71,-3.32,Walking,4
4.41,4.342556073,29,3,3,3,0,-8.8,1.64,-5.42,0.26,-0.07,-2.1,-2.4375,-7.5,-2.125,0.52996826171875,0.45269775390625,0.68121337890625,-0.22393798828125,32.5625,51.0625,64.5625,-9.06,1.71,-3.31,Walking,4
4.42,4.372349733,29,3,3,3,0,-8.9,1.58,-5.48,0.17,-0.12,-2.18,-1.1875,-6.5,-2.125,0.5302734375,0.452392578125,0.68109130859375,-0.2242431640625,32.5625,51.0625,64.5625,-9.07,1.71,-3.3,Walking,4
4.43,4.372349733,29,3,3,3,0,-9.02,1.5,-5.47,0.04,-0.2,-2.18,0.0,-5.3125,-2.25,0.530517578125,0.4521484375,0.680908203125,-0.2244873046875,32.5625,51.0625,64.5625,-9.07,1.7,-3.29,Walking,4
4.44,4.387138348,29,3,3,3,0,-9.0,1.47,-5.5,0.07,-0.22,-2.21,1.4375,-2.8125,-2.5,0.53057861328125,0.4520263671875,0.680908203125,-0.22479248046875,32.5625,51.0625,64.5625,-9.07,1.7,-3.29,Walking,4
4.45,4.387138348,29,3,3,3,0,-8.98,1.43,-5.52,0.09,-0.25,-2.23,1.5,0.4375,-2.9375,0.5303955078125,0.45196533203125,0.6810302734375,-0.22503662109375,32.5625,51.0625,64.5625,-9.07,1.69,-3.29,Walking,4
4.46,4.402035117,29,3,3,3,0,-8.86,1.43,-5.41,0.21,-0.25,-2.1,1.3125,4.0625,-2.9375,0.530029296875,0.451904296875,0.68133544921875,-0.22509765625,31.75,51.875,65.75,-9.07,1.69,-3.3,Walking,4
4.47,4.402035117,29,3,3,3,0,-8.9,1.36,-5.33,0.17,-0.31,-2.01,1.625,7.75,-2.875,0.5294189453125,0.4520263671875,0.6817626953125,-0.2249755859375,31.75,51.875,65.75,-9.07,1.68,-3.31,Walking,4
4.48,4.432823122,29,3,3,3,0,-8.97,1.33,-5.32,0.07,-0.33,-1.93,2.4375,10.4375,-2.3125,0.5263671875,0.452880859375,0.68377685546875,-0.22418212890625,31.75,51.875,65.75,-9.05,1.66,-3.38,Walking,4
4.49,4.432823122,29,3,3,3,0,-9.1,1.31,-5.34,-0.07,-0.34,-1.89,2.8125,11.25,-1.25,0.52337646484375,0.45379638671875,0.68572998046875,-0.22344970703125,31.75,51.875,65.75,-9.02,1.65,-3.45,Walking,4
4.51,4.446718304,29,3,3,3,0,-9.26,1.24,-5.56,-0.25,-0.39,-2.04,4.125,11.0625,0.0,0.5203857421875,0.454833984375,0.68756103515625,-0.2227783203125,31.75,51.875,65.75,-9.0,1.63,-3.52,Walking,4
4.51,4.446718304,29,3,3,3,0,-9.28,1.15,-5.64,-0.28,-0.48,-2.1,6.4375,10.4375,1.3125,0.51947021484375,0.45538330078125,0.6878662109375,-0.22265625,30.6875,51.5,64.1875,-8.99,1.63,-3.54,Walking,4
4.52,4.461642661,29,3,3,3,0,-9.28,1.13,-5.68,-0.29,-0.5,-2.12,9.0,10.875,3.0625,0.51849365234375,0.45623779296875,0.6881103515625,-0.22259521484375,30.6875,51.5,64.1875,-8.98,1.63,-3.56,Walking,4
4.53,4.461642661,29,3,3,3,0,-9.24,1.04,-5.67,-0.26,-0.59,-2.08,11.0,13.25,5.1875,0.51727294921875,0.45733642578125,0.68829345703125,-0.2225341796875,30.6875,51.5,64.1875,-8.97,1.63,-3.58,Walking,4
4.54,4.493453127,29,3,3,3,0,-9.26,0.98,-5.35,-0.3,-0.65,-1.73,11.875,17.1875,7.3125,0.515869140625,0.4586181640625,0.6885986328125,-0.22216796875,30.6875,51.5,64.1875,-8.96,1.63,-3.61,Walking,4
4.55,4.493453127,29,3,3,3,0,-9.46,1.02,-5.08,-0.51,-0.62,-1.42,11.125,22.3125,9.3125,0.51422119140625,0.46014404296875,0.68902587890625,-0.2215576171875,30.6875,51.5,64.1875,-8.94,1.64,-3.65,Walking,4
4.57,4.508102215,29,3,3,3,0,-9.81,1.17,-4.88,-0.88,-0.48,-1.18,9.8125,26.25,11.1875,0.512451171875,0.4617919921875,0.6895751953125,-0.22052001953125,30.6875,51.5,65.0,-8.92,1.65,-3.7,Walking,4
4.58,4.508102215,29,3,3,3,0,-10.33,1.55,-4.77,-1.42,-0.12,-1.02,8.6875,25.8125,13.5625,0.5107421875,0.4635009765625,0.6900634765625,-0.21942138671875,30.6875,51.5,65.0,-8.9,1.67,-3.74,Walking,4
4.59,4.522609011,29,3,3,3,0,-11.06,1.88,-4.93,-2.17,0.19,-1.14,6.5,23.125,16.125,0.50933837890625,0.4652099609375,0.6903076171875,-0.2181396484375,30.6875,51.5,65.0,-8.88,1.69,-3.78,Walking,4
4.59,4.522609011,29,3,3,3,0,-11.3,1.59,-5.0,-2.44,-0.12,-1.18,2.3125,21.875,17.9375,0.50823974609375,0.46685791015625,0.6905517578125,-0.216552734375,30.6875,51.5,65.0,-8.86,1.72,-3.82,Walking,4
4.6,4.552317425,29,3,3,3,0,-11.6,1.31,-4.95,-2.76,-0.43,-1.09,0.125,24.1875,17.625,0.507080078125,0.4683837890625,0.69091796875,-0.21478271484375,30.6875,51.5,65.0,-8.84,1.74,-3.85,Walking,4
4.61,4.552317425,29,3,3,3,0,-11.74,1.21,-4.92,-2.92,-0.55,-1.02,1.6875,28.625,14.8125,0.5054931640625,0.46990966796875,0.69158935546875,-0.21307373046875,29.5625,51.5,63.6875,-8.82,1.76,-3.9,Walking,4
4.62,4.566775555,29,3,3,3,0,-11.4,1.36,-4.5,-2.61,-0.41,-0.55,4.875,31.75,11.0,0.5035400390625,0.47137451171875,0.69244384765625,-0.2115478515625,29.5625,51.5,63.6875,-8.79,1.78,-3.95,Walking,4
4.63,4.566775555,29,3,3,3,0,-11.07,1.67,-4.25,-2.3,-0.11,-0.24,7.75,32.875,8.3125,0.5013427734375,0.47283935546875,0.69342041015625,-0.21026611328125,29.5625,51.5,63.6875,-8.76,1.78,-4.0,Walking,4
4.64,4.583018028,29,3,3,3,0,-10.76,1.98,-4.06,-2.02,0.19,0.0,8.0,34.25,7.0,0.4990234375,0.4742431640625,0.69451904296875,-0.20904541015625,29.5625,51.5,63.6875,-8.74,1.79,-4.06,Walking,4
4.65,4.583018028,29,3,3,3,0,-9.83,2.71,-3.58,-1.12,0.91,0.53,8.0,35.625,7.6875,0.49664306640625,0.4757080078125,0.69561767578125,-0.20770263671875,29.5625,51.5,63.6875,-8.71,1.8,-4.12,Walking,4
4.67,4.613568646,29,3,3,3,0,-9.42,3.12,-3.18,-0.74,1.31,0.99,7.3125,34.625,9.9375,0.494384765625,0.477294921875,0.69659423828125,-0.20623779296875,30.375,51.875,62.5,-8.68,1.8,-4.17,Walking,4
4.68,4.613568646,29,3,3,3,0,-9.07,3.4,-2.78,-0.41,1.58,1.44,7.0,31.8125,12.875,0.4923095703125,0.47894287109375,0.69732666015625,-0.20477294921875,30.375,51.875,62.5,-8.65,1.82,-4.23,Walking,4
4.68,4.627785117,29,3,3,3,0,-8.76,3.82,-2.51,-0.13,1.98,1.76,6.9375,28.5,16.0625,0.49053955078125,0.48077392578125,0.69775390625,-0.20330810546875,30.375,51.875,62.5,-8.63,1.84,-4.27,Walking,4
4.69,4.627785117,29,3,3,3,0,-8.31,4.42,-2.26,0.28,2.55,2.05,6.8125,25.0625,19.0,0.489013671875,0.482666015625,0.69793701171875,-0.20184326171875,30.375,51.875,62.5,-8.6,1.86,-4.31,Walking,4
4.7,4.643024579,29,3,3,3,0,-8.2,4.57,-2.34,0.37,2.68,2.0,7.1875,21.875,21.125,0.48773193359375,0.484619140625,0.6978759765625,-0.20050048828125,30.375,51.875,62.5,-8.58,1.89,-4.35,Walking,4
4.71,4.643024579,29,3,3,3,0,-8.3,4.57,-2.39,0.25,2.65,1.98,10.5625,15.25,23.0625,0.48675537109375,0.48675537109375,0.6973876953125,-0.199462890625,28.875,51.5,64.1875,-8.56,1.91,-4.37,Walking,4
4.72,4.672328534,29,3,3,3,0,-8.4,4.39,-2.39,0.13,2.44,1.99,15.0625,8.5,23.875,0.4859619140625,0.489013671875,0.69647216796875,-0.198974609375,28.875,51.5,64.1875,-8.54,1.94,-4.39,Walking,4
4.73,4.672328534,29,3,3,3,0,-8.82,3.64,-2.58,-0.28,1.68,1.81,19.0625,0.875,24.1875,0.4854736328125,0.4913330078125,0.69512939453125,-0.1990966796875,28.875,51.5,64.1875,-8.53,1.96,-4.4,Walking,4
4.74,4.686790082,29,3,3,3,0,-9.25,3.29,-2.66,-0.72,1.31,1.73,22.0,-8.875,23.5,0.4854736328125,0.4935302734375,0.69342041015625,-0.19976806640625,28.875,51.5,64.1875,-8.53,1.98,-4.4,Walking,4
4.76,4.686790082,29,3,3,3,0,-9.61,2.96,-2.86,-1.06,0.97,1.51,24.9375,-18.1875,22.0,0.48590087890625,0.49560546875,0.69122314453125,-0.20111083984375,28.875,51.5,64.1875,-8.54,1.99,-4.38,Walking,4
4.76,4.702757733,29,3,3,3,0,-9.87,2.58,-3.17,-1.32,0.57,1.18,27.0625,-25.75,20.3125,0.486572265625,0.49755859375,0.68878173828125,-0.2030029296875,29.1875,51.5,62.875,-8.55,2.0,-4.35,Walking,4
4.77,4.702757733,29,3,3,3,0,-10.11,1.82,-4.34,-1.54,-0.18,-0.03,27.0625,-32.9375,18.8125,0.48773193359375,0.499267578125,0.68609619140625,-0.20526123046875,29.1875,51.5,62.875,-8.57,2.01,-4.31,Walking,4
4.78,4.732701255,29,3,3,3,0,-9.98,1.48,-4.94,-1.38,-0.53,-0.67,27.375,-38.0,17.5,0.48907470703125,0.50079345703125,0.6832275390625,-0.207763671875,29.1875,51.5,62.875,-8.59,2.01,-4.26,Walking,4
4.79,4.732701255,29,3,3,3,0,-9.77,1.24,-5.33,-1.16,-0.78,-1.1,30.5,-34.75,16.3125,0.4901123046875,0.50244140625,0.68048095703125,-0.21038818359375,29.1875,51.5,62.875,-8.61,2.02,-4.22,Walking,4
4.8,4.747131227,29,3,3,3,0,-9.51,1.11,-5.42,-0.89,-0.9,-1.21,33.9375,-20.3125,15.75,0.4901123046875,0.50445556640625,0.67828369140625,-0.212646484375,29.1875,51.5,62.875,-8.62,2.02,-4.2,Walking,4
4.81,4.747131227,29,3,3,3,0,-8.98,1.12,-4.82,-0.36,-0.89,-0.61,31.75,-4.0625,14.9375,0.48919677734375,0.50665283203125,0.6768798828125,-0.21405029296875,30.375,51.5,61.25,-8.62,2.01,-4.21,Walking,4
4.82,4.762090212,29,3,3,3,0,-8.68,1.31,-4.41,-0.07,-0.7,-0.18,24.75,3.1875,14.5625,0.48822021484375,0.50860595703125,0.6759033203125,-0.2147216796875,30.375,51.5,61.25,-8.61,2.02,-4.22,Walking,4
4.84,4.762090212,29,3,3,3,0,-8.26,1.46,-4.12,0.33,-0.57,0.11,16.1875,5.75,13.8125,0.48736572265625,0.51025390625,0.67523193359375,-0.21484375,30.375,51.5,61.25,-8.6,2.03,-4.24,Walking,4
4.84,4.792732871,29,3,3,3,0,-7.64,1.56,-4.02,0.95,-0.48,0.23,9.1875,8.0,12.625,0.4866943359375,0.51153564453125,0.67486572265625,-0.2144775390625,30.375,51.5,61.25,-8.59,2.04,-4.25,Walking,4
4.85,4.792732871,29,3,3,3,0,-7.18,1.67,-3.91,1.39,-0.38,0.35,4.5,9.0,11.875,0.4862060546875,0.51263427734375,0.67462158203125,-0.21380615234375,30.375,51.5,61.25,-8.58,2.05,-4.27,Walking,4
4.86,4.807085492,29,3,3,3,0,-6.7,1.73,-3.72,1.86,-0.33,0.56,2.5,9.5,10.75,0.4857177734375,0.5135498046875,0.67449951171875,-0.21307373046875,31.375,52.1875,59.75,-8.57,2.07,-4.28,Walking,4
4.87,4.807085492,29,3,3,3,0,-6.38,1.81,-3.55,2.17,-0.26,0.74,2.0,9.625,9.25,0.4852294921875,0.51434326171875,0.67449951171875,-0.21234130859375,31.375,52.1875,59.75,-8.56,2.08,-4.3,Walking,4
4.88,4.821580324,29,3,3,3,0,-5.68,2.07,-3.2,2.86,-0.02,1.11,2.9375,7.8125,8.1875,0.4847412109375,0.51513671875,0.67437744140625,-0.21185302734375,31.375,52.1875,59.75,-8.55,2.09,-4.31,Walking,4
4.89,4.821580324,29,3,3,3,0,-5.46,2.19,-2.97,3.07,0.09,1.35,5.0625,3.25,7.1875,0.48443603515625,0.51580810546875,0.67413330078125,-0.211669921875,31.375,52.1875,59.75,-8.54,2.1,-4.32,Walking,4
4.91,4.852596275,29,3,3,3,0,-5.24,2.29,-2.78,3.3,0.19,1.54,6.875,-1.6875,6.0625,0.48431396484375,0.5164794921875,0.67364501953125,-0.2119140625,31.375,52.1875,59.75,-8.54,2.1,-4.32,Walking,4
4.92,4.852596275,29,3,3,3,0,-5.18,2.35,-2.63,3.36,0.24,1.67,8.75,-6.875,5.375,0.48443603515625,0.51702880859375,0.6729736328125,-0.21246337890625,32.1875,52.1875,58.5,-8.54,2.1,-4.31,Walking,4
4.93,4.86701107,29,3,3,3,0,-5.46,2.47,-2.51,3.08,0.36,1.79,10.0,-13.125,5.6875,0.48486328125,0.517578125,0.67193603515625,-0.21337890625,32.1875,52.1875,58.5,-8.55,2.1,-4.3,Walking,4
4.93,4.86701107,29,3,3,3,0,-5.62,2.44,-2.57,2.94,0.33,1.7,9.8125,-18.6875,6.25,0.485595703125,0.51800537109375,0.67071533203125,-0.21453857421875,32.1875,52.1875,58.5,-8.56,2.11,-4.27,Walking,4
4.94,4.883042523,29,3,3,3,0,-5.91,2.36,-2.81,2.66,0.24,1.43,9.25,-24.1875,7.375,0.48675537109375,0.51837158203125,0.669189453125,-0.21588134765625,32.1875,52.1875,58.5,-8.58,2.11,-4.24,Walking,4
4.95,4.883042523,29,3,3,3,0,-6.18,2.28,-3.18,2.41,0.16,1.02,9.125,-29.625,8.3125,0.48822021484375,0.5186767578125,0.6673583984375,-0.21734619140625,32.1875,52.1875,58.5,-8.6,2.12,-4.2,Walking,4
4.97,4.912917971,29,3,3,3,0,-6.62,2.09,-4.14,1.99,-0.03,0.01,10.3125,-34.0625,9.6875,0.4898681640625,0.51904296875,0.665283203125,-0.2191162109375,32.5625,51.5,57.75,-8.62,2.12,-4.15,Walking,4
4.98,4.912917971,29,3,3,3,0,-6.9,2.03,-4.58,1.73,-0.1,-0.47,12.375,-35.5625,10.375,0.4915771484375,0.51953125,0.66302490234375,-0.220947265625,32.5625,51.5,57.75,-8.64,2.13,-4.1,Walking,4
4.99,4.927505902,29,3,3,3,0,-7.15,1.95,-4.84,1.5,-0.18,-0.77,13.625,-34.3125,10.6875,0.4931640625,0.52008056640625,0.66082763671875,-0.22283935546875,32.5625,51.5,57.75,-8.66,2.14,-4.06,Walking,4
5.0,4.927505902,29,3,3,3,0,-7.6,1.86,-4.95,1.07,-0.28,-0.93,12.5625,-31.4375,10.25,0.49456787109375,0.52056884765625,0.65875244140625,-0.22454833984375,32.5625,51.5,57.75,-8.68,2.14,-4.02,Walking,4
5.01,4.942703452,29,3,3,3,0,-7.86,1.8,-4.92,0.83,-0.35,-0.94,10.375,-27.125,9.6875,0.495849609375,0.52105712890625,0.65692138671875,-0.2259521484375,32.5625,51.5,57.75,-8.69,2.15,-3.98,Walking,4
5.01,4.942703452,29,3,3,3,0,-8.09,1.77,-4.84,0.61,-0.38,-0.88,8.25,-21.5,9.0,0.49688720703125,0.52154541015625,0.65545654296875,-0.22698974609375,32.1875,52.5625,56.1875,-8.7,2.16,-3.95,Walking,4
5.02,4.973576174,29,3,3,3,0,-8.32,1.79,-4.87,0.39,-0.37,-0.93,5.1875,-16.1875,7.5625,0.4976806640625,0.5218505859375,0.654296875,-0.2276611328125,32.1875,52.5625,56.1875,-8.71,2.17,-3.93,Walking,4
5.03,4.973576174,29,3,3,3,0,-8.69,2.08,-4.93,0.02,-0.09,-1.01,1.5625,-12.5,5.625,0.4984130859375,0.52203369140625,0.6534423828125,-0.22808837890625,32.1875,52.5625,56.1875,-8.72,2.18,-3.91,Walking,4
5.04,4.988380454,29,3,3,3,0,-8.81,2.22,-4.95,-0.08,0.04,-1.05,-1.375,-9.375,3.3125,0.49908447265625,0.52197265625,0.6529541015625,-0.228271484375,32.1875,52.5625,56.1875,-8.72,2.18,-3.89,Walking,4
5.05,4.988380454,29,3,3,3,0,-8.89,2.38,-4.99,-0.16,0.19,-1.1,-3.5625,-7.1875,1.25,0.49969482421875,0.52178955078125,0.65264892578125,-0.22833251953125,32.1875,52.5625,56.1875,-8.73,2.19,-3.88,Walking,4
5.07,5.002286135,29,3,3,3,0,-8.94,2.51,-5.05,-0.2,0.32,-1.17,-6.25,-4.5625,-0.6875,0.50018310546875,0.5213623046875,0.652587890625,-0.22821044921875,32.875,51.875,53.75,-8.73,2.19,-3.87,Walking,4
5.08,5.002286135,29,3,3,3,0,-9.04,2.83,-5.25,-0.3,0.63,-1.38,-8.8125,-2.1875,-2.75,0.50067138671875,0.52081298828125,0.65283203125,-0.2279052734375,32.875,51.875,53.75,-8.73,2.19,-3.87,Walking,4
5.09,5.033364748,29,3,3,3,0,-9.16,3.03,-5.31,-0.42,0.83,-1.44,-9.9375,-0.9375,-4.625,0.50103759765625,0.52008056640625,0.6531982421875,-0.2275390625,32.875,51.875,53.75,-8.74,2.19,-3.86,Walking,4
5.09,5.033364748,29,3,3,3,0,-9.23,3.2,-5.42,-0.49,1.01,-1.56,-9.1875,-0.625,-6.3125,0.5013427734375,0.51934814453125,0.65362548828125,-0.22735595703125,32.875,51.875,53.75,-8.74,2.19,-3.86,Walking,4
5.1,5.047836875,29,3,3,3,0,-9.33,3.42,-5.45,-0.59,1.23,-1.59,-7.1875,-0.25,-8.1875,0.50152587890625,0.5185546875,0.6541748046875,-0.227294921875,32.875,51.875,53.75,-8.74,2.18,-3.86,Walking,4
5.11,5.047836875,29,3,3,3,0,-9.51,3.71,-5.53,-0.76,1.53,-1.67,-4.375,1.125,-9.5625,0.50146484375,0.517822265625,0.65472412109375,-0.22735595703125,33.5625,51.5,54.6875,-8.74,2.17,-3.86,Walking,4
5.12,5.063581667,29,3,3,3,0,-9.59,3.8,-5.52,-0.84,1.64,-1.65,-0.6875,3.625,-10.75,0.50103759765625,0.51727294921875,0.6553955078125,-0.22760009765625,33.5625,51.5,54.6875,-8.75,2.15,-3.86,Walking,4
5.13,5.063581667,29,3,3,3,0,-9.69,3.8,-5.5,-0.94,1.66,-1.62,3.25,7.6875,-11.5,0.50018310546875,0.51690673828125,0.65625,-0.22796630859375,33.5625,51.5,54.6875,-8.74,2.13,-3.88,Walking,4
5.15,5.09348808,29,3,3,3,0,-9.75,3.72,-5.54,-1.01,1.6,-1.63,5.5,13.0625,-12.3125,0.49896240234375,0.5167236328125,0.6572265625,-0.22821044921875,33.5625,51.5,54.6875,-8.74,2.11,-3.9,Walking,4
5.16,5.09348808,29,3,3,3,0,-9.74,3.31,-5.6,-1.0,1.22,-1.67,5.6875,20.25,-13.4375,0.49725341796875,0.51666259765625,0.65863037109375,-0.2281494140625,33.5625,51.5,54.6875,-8.73,2.09,-3.93,Walking,4
5.17,5.107186078,29,3,3,3,0,-10.01,3.08,-5.57,-1.29,1.02,-1.59,6.5,28.4375,-15.125,0.4949951171875,0.5166015625,0.660400390625,-0.2279052734375,34.375,51.875,53.75,-8.72,2.06,-3.98,Walking,4
5.18,5.107186078,29,3,3,3,0,-10.39,2.78,-5.52,-1.69,0.75,-1.48,7.4375,34.9375,-17.8125,0.49224853515625,0.5166015625,0.66259765625,-0.22747802734375,34.375,51.875,53.75,-8.7,2.03,-4.03,Walking,4
5.18,5.122405398,29,3,3,3,0,-10.26,2.02,-5.45,-1.57,0.02,-1.35,7.75,37.9375,-21.3125,0.4892578125,0.5164794921875,0.6650390625,-0.22711181640625,34.375,51.875,53.75,-8.68,1.99,-4.09,Walking,4
5.19,5.122405398,29,3,3,3,0,-10.01,1.48,-5.27,-1.35,-0.46,-1.11,8.0,40.0625,-24.375,0.486083984375,0.5162353515625,0.66766357421875,-0.226806640625,34.375,51.875,53.75,-8.66,1.95,-4.16,Walking,4
5.2,5.152377769,29,3,3,3,0,-9.8,0.98,-4.78,-1.16,-0.91,-0.55,12.125,43.875,-26.6875,0.482421875,0.51605224609375,0.6705322265625,-0.22662353515625,34.375,51.875,53.75,-8.63,1.9,-4.23,Walking,4
5.21,5.152377769,29,3,3,3,0,-9.7,0.67,-4.27,-1.08,-1.17,0.03,17.375,46.25,-28.0,0.47833251953125,0.51605224609375,0.67333984375,-0.22674560546875,31.75,51.875,53.0,-8.61,1.84,-4.31,Walking,4
5.23,5.167106285,29,3,3,3,0,-9.88,0.26,-3.22,-1.29,-1.52,1.14,17.75,41.125,-28.75,0.47454833984375,0.51593017578125,0.676025390625,-0.22711181640625,31.75,51.875,53.0,-8.59,1.79,-4.37,Walking,4
5.24,5.167106285,29,3,3,3,0,-9.99,0.17,-2.81,-1.42,-1.56,1.61,13.4375,30.625,-28.4375,0.4715576171875,0.51544189453125,0.67828369140625,-0.22772216796875,31.75,51.875,53.0,-8.57,1.73,-4.42,Walking,4
5.25,5.182739382,29,3,3,3,0,-10.31,0.26,-2.58,-1.74,-1.42,1.87,7.75,19.1875,-26.1875,0.46954345703125,0.51458740234375,0.68011474609375,-0.22833251953125,31.75,51.875,53.0,-8.56,1.69,-4.46,Walking,4
5.26,5.182739382,29,3,3,3,0,-10.48,0.38,-2.58,-1.92,-1.27,1.89,0.5,9.9375,-23.6875,0.46844482421875,0.513427734375,0.68157958984375,-0.2288818359375,31.75,51.875,53.0,-8.56,1.65,-4.47,Walking,4
5.26,5.213643394,29,3,3,3,0,-10.53,0.44,-2.94,-1.95,-1.18,1.53,-6.125,3.0,-21.5625,0.46807861328125,0.511962890625,0.68280029296875,-0.229248046875,32.5625,52.1875,54.6875,-8.57,1.63,-4.47,Walking,4
5.27,5.213643394,29,3,3,3,0,-10.33,0.34,-3.11,-1.75,-1.25,1.35,-11.875,-0.6875,-20.3125,0.46826171875,0.51025390625,0.6839599609375,-0.2293701171875,32.5625,52.1875,54.6875,-8.57,1.6,-4.47,Walking,4
5.28,5.227482343,29,3,3,3,0,-10.11,0.2,-3.19,-1.53,-1.38,1.27,-17.125,-1.5625,-19.6875,0.46868896484375,0.50830078125,0.68511962890625,-0.229248046875,32.5625,52.1875,54.6875,-8.58,1.59,-4.46,Walking,4
5.29,5.227482343,29,3,3,3,0,-9.87,0.12,-2.99,-1.28,-1.45,1.46,-22.875,-1.1875,-19.625,0.46942138671875,0.50616455078125,0.6864013671875,-0.22869873046875,32.5625,52.1875,54.6875,-8.58,1.58,-4.45,Walking,4
5.31,5.242816124,29,3,3,3,0,-9.72,0.17,-2.57,-1.12,-1.39,1.86,-27.75,-3.375,-18.9375,0.470458984375,0.50384521484375,0.6876220703125,-0.22796630859375,32.5625,52.1875,54.6875,-8.59,1.57,-4.44,Walking,4
5.32,5.242816124,29,3,3,3,0,-9.75,0.4,-2.72,-1.14,-1.16,1.7,-30.6875,-7.25,-18.5,0.47186279296875,0.5013427734375,0.68878173828125,-0.22723388671875,30.6875,53.6875,54.1875,-8.6,1.57,-4.42,Walking,4
5.33,5.273398236,29,3,3,3,0,-9.82,0.64,-3.11,-1.2,-0.92,1.28,-32.3125,-10.75,-18.25,0.47357177734375,0.4986572265625,0.68975830078125,-0.22650146484375,30.6875,53.6875,54.1875,-8.62,1.56,-4.4,Walking,4
5.34,5.273398236,29,3,3,3,0,-9.61,1.08,-4.23,-0.97,-0.47,0.13,-32.8125,-13.3125,-17.25,0.47540283203125,0.49603271484375,0.69061279296875,-0.225830078125,30.6875,53.6875,54.1875,-8.63,1.56,-4.37,Walking,4
5.34,5.287667971,29,3,3,3,0,-9.52,1.26,-4.47,-0.86,-0.29,-0.13,-31.6875,-13.4375,-15.625,0.477294921875,0.49346923828125,0.69134521484375,-0.22515869140625,30.6875,53.6875,54.1875,-8.65,1.56,-4.34,Walking,4
5.35,5.287667971,29,3,3,3,0,-9.43,1.52,-4.58,-0.77,-0.04,-0.26,-29.375,-11.1875,-13.125,0.47900390625,0.49127197265625,0.6920166015625,-0.22442626953125,30.6875,53.6875,54.1875,-8.66,1.56,-4.31,Walking,4
5.37,5.302577924,29,3,3,3,0,-9.22,1.68,-4.58,-0.55,0.1,-0.28,-28.1875,-7.0625,-10.4375,0.48040771484375,0.48931884765625,0.6927490234375,-0.22344970703125,30.375,51.875,54.6875,-8.67,1.57,-4.3,Walking,4
5.38,5.302577924,29,3,3,3,0,-8.99,1.95,-4.52,-0.31,0.37,-0.23,-27.8125,-1.25,-7.75,0.48150634765625,0.48760986328125,0.69354248046875,-0.22216796875,30.375,51.875,54.6875,-8.67,1.58,-4.29,Walking,4
5.39,5.333589236,29,3,3,3,0,-8.76,1.92,-4.46,-0.09,0.32,-0.17,-29.5625,3.5625,-5.0625,0.48248291015625,0.48614501953125,0.69451904296875,-0.22039794921875,30.375,51.875,54.6875,-8.67,1.59,-4.28,Walking,4
5.4,5.333589236,29,3,3,3,0,-8.43,1.9,-4.39,0.23,0.28,-0.1,-31.6875,8.6875,-2.8125,0.48321533203125,0.48480224609375,0.69561767578125,-0.21826171875,30.375,51.875,54.6875,-8.66,1.61,-4.29,Walking,4
5.41,5.34813786,29,3,3,3,0,-8.08,1.91,-4.37,0.57,0.27,-0.06,-33.0,13.3125,-1.1875,0.4837646484375,0.48358154296875,0.69683837890625,-0.21575927734375,30.375,51.875,54.6875,-8.65,1.63,-4.3,Walking,4
5.42,5.34813786,29,3,3,3,0,-7.29,1.73,-4.1,1.34,0.06,0.21,-33.0,17.0625,-0.5,0.484130859375,0.48248291015625,0.69818115234375,-0.2130126953125,29.875,51.5,55.5,-8.64,1.66,-4.31,Walking,4
5.43,5.362991335,29,3,3,3,0,-6.95,1.68,-3.96,1.67,0.0,0.37,-32.5,19.5625,-0.5,0.48431396484375,0.48150634765625,0.6995849609375,-0.210205078125,29.875,51.5,55.5,-8.63,1.68,-4.34,Walking,4
5.43,5.362991335,29,3,3,3,0,-6.48,1.58,-3.71,2.12,-0.12,0.64,-31.5,20.375,-0.8125,0.48431396484375,0.48046875,0.70111083984375,-0.20745849609375,29.875,51.5,55.5,-8.61,1.71,-4.36,Walking,4
5.44,5.392142824,29,3,3,3,0,-6.12,1.48,-3.46,2.47,-0.24,0.91,-28.8125,19.0,-1.4375,0.484375,0.4794921875,0.70245361328125,-0.2049560546875,29.875,51.5,55.5,-8.6,1.73,-4.38,Walking,4
5.45,5.392142824,29,3,3,3,0,-5.46,1.36,-3.07,3.12,-0.37,1.31,-25.875,15.9375,-2.6875,0.48443603515625,0.478515625,0.7037353515625,-0.20281982421875,29.875,51.5,55.5,-8.58,1.74,-4.39,Walking,4
5.47,5.407281008,29,3,3,3,0,-5.47,1.32,-2.95,3.1,-0.43,1.45,-22.75,11.125,-3.4375,0.484619140625,0.4775390625,0.7047119140625,-0.20111083984375,29.5,50.6875,55.0,-8.58,1.75,-4.4,Walking,4
5.48,5.407281008,29,3,3,3,0,-5.42,1.29,-2.78,3.15,-0.47,1.62,-20.25,3.125,-3.6875,0.48516845703125,0.47650146484375,0.70538330078125,-0.19989013671875,29.5,50.6875,55.0,-8.58,1.76,-4.4,Walking,4
5.49,5.423330202,29,3,3,3,0,-5.58,1.3,-2.61,3.0,-0.46,1.78,-17.0,-5.3125,-4.3125,0.48614501953125,0.4754638671875,0.70562744140625,-0.19927978515625,29.5,50.6875,55.0,-8.58,1.77,-4.39,Walking,4
5.5,5.423330202,29,3,3,3,0,-6.0,1.32,-2.46,2.59,-0.45,1.9,-13.625,-13.4375,-5.25,0.4874267578125,0.47430419921875,0.70550537109375,-0.19921875,29.5,50.6875,55.0,-8.59,1.77,-4.36,Walking,4
5.51,5.452828697,29,3,3,3,0,-6.26,1.4,-2.59,2.35,-0.37,1.73,-11.1875,-21.625,-6.125,0.4891357421875,0.47308349609375,0.705078125,-0.19964599609375,29.5,50.6875,55.0,-8.61,1.77,-4.33,Walking,4
5.51,5.452828697,29,3,3,3,0,-6.66,1.51,-2.75,1.98,-0.25,1.52,-9.625,-30.8125,-6.8125,0.49127197265625,0.4716796875,0.70416259765625,-0.20062255859375,28.75,49.6875,56.1875,-8.64,1.77,-4.28,Walking,4
5.52,5.46782475,29,3,3,3,0,-7.3,1.67,-3.29,1.36,-0.09,0.92,-8.75,-37.125,-6.8125,0.49383544921875,0.47021484375,0.7030029296875,-0.201904296875,28.75,49.6875,56.1875,-8.67,1.77,-4.22,Walking,4
5.53,5.46782475,29,3,3,3,0,-7.62,1.75,-3.72,1.07,0.0,0.43,-6.75,-41.1875,-6.8125,0.49652099609375,0.46881103515625,0.70166015625,-0.2034912109375,28.75,49.6875,56.1875,-8.7,1.76,-4.15,Walking,4
5.55,5.482813235,29,3,3,3,0,-7.91,1.73,-4.04,0.82,-0.01,0.04,-3.8125,-43.3125,-6.9375,0.49920654296875,0.4674072265625,0.70013427734375,-0.205322265625,28.75,49.6875,56.1875,-8.73,1.75,-4.09,Walking,4
5.56,5.482813235,29,3,3,3,0,-8.23,1.68,-4.28,0.53,-0.06,-0.25,-0.0625,-42.4375,-6.75,0.50164794921875,0.46624755859375,0.69854736328125,-0.20733642578125,28.75,49.6875,56.1875,-8.76,1.74,-4.02,Walking,4
5.57,5.51329232,29,3,3,3,0,-8.75,1.48,-4.5,0.04,-0.24,-0.53,3.1875,-40.0,-6.625,0.50384521484375,0.46527099609375,0.697021484375,-0.20947265625,30.5625,48.5625,54.1875,-8.79,1.73,-3.96,Walking,4
5.58,5.51329232,29,3,3,3,0,-8.96,1.46,-4.55,-0.13,-0.25,-0.64,5.1875,-37.125,-6.6875,0.5057373046875,0.46441650390625,0.695556640625,-0.21160888671875,30.5625,48.5625,54.1875,-8.82,1.72,-3.91,Walking,4
5.59,5.527931928,29,3,3,3,0,-9.18,1.38,-4.67,-0.33,-0.32,-0.81,5.8125,-32.5,-7.0625,0.50732421875,0.463623046875,0.69427490234375,-0.21356201171875,30.5625,48.5625,54.1875,-8.85,1.7,-3.86,Walking,4
5.59,5.527931928,29,3,3,3,0,-9.26,1.29,-4.78,-0.39,-0.39,-0.96,5.5625,-27.3125,-7.375,0.50860595703125,0.462890625,0.69329833984375,-0.21533203125,30.5625,48.5625,54.1875,-8.87,1.68,-3.82,Walking,4
5.6,5.54248039,29,3,3,3,0,-9.33,1.04,-4.88,-0.44,-0.62,-1.09,4.75,-20.25,-7.6875,0.509521484375,0.4622802734375,0.692626953125,-0.216796875,30.5625,48.5625,54.1875,-8.88,1.67,-3.79,Walking,4
5.61,5.54248039,29,3,3,3,0,-9.41,0.88,-4.86,-0.52,-0.77,-1.08,4.1875,-13.3125,-7.4375,0.510009765625,0.4617919921875,0.69219970703125,-0.2178955078125,31.6875,47.75,53.75,-8.89,1.66,-3.77,Walking,4
5.63,5.572296796,29,3,3,3,0,-9.5,0.68,-4.86,-0.59,-0.96,-1.1,4.0625,-8.875,-7.4375,0.51025390625,0.4613037109375,0.69207763671875,-0.2188720703125,31.6875,47.75,53.75,-8.9,1.64,-3.76,Walking,4
5.64,5.572296796,29,3,3,3,0,-9.45,0.46,-4.94,-0.54,-1.16,-1.19,4.5625,-6.5625,-6.9375,0.51031494140625,0.46099853515625,0.69195556640625,-0.2197265625,31.6875,47.75,53.75,-8.91,1.63,-3.75,Walking,4
5.65,5.587415814,29,3,3,3,0,-9.42,0.2,-5.28,-0.5,-1.41,-1.53,5.75,-5.5625,-6.1875,0.51031494140625,0.46075439453125,0.69183349609375,-0.2205810546875,31.6875,47.75,53.75,-8.91,1.61,-3.74,Walking,4
5.66,5.587415814,29,3,3,3,0,-9.51,0.13,-5.36,-0.59,-1.46,-1.62,7.6875,-4.0,-4.75,0.5101318359375,0.46075439453125,0.69171142578125,-0.221435546875,31.6875,47.75,53.75,-8.92,1.6,-3.74,Walking,4
5.67,5.60295093,29,3,3,3,0,-9.76,0.11,-5.36,-0.84,-1.47,-1.61,10.25,0.0,-2.875,0.5096435546875,0.46099853515625,0.691650390625,-0.22216796875,31.25,48.0625,51.75,-8.92,1.59,-3.74,Walking,4
5.68,5.60295093,29,3,3,3,0,-10.26,0.0,-5.26,-1.34,-1.57,-1.5,13.125,3.4375,-0.75,0.50885009765625,0.46160888671875,0.69158935546875,-0.22283935546875,31.25,48.0625,51.75,-8.92,1.58,-3.75,Walking,4
5.68,5.632611697,29,3,3,3,0,-10.41,0.06,-5.27,-1.49,-1.51,-1.5,16.6875,6.4375,1.625,0.5078125,0.46258544921875,0.69146728515625,-0.2235107421875,31.25,48.0625,51.75,-8.91,1.57,-3.76,Walking,4
5.69,5.632611697,29,3,3,3,0,-10.45,0.26,-5.23,-1.54,-1.3,-1.44,19.75,10.5,4.125,0.5064697265625,0.46392822265625,0.69140625,-0.22412109375,31.25,48.0625,51.75,-8.9,1.56,-3.79,Walking,4
5.71,5.647640749,29,3,3,3,0,-10.33,0.54,-5.17,-1.44,-1.02,-1.35,20.875,16.875,7.125,0.50469970703125,0.465576171875,0.69146728515625,-0.224365234375,31.25,48.0625,51.75,-8.89,1.56,-3.82,Walking,4
5.72,5.647640749,29,3,3,3,0,-10.65,1.51,-4.43,-1.78,-0.04,-0.56,20.625,25.5,9.75,0.50250244140625,0.46759033203125,0.69183349609375,-0.22418212890625,30.5625,48.75,51.5,-8.87,1.56,-3.86,Walking,4
5.73,5.662750979,29,3,3,3,0,-10.88,2.13,-4.17,-2.04,0.56,-0.24,18.75,33.5,12.1875,0.49993896484375,0.46978759765625,0.69244384765625,-0.223388671875,30.5625,48.75,51.5,-8.84,1.57,-3.92,Walking,4
5.74,5.662750979,29,3,3,3,0,-11.2,2.77,-4.06,-2.38,1.18,-0.07,14.5625,38.4375,14.375,0.497314453125,0.4720458984375,0.6932373046875,-0.22210693359375,30.5625,48.75,51.5,-8.81,1.58,-3.98,Walking,4
5.75,5.693482099,29,3,3,3,0,-11.42,3.31,-4.11,-2.63,1.71,-0.06,8.375,41.125,16.0625,0.4947509765625,0.47418212890625,0.6942138671875,-0.22021484375,30.5625,48.75,51.5,-8.78,1.6,-4.05,Walking,4
5.76,5.693482099,29,3,3,3,0,-11.53,3.6,-4.54,-2.78,1.97,-0.42,1.9375,45.0,16.8125,0.49224853515625,0.47613525390625,0.69537353515625,-0.2177734375,30.5625,48.75,51.5,-8.74,1.62,-4.12,Walking,4
5.77,5.707860191,29,3,3,3,0,-11.4,3.47,-4.71,-2.7,1.82,-0.51,-1.25,49.6875,15.8125,0.48956298828125,0.47796630859375,0.6968994140625,-0.21490478515625,31.6875,48.5,51.5,-8.7,1.65,-4.19,Walking,4
5.78,5.707860191,29,3,3,3,0,-11.63,3.27,-4.68,-2.97,1.6,-0.4,0.25,52.125,13.0625,0.48663330078125,0.479736328125,0.69854736328125,-0.21221923828125,31.6875,48.5,51.5,-8.66,1.67,-4.27,Walking,4
5.79,5.72236662,29,3,3,3,0,-11.78,3.01,-4.35,-3.15,1.33,0.0,3.4375,53.0625,8.5,0.4833984375,0.48138427734375,0.70037841796875,-0.2098388671875,31.6875,48.5,51.5,-8.62,1.68,-4.35,Walking,4
5.8,5.72236662,29,3,3,3,0,-11.92,2.74,-3.44,-3.34,1.06,0.98,5.5,51.25,3.875,0.4801025390625,0.4827880859375,0.7022705078125,-0.2078857421875,31.6875,48.5,51.5,-8.58,1.68,-4.43,Walking,4
5.81,5.753289635,29,3,3,3,0,-11.68,2.54,-3.07,-3.14,0.86,1.43,5.0,44.125,0.125,0.4771728515625,0.4837646484375,0.70404052734375,-0.206298828125,31.6875,48.5,51.5,-8.54,1.67,-4.5,Walking,4
5.82,5.753289635,29,3,3,3,0,-11.28,2.33,-2.8,-2.76,0.66,1.75,1.5625,33.4375,-1.25,0.47503662109375,0.484375,0.7054443359375,-0.205078125,32.5,46.25,50.0,-8.52,1.67,-4.55,Walking,4
5.83,5.76769149,29,3,3,3,0,-11.06,2.22,-2.6,-2.56,0.54,1.99,-1.25,24.0625,-0.6875,0.47357177734375,0.48468017578125,0.70654296875,-0.2039794921875,32.5,46.25,50.0,-8.5,1.67,-4.59,Walking,4
5.84,5.76769149,29,3,3,3,0,-9.86,2.7,-2.7,-1.37,1.02,1.91,-2.5,19.1875,0.125,0.47247314453125,0.48492431640625,0.70733642578125,-0.20306396484375,32.5,46.25,50.0,-8.48,1.67,-4.61,Walking,4
5.84,5.78359538,29,3,3,3,0,-9.54,3.13,-2.88,-1.07,1.45,1.76,-2.3125,17.75,1.8125,0.4715576171875,0.4852294921875,0.70806884765625,-0.20208740234375,32.5,46.25,50.0,-8.47,1.68,-4.64,Walking,4
5.85,5.78359538,29,3,3,3,0,-9.27,3.34,-2.95,-0.81,1.65,1.71,-3.6875,16.5,3.75,0.47076416015625,0.485595703125,0.7086181640625,-0.20098876953125,32.5,46.25,50.0,-8.45,1.69,-4.66,Walking,4
5.87,5.812398765,29,3,3,3,0,-8.78,3.47,-2.91,-0.33,1.77,1.77,-5.6875,14.9375,5.375,0.47015380859375,0.4859619140625,0.7091064453125,-0.19976806640625,32.0625,47.0,50.0,-8.44,1.7,-4.68,Walking,4
5.88,5.812398765,29,3,3,3,0,-8.62,3.37,-2.96,-0.19,1.65,1.74,-7.0625,10.875,6.875,0.46990966796875,0.486328125,0.70941162109375,-0.1986083984375,32.0625,47.0,50.0,-8.43,1.71,-4.7,Walking,4
5.89,5.827799115,29,3,3,3,0,-8.5,3.17,-3.06,-0.07,1.43,1.64,-7.25,4.0625,8.125,0.47015380859375,0.486572265625,0.7093505859375,-0.1976318359375,32.0625,47.0,50.0,-8.42,1.73,-4.7,Walking,4
5.9,5.827799115,29,3,3,3,0,-8.37,2.9,-3.25,0.05,1.15,1.44,-5.6875,-4.25,8.75,0.4708251953125,0.48681640625,0.7088623046875,-0.1971435546875,32.0625,47.0,50.0,-8.42,1.75,-4.69,Walking,4
5.91,5.84389844,29,3,3,3,0,-8.31,2.25,-3.75,0.11,0.48,0.91,-4.125,-13.5625,8.4375,0.47198486328125,0.4869384765625,0.7080078125,-0.19708251953125,32.0625,47.0,50.0,-8.43,1.77,-4.67,Walking,4
5.92,5.84389844,29,3,3,3,0,-8.27,1.95,-3.93,0.18,0.17,0.7,-2.25,-20.75,7.625,0.4735107421875,0.4869384765625,0.70684814453125,-0.197509765625,32.375,45.5625,49.0625,-8.45,1.78,-4.64,Walking,4
5.93,5.873676923,29,3,3,3,0,-8.16,1.7,-4.05,0.3,-0.08,0.55,0.625,-23.375,6.125,0.47503662109375,0.4869384765625,0.70562744140625,-0.19830322265625,32.375,45.5625,49.0625,-8.46,1.79,-4.6,Walking,4
5.93,5.873676923,29,3,3,3,0,-8.16,1.44,-4.08,0.32,-0.35,0.49,3.625,-23.0625,4.75,0.4764404296875,0.48699951171875,0.70440673828125,-0.1993408203125,32.375,45.5625,49.0625,-8.48,1.79,-4.57,Walking,4
5.95,5.888900719,29,3,3,3,0,-8.07,1.02,-3.86,0.42,-0.77,0.68,5.875,-21.625,3.3125,0.4775390625,0.487060546875,0.7032470703125,-0.20050048828125,32.375,45.5625,49.0625,-8.5,1.79,-4.54,Walking,4
5.96,5.888900719,29,3,3,3,0,-7.99,0.91,-3.67,0.51,-0.88,0.84,6.875,-19.9375,2.1875,0.47857666015625,0.48712158203125,0.7021484375,-0.20166015625,32.375,45.5625,49.0625,-8.51,1.79,-4.51,Walking,4
5.97,5.904013837,29,3,3,3,0,-7.78,0.84,-3.55,0.74,-0.94,0.93,6.6875,-18.1875,1.3125,0.47943115234375,0.4871826171875,0.70123291015625,-0.20281982421875,32.375,45.1875,49.0625,-8.53,1.79,-4.49,Walking,4
5.98,5.904013837,29,3,3,3,0,-7.51,0.84,-3.5,1.02,-0.94,0.96,5.75,-16.1875,1.0625,0.480224609375,0.4871826171875,0.70037841796875,-0.20379638671875,32.375,45.1875,49.0625,-8.54,1.78,-4.46,Walking,4
5.99,5.932858971,29,3,3,3,0,-6.83,1.06,-3.41,1.71,-0.72,1.03,4.6875,-13.3125,1.1875,0.4808349609375,0.4871826171875,0.69970703125,-0.20458984375,32.375,45.1875,49.0625,-8.55,1.78,-4.45,Walking,4
6.0,5.932858971,29,3,3,3,0,-6.53,1.17,-3.3,2.02,-0.61,1.13,3.5,-9.6875,1.875,0.4813232421875,0.4873046875,0.6990966796875,-0.20513916015625,32.375,45.1875,49.0625,-8.56,1.78,-4.43,Walking,4
6.01,5.947862429,29,3,3,3,0,-6.22,1.29,-3.19,2.34,-0.49,1.22,1.8125,-6.1875,2.3125,0.481689453125,0.48736572265625,0.69873046875,-0.2054443359375,32.375,45.1875,49.0625,-8.56,1.78,-4.42,Walking,4
6.01,5.947862429,29,3,3,3,0,-5.62,1.49,-2.89,2.94,-0.29,1.52,-0.3125,-2.8125,3.0625,0.48193359375,0.487548828125,0.698486328125,-0.2054443359375,32.875,44.5,49.5,-8.56,1.79,-4.42,Walking,4
6.03,5.963531741,29,3,3,3,0,-5.36,1.58,-2.85,3.19,-0.21,1.56,-2.8125,-1.75,4.1875,0.48223876953125,0.48760986328125,0.6982421875,-0.2052001953125,32.875,44.5,49.5,-8.56,1.8,-4.41,Walking,4
6.04,5.963531741,29,3,3,3,0,-5.18,1.68,-2.8,3.38,-0.13,1.61,-5.5625,-2.625,5.3125,0.4827880859375,0.4876708984375,0.697998046875,-0.2047119140625,32.875,44.5,49.5,-8.56,1.81,-4.41,Walking,4
6.05,5.999104576,29,3,3,3,0,-5.14,1.73,-2.7,3.42,-0.09,1.7,-8.4375,-4.5625,6.375,0.4835205078125,0.48760986328125,0.69769287109375,-0.20416259765625,32.875,44.5,49.5,-8.56,1.83,-4.4,Walking,4
6.06,5.999104576,29,3,3,3,0,-5.29,1.7,-2.6,3.27,-0.14,1.78,-9.875,-8.125,7.125,0.484619140625,0.48748779296875,0.69720458984375,-0.20361328125,32.875,44.5,49.5,-8.57,1.84,-4.38,Walking,4
6.07,6.00883773,29,3,3,3,0,-5.45,1.72,-2.68,3.13,-0.13,1.68,-9.625,-12.4375,7.4375,0.48590087890625,0.4873046875,0.696533203125,-0.2032470703125,34.375,43.375,47.0625,-8.58,1.86,-4.36,Walking,4
6.08,6.00883773,29,3,3,3,0,-5.7,1.76,-2.79,2.88,-0.12,1.53,-9.0,-17.0625,6.875,0.48748779296875,0.48699951171875,0.6956787109375,-0.203125,34.375,43.375,47.0625,-8.59,1.88,-4.33,Walking,4
6.09,6.023331586,29,3,3,3,0,-5.98,1.86,-2.86,2.61,-0.03,1.43,-8.875,-21.6875,5.875,0.48931884765625,0.48663330078125,0.69464111328125,-0.2032470703125,34.375,43.375,47.0625,-8.6,1.9,-4.3,Walking,4
6.09,6.023331586,29,3,3,3,0,-6.56,2.14,-3.33,2.06,0.22,0.91,-9.25,-26.9375,5.3125,0.491455078125,0.48602294921875,0.69342041015625,-0.20361328125,34.375,43.375,47.0625,-8.62,1.91,-4.25,Walking,4
6.11,6.054694176,29,3,3,3,0,-6.82,2.19,-3.71,1.81,0.26,0.49,-10.875,-32.3125,5.1875,0.49395751953125,0.48529052734375,0.69195556640625,-0.2041015625,34.375,43.375,47.0625,-8.64,1.93,-4.2,Walking,4
6.12,6.054694176,29,3,3,3,0,-7.18,2.26,-4.1,1.48,0.31,0.03,-11.6875,-37.0,5.1875,0.49676513671875,0.48443603515625,0.69036865234375,-0.2047119140625,34.6875,42.25,46.6875,-8.67,1.94,-4.14,Walking,4
6.13,6.067760541,29,3,3,3,0,-7.56,2.37,-4.3,1.13,0.41,-0.21,-10.5,-37.75,5.4375,0.4996337890625,0.483642578125,0.68865966796875,-0.2054443359375,34.6875,42.25,46.6875,-8.69,1.96,-4.08,Walking,4
6.14,6.067760541,29,3,3,3,0,-8.34,2.58,-4.42,0.37,0.6,-0.39,-6.875,-34.25,5.375,0.5020751953125,0.4830322265625,0.68707275390625,-0.20623779296875,34.6875,42.25,46.6875,-8.71,1.97,-4.02,Walking,4
6.15,6.098534508,29,3,3,3,0,-8.78,2.75,-4.45,-0.04,0.76,-0.47,-3.0,-29.0,5.0,0.5040283203125,0.48272705078125,0.68560791015625,-0.20709228515625,34.6875,42.25,46.6875,-8.73,1.98,-3.98,Walking,4
6.16,6.098534508,29,3,3,3,0,-9.2,2.98,-4.52,-0.45,0.98,-0.58,-0.1875,-25.5,4.5,0.50567626953125,0.48248291015625,0.68426513671875,-0.20794677734375,34.6875,42.25,46.6875,-8.75,1.99,-3.94,Walking,4
6.17,6.113521975,29,3,3,3,0,-9.54,3.17,-4.64,-0.77,1.17,-0.73,0.8125,-23.125,3.8125,0.507080078125,0.48236083984375,0.68310546875,-0.20880126953125,35.75,40.75,45.5,-8.76,2.0,-3.9,Walking,4
6.18,6.113521975,29,3,3,3,0,-9.97,3.35,-5.27,-1.19,1.34,-1.4,-0.0625,-21.9375,2.5,0.5084228515625,0.48211669921875,0.6820068359375,-0.2095947265625,35.75,40.75,45.5,-8.78,2.0,-3.87,Walking,4
6.19,6.127751223,29,3,3,3,0,-10.16,3.37,-5.54,-1.36,1.36,-1.69,-1.875,-19.875,0.75,0.50970458984375,0.481689453125,0.68109130859375,-0.21026611328125,35.75,40.75,45.5,-8.79,2.0,-3.84,Walking,4
6.2,6.127751223,29,3,3,3,0,-10.33,3.42,-5.81,-1.52,1.41,-1.99,-2.25,-14.75,-1.0625,0.51068115234375,0.48126220703125,0.6805419921875,-0.2108154296875,35.75,40.75,45.5,-8.8,2.0,-3.81,Walking,4
6.21,6.142592776,29,3,3,3,0,-10.56,3.52,-6.11,-1.75,1.52,-2.3,-0.875,-7.9375,-2.8125,0.51116943359375,0.48089599609375,0.6802978515625,-0.21124267578125,35.75,40.75,45.5,-8.81,2.0,-3.8,Walking,4
6.22,6.142592776,29,3,3,3,0,-10.58,3.64,-6.06,-1.76,1.64,-2.25,1.5,-1.0,-4.3125,0.5111083984375,0.480712890625,0.680419921875,-0.2115478515625,37.25,40.75,43.875,-8.81,1.99,-3.8,Walking,4
6.23,6.172962893,29,3,3,3,0,-10.58,3.69,-5.96,-1.77,1.7,-2.14,4.25,5.5,-5.625,0.510498046875,0.48065185546875,0.6807861328125,-0.2117919921875,37.25,40.75,43.875,-8.81,1.98,-3.81,Walking,4
6.24,6.172962893,29,3,3,3,0,-10.54,3.72,-5.9,-1.74,1.75,-2.07,5.375,10.625,-6.625,0.509521484375,0.480712890625,0.68145751953125,-0.21197509765625,37.25,40.75,43.875,-8.8,1.97,-3.83,Walking,4
6.25,6.18945032,29,3,3,3,0,-10.41,3.59,-5.8,-1.6,1.63,-1.94,3.9375,13.9375,-7.75,0.50836181640625,0.480712890625,0.68231201171875,-0.21197509765625,37.25,40.75,43.875,-8.8,1.95,-3.85,Walking,4
6.26,6.18945032,29,3,3,3,0,-10.4,3.39,-5.7,-1.61,1.44,-1.82,1.9375,18.0,-9.125,0.507080078125,0.4805908203125,0.6834716796875,-0.21173095703125,37.25,40.75,43.875,-8.79,1.94,-3.88,Walking,4
6.27,6.202326419,29,3,3,3,0,-10.63,3.14,-5.62,-1.85,1.21,-1.7,2.375,22.8125,-10.6875,0.50537109375,0.48046875,0.68487548828125,-0.21136474609375,36.875,40.0625,44.6875,-8.78,1.92,-3.92,Walking,4
6.28,6.202326419,29,3,3,3,0,-10.99,2.86,-5.45,-2.22,0.96,-1.49,4.9375,26.25,-12.75,0.50341796875,0.48040771484375,0.68646240234375,-0.21112060546875,36.875,40.0625,44.6875,-8.76,1.9,-3.96,Walking,4
6.29,6.233382612,29,3,3,3,0,-11.09,2.38,-5.27,-2.34,0.5,-1.27,8.25,25.9375,-15.6875,0.501220703125,0.4803466796875,0.6881103515625,-0.211181640625,36.875,40.0625,44.6875,-8.75,1.87,-4.0,Walking,4
6.3,6.233382612,29,3,3,3,0,-10.94,2.09,-5.22,-2.2,0.25,-1.18,8.9375,23.0625,-19.5,0.49908447265625,0.47998046875,0.68975830078125,-0.21160888671875,36.875,40.0625,44.6875,-8.74,1.83,-4.04,Walking,4
6.31,6.24750749,29,3,3,3,0,-10.88,1.86,-5.2,-2.15,0.06,-1.12,8.5,22.1875,-22.25,0.49700927734375,0.47943115234375,0.69146728515625,-0.212158203125,36.875,40.0625,44.6875,-8.73,1.79,-4.07,Walking,4
6.32,6.24750749,29,3,3,3,0,-11.07,1.67,-4.98,-2.35,-0.07,-0.86,10.875,25.125,-23.4375,0.49456787109375,0.47894287109375,0.693359375,-0.2127685546875,38.0625,39.75,44.75,-8.72,1.75,-4.12,Walking,4
6.33,6.262346072,29,3,3,3,0,-11.49,1.23,-4.32,-2.78,-0.47,-0.15,14.25,29.375,-23.4375,0.49176025390625,0.47869873046875,0.6953125,-0.21337890625,38.0625,39.75,44.75,-8.7,1.7,-4.17,Walking,4
6.34,6.262346072,29,3,3,3,0,-11.36,1.05,-4.05,-2.66,-0.6,0.17,14.75,31.1875,-23.5,0.48883056640625,0.478515625,0.6973876953125,-0.2139892578125,38.0625,39.75,44.75,-8.69,1.66,-4.22,Walking,4
6.35,6.293957278,29,3,3,3,0,-11.02,0.87,-3.76,-2.34,-0.74,0.5,12.5,31.5625,-22.5625,0.4859619140625,0.478271484375,0.69940185546875,-0.21435546875,38.0625,39.75,44.75,-8.67,1.61,-4.27,Walking,4
6.36,6.293957278,29,3,3,3,0,-10.09,0.65,-3.35,-1.43,-0.92,0.97,9.875,34.5,-20.125,0.4830322265625,0.47808837890625,0.7015380859375,-0.21435546875,38.0625,39.75,44.75,-8.65,1.58,-4.32,Walking,4
6.37,6.309187625,29,3,3,3,0,-9.74,0.48,-3.2,-1.11,-1.06,1.18,6.5625,39.5,-17.3125,0.48004150390625,0.47802734375,0.70379638671875,-0.2138671875,36.5625,40.0625,46.75,-8.63,1.54,-4.38,Walking,4
6.38,6.309187625,29,3,3,3,0,-9.43,0.33,-2.99,-0.83,-1.18,1.45,1.75,42.4375,-15.0625,0.47711181640625,0.47796630859375,0.70611572265625,-0.21282958984375,36.5625,40.0625,46.75,-8.6,1.52,-4.45,Walking,4
6.39,6.323042198,29,3,3,3,0,-9.18,0.16,-2.79,-0.6,-1.34,1.71,-4.75,41.6875,-13.5,0.4744873046875,0.47772216796875,0.70849609375,-0.21136474609375,36.5625,40.0625,46.75,-8.57,1.5,-4.51,Walking,4
6.4,6.323042198,29,3,3,3,0,-8.92,-0.53,-2.46,-0.37,-2.02,2.1,-11.75,38.5625,-13.25,0.47235107421875,0.47711181640625,0.71087646484375,-0.20953369140625,36.5625,40.0625,46.75,-8.54,1.49,-4.56,Walking,4
6.41,6.353097903,29,3,3,3,0,-8.83,-0.87,-2.39,-0.31,-2.36,2.22,-17.6875,35.3125,-12.875,0.47064208984375,0.47625732421875,0.71319580078125,-0.20751953125,36.5625,40.0625,46.75,-8.52,1.49,-4.61,Walking,4
6.42,6.353097903,29,3,3,3,0,-8.75,-0.88,-2.47,-0.25,-2.37,2.18,-21.0,30.0625,-13.125,0.46942138671875,0.47509765625,0.71533203125,-0.20550537109375,36.5625,40.0625,48.0,-8.5,1.49,-4.65,Walking,4
6.43,6.367541425,29,3,3,3,0,-8.79,-0.69,-2.64,-0.3,-2.18,2.03,-22.3125,22.875,-13.375,0.46868896484375,0.4737548828125,0.71722412109375,-0.20367431640625,36.5625,40.0625,48.0,-8.48,1.48,-4.68,Walking,4
6.44,6.367541425,29,3,3,3,0,-8.87,-0.09,-3.34,-0.39,-1.58,1.35,-23.0,14.875,-13.0625,0.468505859375,0.47222900390625,0.71875,-0.20220947265625,36.5625,40.0625,48.0,-8.47,1.48,-4.7,Walking,4
6.45,6.384663658,29,3,3,3,0,-8.93,0.32,-3.59,-0.46,-1.16,1.11,-23.875,7.1875,-11.9375,0.46881103515625,0.47064208984375,0.719970703125,-0.20086669921875,36.5625,40.0625,48.0,-8.47,1.49,-4.7,Walking,4
6.46,6.384663658,29,3,3,3,0,-8.95,0.78,-3.89,-0.47,-0.71,0.79,-25.8125,0.0,-10.25,0.4697265625,0.46893310546875,0.7208251953125,-0.19970703125,36.5625,40.0625,48.0,-8.47,1.49,-4.69,Walking,4
6.47,6.413690799,29,3,3,3,0,-8.95,1.18,-4.19,-0.46,-0.31,0.48,-27.9375,-7.4375,-8.0625,0.47119140625,0.46710205078125,0.72137451171875,-0.1986083984375,35.0625,39.0,48.75,-8.48,1.5,-4.67,Walking,4
6.48,6.413690799,29,3,3,3,0,-8.99,1.71,-4.55,-0.5,0.19,0.09,-29.375,-12.75,-5.4375,0.47308349609375,0.46533203125,0.7215576171875,-0.197509765625,35.0625,39.0,48.75,-8.49,1.52,-4.65,Walking,4
6.49,6.427668622,29,3,3,3,0,-9.06,1.9,-4.62,-0.55,0.35,0.0,-29.1875,-12.625,-3.25,0.47503662109375,0.46368408203125,0.7216796875,-0.19635009765625,35.0625,39.0,48.75,-8.5,1.54,-4.62,Walking,4
6.5,6.427668622,29,3,3,3,0,-8.98,2.0,-4.57,-0.47,0.44,0.03,-27.5625,-8.0625,-1.375,0.47662353515625,0.46234130859375,0.72186279296875,-0.19500732421875,35.0625,39.0,48.75,-8.51,1.56,-4.6,Walking,4
6.51,6.443217329,29,3,3,3,0,-8.77,1.96,-4.43,-0.25,0.38,0.16,-25.4375,-1.6875,-0.4375,0.477783203125,0.46124267578125,0.72216796875,-0.1934814453125,35.0625,39.0,48.75,-8.51,1.58,-4.59,Walking,4
6.52,6.443217329,29,3,3,3,0,-8.13,1.81,-4.01,0.37,0.21,0.57,-22.5625,3.0625,0.3125,0.478515625,0.4603271484375,0.72271728515625,-0.19189453125,34.6875,39.0,50.25,-8.51,1.59,-4.59,Walking,4
6.53,6.472855797,29,3,3,3,0,-7.66,1.63,-3.86,0.84,0.02,0.72,-18.5625,6.8125,1.125,0.4788818359375,0.459716796875,0.7232666015625,-0.1904296875,34.6875,39.0,50.25,-8.5,1.61,-4.59,Walking,4
6.54,6.472855797,29,3,3,3,0,-7.13,1.49,-3.73,1.36,-0.12,0.87,-12.5,8.875,1.75,0.47882080078125,0.45947265625,0.7237548828125,-0.189208984375,34.6875,39.0,50.25,-8.5,1.62,-4.6,Walking,4
6.55,6.488904015,29,3,3,3,0,-6.09,1.32,-3.57,2.39,-0.31,1.04,-6.8125,9.8125,1.625,0.478515625,0.45941162109375,0.72418212890625,-0.1883544921875,34.6875,39.0,50.25,-8.49,1.63,-4.61,Walking,4
6.56,6.488904015,29,3,3,3,0,-5.64,1.24,-3.55,2.84,-0.4,1.07,-2.4375,8.625,1.8125,0.47808837890625,0.4595947265625,0.72454833984375,-0.18780517578125,34.6875,39.0,50.25,-8.48,1.64,-4.63,Walking,4
6.57,6.502336835,29,3,3,3,0,-5.34,1.21,-3.47,3.13,-0.42,1.16,0.0,6.0625,2.25,0.477783203125,0.4598388671875,0.72467041015625,-0.18743896484375,35.375,37.1875,49.5,-8.48,1.64,-4.64,Walking,4
6.58,6.502336835,29,3,3,3,0,-5.08,1.18,-3.45,3.39,-0.46,1.19,2.25,3.0,2.4375,0.4775390625,0.4600830078125,0.72467041015625,-0.1873779296875,35.375,37.1875,49.5,-8.47,1.64,-4.64,Walking,4
6.59,6.533979943,29,3,3,3,0,-5.11,1.18,-3.06,3.36,-0.46,1.58,3.375,0.5625,3.0625,0.4774169921875,0.46044921875,0.7244873046875,-0.18743896484375,35.375,37.1875,49.5,-8.47,1.64,-4.64,Walking,4
6.6,6.533979943,29,3,3,3,0,-5.23,1.11,-2.72,3.24,-0.53,1.92,2.875,-3.8125,3.6875,0.47760009765625,0.46075439453125,0.72412109375,-0.1876220703125,35.375,37.1875,49.5,-8.47,1.65,-4.64,Walking,4
6.61,6.547932986,29,3,3,3,0,-5.39,1.08,-2.49,3.08,-0.57,2.12,1.9375,-11.125,4.1875,0.47833251953125,0.46087646484375,0.72344970703125,-0.18804931640625,35.375,37.1875,49.5,-8.48,1.65,-4.62,Walking,4
6.62,6.547932986,29,3,3,3,0,-5.57,1.16,-2.39,2.92,-0.49,2.19,0.4375,-21.3125,4.1875,0.479736328125,0.4608154296875,0.722412109375,-0.188720703125,35.25,36.375,50.25,-8.5,1.66,-4.59,Walking,4
6.63,6.56252165,29,3,3,3,0,-5.84,1.16,-2.7,2.68,-0.5,1.83,-1.75,-31.9375,3.625,0.48193359375,0.46044921875,0.720947265625,-0.18975830078125,35.25,36.375,50.25,-8.52,1.66,-4.54,Walking,4
6.64,6.56252165,29,3,3,3,0,-6.08,1.08,-3.01,2.47,-0.59,1.46,-4.5,-40.875,2.6875,0.4847412109375,0.459716796875,0.71917724609375,-0.19097900390625,35.25,36.375,50.25,-8.55,1.67,-4.48,Walking,4
6.65,6.593643395,29,3,3,3,0,-6.34,1.07,-3.41,2.25,-0.61,0.99,-6.1875,-47.375,1.625,0.48797607421875,0.458740234375,0.71722412109375,-0.19244384765625,35.25,36.375,50.25,-8.59,1.68,-4.41,Walking,4
6.66,6.593643395,29,3,3,3,0,-6.69,1.01,-3.84,1.93,-0.67,0.48,-6.5,-50.6875,0.5,0.49139404296875,0.4576416015625,0.71514892578125,-0.194091796875,35.25,36.375,50.25,-8.63,1.68,-4.33,Walking,4
6.67,6.607891767,29,3,3,3,0,-7.57,0.95,-4.45,1.09,-0.73,-0.2,-5.0,-52.1875,-0.4375,0.494873046875,0.45654296875,0.71295166015625,-0.19586181640625,34.875,36.0,50.25,-8.67,1.69,-4.25,Walking,4
6.68,6.607891767,29,3,3,3,0,-8.01,0.94,-4.54,0.69,-0.74,-0.37,-1.8125,-51.1875,-1.1875,0.49810791015625,0.45550537109375,0.7108154296875,-0.19781494140625,34.875,36.0,50.25,-8.71,1.69,-4.17,Walking,4
6.69,6.622756066,29,3,3,3,0,-8.35,0.96,-4.75,0.39,-0.72,-0.65,1.5625,-48.4375,-1.5,0.50103759765625,0.45458984375,0.708740234375,-0.199951171875,34.875,36.0,50.25,-8.74,1.68,-4.09,Walking,4
6.7,6.622756066,29,3,3,3,0,-8.96,1.08,-4.9,-0.18,-0.59,-0.87,2.8125,-44.25,-1.9375,0.50360107421875,0.453857421875,0.70684814453125,-0.20196533203125,34.875,36.0,50.25,-8.77,1.68,-4.03,Walking,4
6.71,6.658301313,29,3,3,3,0,-9.31,1.18,-4.89,-0.51,-0.48,-0.92,3.0,-38.375,-2.6875,0.50579833984375,0.453125,0.7052001953125,-0.20379638671875,34.875,36.0,50.25,-8.8,1.67,-3.97,Walking,4
6.72,6.658301313,29,3,3,3,0,-9.55,1.17,-4.9,-0.72,-0.49,-0.98,3.0625,-32.0625,-3.25,0.50762939453125,0.45245361328125,0.703857421875,-0.20538330078125,37.0,36.375,49.0625,-8.83,1.66,-3.92,Walking,4
6.73,6.667816613,29,3,3,3,0,-9.73,1.06,-4.96,-0.88,-0.59,-1.08,3.1875,-26.1875,-3.1875,0.509033203125,0.45196533203125,0.7027587890625,-0.206787109375,37.0,36.375,49.0625,-8.84,1.66,-3.88,Walking,4
6.74,6.667816613,29,3,3,3,0,-10.11,0.86,-5.15,-1.25,-0.79,-1.3,3.875,-21.75,-2.875,0.51019287109375,0.4515380859375,0.70184326171875,-0.2080078125,37.0,36.375,49.0625,-8.86,1.65,-3.85,Walking,4
6.75,6.683203128,29,3,3,3,0,-10.31,0.73,-5.23,-1.44,-0.91,-1.41,4.125,-17.5,-2.3125,0.51104736328125,0.45123291015625,0.7010498046875,-0.2091064453125,37.0,36.375,49.0625,-8.87,1.64,-3.82,Walking,4
6.76,6.683203128,29,3,3,3,0,-10.44,0.65,-5.31,-1.56,-0.99,-1.5,4.4375,-13.625,-1.0625,0.51165771484375,0.45111083984375,0.700439453125,-0.2099609375,37.0,36.375,49.0625,-8.88,1.64,-3.8,Walking,4
6.77,6.71414075,29,3,3,3,0,-10.57,0.6,-5.36,-1.68,-1.03,-1.57,5.625,-10.0625,0.1875,0.5120849609375,0.451171875,0.69989013671875,-0.210693359375,37.75,35.25,48.6875,-8.89,1.63,-3.79,Walking,4
6.78,6.71414075,29,3,3,3,0,-11.12,0.53,-5.59,-2.22,-1.1,-1.8,6.25,-6.5625,2.0625,0.51226806640625,0.45147705078125,0.69940185546875,-0.21124267578125,37.75,35.25,48.6875,-8.89,1.63,-3.78,Walking,4
6.79,6.728180057,29,3,3,3,0,-11.28,0.42,-5.58,-2.38,-1.21,-1.8,6.1875,-4.25,4.5625,0.5123291015625,0.45196533203125,0.69891357421875,-0.21160888671875,37.75,35.25,48.6875,-8.89,1.64,-3.77,Walking,4
6.8,6.728180057,29,3,3,3,0,-11.43,0.29,-5.67,-2.53,-1.35,-1.89,5.9375,-2.5625,6.875,0.51239013671875,0.45257568359375,0.69842529296875,-0.2117919921875,37.75,35.25,48.6875,-8.89,1.64,-3.77,Walking,4
6.81,6.742822553,29,3,3,3,0,-11.52,0.21,-5.88,-2.62,-1.44,-2.1,5.375,-1.125,9.375,0.51239013671875,0.453369140625,0.6978759765625,-0.21173095703125,37.75,35.25,48.6875,-8.89,1.65,-3.77,Walking,4
6.82,6.742822553,29,3,3,3,0,-11.6,0.45,-5.99,-2.71,-1.21,-2.21,5.25,4.5,11.6875,0.51214599609375,0.45440673828125,0.697509765625,-0.21136474609375,38.5,35.25,48.0,-8.89,1.67,-3.78,Walking,4
6.83,6.77782764,29,3,3,3,0,-11.65,0.88,-5.83,-2.77,-0.8,-2.02,6.9375,14.3125,14.375,0.51123046875,0.455810546875,0.697509765625,-0.21063232421875,38.5,35.25,48.0,-8.87,1.68,-3.81,Walking,4
6.84,6.77782764,29,3,3,3,0,-11.67,1.38,-5.55,-2.81,-0.32,-1.7,9.25,23.875,17.0,0.50970458984375,0.45770263671875,0.69769287109375,-0.20947265625,38.5,35.25,48.0,-8.85,1.7,-3.84,Walking,4
6.85,6.787093224,29,3,3,3,0,-11.64,1.85,-5.22,-2.81,0.12,-1.32,9.1875,31.875,19.5,0.50775146484375,0.45989990234375,0.69818115234375,-0.2078857421875,38.5,35.25,48.0,-8.82,1.73,-3.9,Walking,4
6.86,6.787093224,29,3,3,3,0,-11.34,2.52,-4.84,-2.54,0.76,-0.87,5.875,39.1875,21.625,0.50555419921875,0.462158203125,0.69891357421875,-0.20574951171875,38.5,35.25,48.0,-8.79,1.76,-3.96,Walking,4
6.87,6.802362348,29,3,3,3,0,-11.24,2.79,-4.71,-2.49,0.99,-0.68,1.625,46.625,22.3125,0.50299072265625,0.46441650390625,0.7000732421875,-0.2030029296875,38.5,34.5,48.75,-8.75,1.79,-4.03,Walking,4
6.88,6.802362348,29,3,3,3,0,-11.05,2.9,-4.53,-2.34,1.07,-0.41,-1.25,54.75,21.3125,0.50006103515625,0.46661376953125,0.70159912109375,-0.19976806640625,38.5,34.5,48.75,-8.7,1.82,-4.11,Walking,4
6.89,6.834428551,29,3,3,3,0,-10.76,2.94,-4.2,-2.1,1.08,0.0,-2.125,60.8125,18.625,0.49676513671875,0.46868896484375,0.70355224609375,-0.19635009765625,38.5,34.5,48.75,-8.65,1.85,-4.21,Walking,4
6.9,6.834428551,29,3,3,3,0,-10.38,2.84,-3.94,-1.77,0.96,0.35,-1.875,62.4375,14.9375,0.49322509765625,0.4705810546875,0.7056884765625,-0.19305419921875,38.5,34.5,48.75,-8.6,1.88,-4.3,Walking,4
6.91,6.848088951,29,3,3,3,0,-9.99,2.78,-3.67,-1.43,0.88,0.72,-1.5,60.875,11.1875,0.48974609375,0.47222900390625,0.70782470703125,-0.19000244140625,38.5,34.5,48.75,-8.55,1.89,-4.39,Walking,4
6.92,6.848088951,29,3,3,3,0,-9.81,2.87,-3.31,-1.3,0.96,1.16,-0.625,56.625,7.8125,0.48638916015625,0.4736328125,0.7099609375,-0.18731689453125,38.5,33.875,50.375,-8.51,1.91,-4.47,Walking,4
6.93,6.862741295,29,3,3,3,0,-9.56,3.26,-2.65,-1.09,1.34,1.89,0.75,48.75,4.9375,0.4833984375,0.4747314453125,0.7117919921875,-0.18511962890625,38.5,33.875,50.375,-8.47,1.91,-4.55,Walking,4
6.94,6.862741295,29,3,3,3,0,-9.55,3.49,-2.53,-1.11,1.57,2.06,0.0,37.375,2.875,0.48114013671875,0.47552490234375,0.7132568359375,-0.1834716796875,38.5,33.875,50.375,-8.44,1.92,-4.6,Walking,4
6.95,6.892531782,29,3,3,3,0,-9.54,3.66,-2.35,-1.12,1.73,2.28,-3.0,24.1875,1.9375,0.479736328125,0.47589111328125,0.7142333984375,-0.18218994140625,38.5,33.875,50.375,-8.42,1.92,-4.64,Walking,4
6.96,6.892531782,29,3,3,3,0,-9.48,3.79,-2.19,-1.07,1.86,2.46,-5.0,13.8125,2.0625,0.4791259765625,0.47601318359375,0.71484375,-0.18121337890625,38.5,33.875,50.375,-8.4,1.93,-4.65,Walking,4
6.97,6.90896448,29,3,3,3,0,-9.33,3.96,-2.2,-0.92,2.02,2.46,-4.5625,6.5625,2.625,0.47900390625,0.47607421875,0.71502685546875,-0.18060302734375,37.375,33.5,51.0625,-8.4,1.94,-4.66,Walking,4
6.98,6.90896448,29,3,3,3,0,-9.29,3.98,-2.2,-0.89,2.04,2.46,-2.125,-0.625,3.375,0.47918701171875,0.4761962890625,0.71490478515625,-0.18035888671875,37.375,33.5,51.0625,-8.4,1.94,-4.66,Walking,4
6.99,6.923033898,29,3,3,3,0,-9.23,3.99,-2.24,-0.82,2.04,2.4,1.0,-7.5625,3.9375,0.47967529296875,0.47637939453125,0.71441650390625,-0.1805419921875,37.375,33.5,51.0625,-8.4,1.95,-4.65,Walking,4
7.0,6.923033898,29,3,3,3,0,-9.18,3.88,-2.45,-0.76,1.92,2.18,3.6875,-13.875,4.25,0.48046875,0.4765625,0.71356201171875,-0.18121337890625,37.375,33.5,51.0625,-8.41,1.95,-4.63,Walking,4
7.01,6.952519534,29,3,3,3,0,-9.16,3.33,-2.93,-0.72,1.37,1.67,5.5,-20.0,4.375,0.4815673828125,0.47674560546875,0.71246337890625,-0.18218994140625,37.375,33.5,51.0625,-8.43,1.95,-4.6,Walking,4
7.02,6.952519534,29,3,3,3,0,-9.14,2.98,-3.34,-0.69,1.02,1.22,7.0625,-25.0,3.9375,0.48291015625,0.47686767578125,0.71112060546875,-0.18353271484375,37.75,32.6875,51.5625,-8.45,1.95,-4.57,Walking,4
7.03,6.967150678,29,3,3,3,0,-9.07,2.63,-3.74,-0.6,0.68,0.79,8.625,-28.8125,3.3125,0.48443603515625,0.47698974609375,0.7095947265625,-0.18511962890625,37.75,32.6875,51.5625,-8.47,1.95,-4.53,Walking,4
7.04,6.967150678,29,3,3,3,0,-8.97,2.34,-3.97,-0.47,0.39,0.51,11.4375,-29.5625,2.6875,0.48583984375,0.4771728515625,0.70806884765625,-0.18695068359375,37.75,32.6875,51.5625,-8.49,1.95,-4.49,Walking,4
7.05,6.982270267,29,3,3,3,0,-8.67,1.84,-4.09,-0.16,-0.09,0.36,15.375,-25.1875,1.6875,0.48681640625,0.47747802734375,0.7066650390625,-0.18890380859375,37.75,32.6875,51.5625,-8.51,1.94,-4.45,Walking,4
7.06,6.982270267,29,3,3,3,0,-8.48,1.61,-4.05,0.04,-0.31,0.38,18.5,-18.25,0.875,0.4871826171875,0.47802734375,0.70550537109375,-0.19073486328125,37.75,32.6875,51.5625,-8.52,1.92,-4.43,Walking,4
7.07,7.013435509,29,3,3,3,0,-8.3,1.39,-3.89,0.23,-0.51,0.53,19.6875,-12.4375,0.3125,0.48712158203125,0.4786376953125,0.70465087890625,-0.1925048828125,37.75,32.375,51.875,-8.53,1.91,-4.42,Walking,4
7.08,7.013435509,29,3,3,3,0,-7.82,1.14,-3.57,0.71,-0.75,0.84,19.5,-8.5,-0.625,0.48687744140625,0.47930908203125,0.7039794921875,-0.194091796875,37.75,32.375,51.875,-8.54,1.89,-4.41,Walking,4
7.09,7.027660037,29,3,3,3,0,-7.56,1.06,-3.42,0.98,-0.81,0.98,17.9375,-6.3125,-1.1875,0.48651123046875,0.4798583984375,0.70343017578125,-0.19549560546875,37.75,32.375,51.875,-8.55,1.88,-4.41,Walking,4
7.1,7.027660037,29,3,3,3,0,-7.27,1.09,-3.33,1.27,-0.77,1.07,15.4375,-5.3125,-1.4375,0.4862060546875,0.4803466796875,0.7030029296875,-0.19677734375,37.75,32.375,51.875,-8.55,1.86,-4.41,Walking,4
7.11,7.042929772,29,3,3,3,0,-7.0,1.13,-3.3,1.55,-0.72,1.1,13.0625,-3.6875,-1.375,0.48583984375,0.480712890625,0.70263671875,-0.19781494140625,37.75,32.375,51.875,-8.56,1.85,-4.4,Walking,4
7.12,7.042929772,29,3,3,3,0,-6.43,1.27,-3.36,2.12,-0.56,1.04,11.375,-1.75,-0.8125,0.4854736328125,0.48114013671875,0.702392578125,-0.1986083984375,38.0625,32.375,51.1875,-8.56,1.84,-4.41,Walking,4
7.13,7.072626061,29,3,3,3,0,-6.14,1.39,-3.29,2.41,-0.44,1.12,11.0,0.125,-0.125,0.48504638671875,0.4815673828125,0.70220947265625,-0.19927978515625,38.0625,32.375,51.1875,-8.56,1.83,-4.41,Walking,4
7.14,7.072626061,29,3,3,3,0,-5.83,1.46,-3.18,2.72,-0.36,1.23,11.75,1.375,1.0,0.4844970703125,0.482177734375,0.7020263671875,-0.19989013671875,38.0625,32.375,51.1875,-8.56,1.82,-4.41,Walking,4
7.15,7.08815133,29,3,3,3,0,-5.51,1.47,-3.0,3.04,-0.35,1.41,12.5625,0.625,2.125,0.4840087890625,0.48284912109375,0.70172119140625,-0.2005615234375,38.0625,32.375,51.1875,-8.56,1.82,-4.42,Walking,4
7.16,7.08815133,29,3,3,3,0,-5.23,1.78,-2.67,3.32,-0.03,1.74,12.4375,-1.625,2.9375,0.483642578125,0.4835205078125,0.7012939453125,-0.2012939453125,38.0625,32.375,51.1875,-8.56,1.81,-4.42,Walking,4
7.17,7.103822431,29,3,3,3,0,-5.24,1.87,-2.55,3.31,0.06,1.86,12.3125,-4.25,3.25,0.48345947265625,0.484130859375,0.70074462890625,-0.20208740234375,37.375,33.5,51.1875,-8.56,1.81,-4.42,Walking,4
