timestamp,android_nano_timestamp,temperature,calib_mag,calib_accel,calib_gyro,calib_sys,acc_x,acc_y,acc_z,lacc_x,lacc_y,lacc_z,gyro_x,gyro_y,gyro_z,quat_w,quat_x,quat_y,quat_z,mag_x,mag_y,mag_z,gravity_x,gravity_y,gravity_z,label,person
1.29,1.249280681,27,3,3,3,2,-2.56,9.5,1.07,0.02,0.1,-0.01,0.0,-1.0625,0.1875,0.20367431640625,0.34600830078125,-0.5697021484375,-0.71710205078125,-11.0625,-38.375,25.0,-2.59,9.39,1.09,Nothing,5
1.3,1.249280681,27,3,3,3,2,-2.53,9.49,1.05,0.05,0.1,-0.04,-1.0625,-1.25,0.0,0.20367431640625,0.34588623046875,-0.56964111328125,-0.71722412109375,-9.875,-37.25,25.375,-2.59,9.39,1.09,Nothing,5
1.31,1.251050497,27,3,3,3,2,-2.48,9.44,1.03,0.1,0.04,-0.06,-1.625,-1.0625,-0.0625,0.20367431640625,0.3458251953125,-0.569580078125,-0.71728515625,-9.875,-37.25,25.375,-2.58,9.39,1.09,Nothing,5
1.32,1.251050497,27,3,3,3,2,-2.47,9.42,1.02,0.11,0.03,-0.07,-1.5625,-0.5625,-0.5,0.20367431640625,0.345703125,-0.5694580078125,-0.7174072265625,-9.875,-37.25,25.375,-2.58,9.39,1.1,Nothing,5
1.33,1.256452882,27,3,3,3,2,-2.45,9.42,1.07,0.13,0.03,-0.02,-1.0,0.0,-0.6875,0.20367431640625,0.34576416015625,-0.56939697265625,-0.71746826171875,-9.875,-37.25,25.375,-2.59,9.39,1.1,Nothing,5
1.33,1.256452882,27,3,3,3,2,-2.48,9.44,1.18,0.1,0.05,0.08,-0.375,0.5,-0.625,0.20361328125,0.34576416015625,-0.56939697265625,-0.71746826171875,-9.875,-37.25,25.375,-2.59,9.39,1.1,Nothing,5
1.34,1.270603883,27,3,3,3,2,-2.47,9.51,1.23,0.11,0.12,0.13,-0.1875,0.8125,-0.3125,0.20367431640625,0.3458251953125,-0.5693359375,-0.71746826171875,-9.5625,-37.25,25.0,-2.59,9.39,1.1,Nothing,5
1.35,1.270603883,27,3,3,3,2,-2.52,9.47,1.19,0.07,0.08,0.09,-0.6875,0.875,-0.375,0.2037353515625,0.34588623046875,-0.56927490234375,-0.71746826171875,-9.5625,-37.25,25.0,-2.59,9.39,1.1,Nothing,5
1.36,1.302752809,27,3,3,3,2,-2.61,9.47,1.16,-0.02,0.08,0.05,-1.375,1.125,-0.25,0.203857421875,0.34588623046875,-0.5692138671875,-0.717529296875,-9.5625,-37.25,25.0,-2.59,9.39,1.1,Nothing,5
1.38,1.302752809,27,3,3,3,2,-2.58,9.51,1.13,0.0,0.12,0.02,-2.0,0.75,0.0625,0.2039794921875,0.345947265625,-0.56903076171875,-0.71759033203125,-9.5625,-37.25,25.0,-2.59,9.39,1.1,Nothing,5
1.39,1.316120932,27,3,3,3,2,-2.62,9.51,1.07,-0.02,0.11,-0.03,-3.1875,0.0,0.0,0.20404052734375,0.34588623046875,-0.56884765625,-0.7177734375,-9.5625,-37.25,25.0,-2.59,9.39,1.11,Nothing,5
1.4,1.316120932,27,3,3,3,2,-2.58,9.49,1.06,0.0,0.1,-0.05,-3.9375,-0.5,-0.125,0.20416259765625,0.34576416015625,-0.568603515625,-0.71795654296875,-10.6875,-37.6875,25.0,-2.59,9.39,1.12,Nothing,5
1.41,1.346608155,27,3,3,3,2,-2.59,9.5,1.04,0.0,0.11,-0.08,-2.9375,-0.0625,-0.375,0.20428466796875,0.34576416015625,-0.56842041015625,-0.71807861328125,-10.6875,-37.6875,25.0,-2.59,9.39,1.12,Nothing,5
1.41,1.346608155,27,3,3,3,2,-2.52,9.45,1.08,0.07,0.06,-0.04,-1.9375,0.125,-0.625,0.20428466796875,0.345703125,-0.5682373046875,-0.71820068359375,-10.6875,-37.6875,25.0,-2.59,9.39,1.12,Nothing,5
1.42,1.361584311,27,3,3,3,2,-2.49,9.4,1.14,0.1,0.01,0.01,-1.625,0.1875,-0.625,0.20428466796875,0.345703125,-0.568115234375,-0.71832275390625,-10.6875,-37.6875,25.0,-2.59,9.38,1.13,Nothing,5
1.43,1.361584311,27,3,3,3,2,-2.5,9.39,1.15,0.09,0.0,0.02,-1.3125,0.625,-0.5625,0.204345703125,0.34576416015625,-0.56805419921875,-0.71832275390625,-10.6875,-37.6875,25.0,-2.59,9.38,1.13,Nothing,5
1.44,1.375945843,27,3,3,3,2,-2.53,9.39,1.17,0.06,0.0,0.04,-0.75,0.5625,-0.5625,0.204345703125,0.3458251953125,-0.56793212890625,-0.7183837890625,-9.875,-37.6875,24.5625,-2.59,9.38,1.13,Nothing,5
1.46,1.375945843,27,3,3,3,2,-2.54,9.37,1.19,0.05,-0.01,0.06,-0.3125,0.625,-0.4375,0.20440673828125,0.34588623046875,-0.56793212890625,-0.7183837890625,-9.875,-37.6875,24.5625,-2.59,9.38,1.13,Nothing,5
1.47,1.406551515,27,3,3,3,2,-2.53,9.37,1.16,0.05,-0.01,0.02,-0.4375,0.625,-0.125,0.20440673828125,0.34588623046875,-0.56793212890625,-0.71832275390625,-9.875,-37.6875,24.5625,-2.59,9.38,1.13,Nothing,5
1.48,1.406551515,27,3,3,3,2,-2.56,9.38,1.18,0.03,0.0,0.04,-0.5625,0.6875,-0.1875,0.2044677734375,0.345947265625,-0.56787109375,-0.71832275390625,-9.875,-37.6875,24.5625,-2.59,9.38,1.13,Nothing,5
1.49,1.43638908,27,3,3,3,2,-2.56,9.4,1.16,0.02,0.01,0.02,-0.8125,0.25,-0.125,0.20452880859375,0.345947265625,-0.56781005859375,-0.7183837890625,-9.875,-37.6875,24.5625,-2.59,9.38,1.13,Nothing,5
1.49,1.43638908,27,3,3,3,2,-2.58,9.46,1.15,0.0,0.08,0.01,-1.1875,-0.3125,0.0,0.20452880859375,0.34588623046875,-0.5677490234375,-0.71844482421875,-9.875,-38.375,24.5625,-2.59,9.38,1.13,Nothing,5
1.5,1.439383709,27,3,3,3,2,-2.59,9.46,1.1,0.0,0.07,-0.03,-1.4375,-0.625,0.0625,0.20458984375,0.3458251953125,-0.56768798828125,-0.71856689453125,-9.875,-38.375,24.5625,-2.59,9.38,1.14,Nothing,5
1.51,1.439383709,27,3,3,3,2,-2.6,9.47,1.11,0.0,0.09,-0.03,-1.4375,-0.625,0.0,0.20458984375,0.34576416015625,-0.56756591796875,-0.7186279296875,-9.875,-38.375,24.5625,-2.59,9.38,1.14,Nothing,5
1.52,1.46608248,27,3,3,3,2,-2.59,9.44,1.1,0.0,0.06,-0.03,-1.3125,-0.875,0.0,0.20458984375,0.345703125,-0.5675048828125,-0.71875,-9.875,-38.375,24.5625,-2.59,9.38,1.14,Nothing,5
1.54,1.46608248,27,3,3,3,2,-2.59,9.42,1.11,0.0,0.03,-0.03,-1.0,-0.8125,-0.125,0.20458984375,0.3455810546875,-0.56744384765625,-0.71881103515625,-9.875,-38.375,24.5625,-2.59,9.38,1.14,Nothing,5
1.55,1.481580527,27,3,3,3,2,-2.58,9.39,1.1,0.01,0.0,-0.04,-0.6875,-0.6875,-0.125,0.20452880859375,0.34552001953125,-0.56744384765625,-0.7188720703125,-11.0625,-38.0,23.75,-2.59,9.38,1.14,Nothing,5
1.56,1.481580527,27,3,3,3,2,-2.55,9.37,1.14,0.03,-0.01,0.0,-0.5,-0.6875,-0.25,0.20452880859375,0.34552001953125,-0.56744384765625,-0.7188720703125,-11.0625,-38.0,23.75,-2.59,9.38,1.14,Nothing,5
1.57,1.496400921,27,3,3,3,2,-2.55,9.39,1.19,0.03,0.0,0.04,-0.125,-0.1875,-0.375,0.20452880859375,0.34552001953125,-0.56744384765625,-0.7188720703125,-11.0625,-38.0,23.75,-2.59,9.38,1.14,Nothing,5
1.58,1.496400921,27,3,3,3,2,-2.58,9.44,1.2,0.01,0.05,0.05,-0.1875,-0.0625,-0.1875,0.20452880859375,0.345458984375,-0.56744384765625,-0.7188720703125,-11.0625,-38.0,23.75,-2.59,9.38,1.14,Nothing,5
1.58,1.526840048,27,3,3,3,2,-2.57,9.44,1.2,0.01,0.06,0.05,-0.75,-0.3125,-0.1875,0.20452880859375,0.345458984375,-0.5673828125,-0.71893310546875,-11.0625,-38.0,23.75,-2.59,9.38,1.15,Nothing,5
1.59,1.526840048,27,3,3,3,2,-2.57,9.45,1.18,0.01,0.07,0.03,-1.375,-0.5625,-0.0625,0.20452880859375,0.34539794921875,-0.56732177734375,-0.718994140625,-10.6875,-37.6875,24.5625,-2.59,9.38,1.15,Nothing,5
1.61,1.540983969,27,3,3,3,2,-2.56,9.42,1.12,0.02,0.04,-0.03,-1.5,-0.625,-0.125,0.20458984375,0.3453369140625,-0.5672607421875,-0.7191162109375,-10.6875,-37.6875,24.5625,-2.59,9.38,1.15,Nothing,5
1.62,1.540983969,27,3,3,3,2,-2.58,9.43,1.11,0.0,0.05,-0.04,-1.0625,-0.375,-0.0625,0.20458984375,0.3453369140625,-0.56719970703125,-0.71917724609375,-10.6875,-37.6875,24.5625,-2.59,9.38,1.15,Nothing,5
1.63,1.555928183,27,3,3,3,2,-2.57,9.42,1.12,0.02,0.04,-0.03,-0.4375,-0.125,0.0,0.20458984375,0.3453369140625,-0.56719970703125,-0.71917724609375,-10.6875,-37.6875,24.5625,-2.59,9.38,1.15,Nothing,5
1.64,1.555928183,27,3,3,3,2,-2.57,9.42,1.11,0.01,0.03,-0.04,0.3125,0.125,0.0,0.20458984375,0.3453369140625,-0.56719970703125,-0.71917724609375,-10.6875,-37.6875,24.5625,-2.59,9.38,1.15,Nothing,5
1.65,1.586299887,27,3,3,3,2,-2.56,9.43,1.18,0.02,0.04,0.03,0.8125,0.5,0.0,0.20458984375,0.3453369140625,-0.5672607421875,-0.7191162109375,-9.75,-37.25,26.1875,-2.59,9.38,1.15,Nothing,5
1.66,1.586299887,27,3,3,3,2,-2.59,9.42,1.15,0.0,0.04,0.0,0.8125,0.4375,0.0,0.20458984375,0.3453369140625,-0.5672607421875,-0.71905517578125,-9.75,-37.25,26.1875,-2.59,9.38,1.15,Nothing,5
1.66,1.600648601,27,3,3,3,2,-2.59,9.43,1.14,0.0,0.04,0.0,0.4375,0.1875,0.0,0.20458984375,0.3453369140625,-0.5672607421875,-0.71905517578125,-9.75,-37.25,26.1875,-2.59,9.38,1.15,Nothing,5
1.67,1.600648601,27,3,3,3,2,-2.59,9.43,1.15,0.0,0.05,0.0,0.0,0.125,0.0,0.20458984375,0.3453369140625,-0.5672607421875,-0.71905517578125,-9.75,-37.25,26.1875,-2.59,9.38,1.15,Nothing,5
1.69,1.616068686,27,3,3,3,2,-2.59,9.42,1.13,0.0,0.03,-0.02,-0.3125,-0.125,0.0,0.20458984375,0.3453369140625,-0.5672607421875,-0.71905517578125,-9.75,-37.25,26.1875,-2.59,9.38,1.15,Nothing,5
1.7,1.616068686,27,3,3,3,2,-2.59,9.4,1.12,0.0,0.01,-0.03,-0.4375,-0.3125,0.0,0.20458984375,0.3453369140625,-0.5672607421875,-0.71905517578125,-9.5,-38.0,23.5,-2.59,9.38,1.15,Nothing,5
1.71,1.645687216,27,3,3,3,2,-2.59,9.42,1.07,0.0,0.03,-0.07,-0.125,-0.3125,0.125,0.20458984375,0.3453369140625,-0.5672607421875,-0.71905517578125,-9.5,-38.0,23.5,-2.59,9.38,1.15,Nothing,5
1.72,1.645687216,27,3,3,3,2,-2.59,9.41,1.11,0.0,0.02,-0.03,0.125,-0.125,0.0,0.20458984375,0.3453369140625,-0.5672607421875,-0.71905517578125,-9.5,-38.0,23.5,-2.59,9.38,1.15,Nothing,5
1.73,1.662017457,27,3,3,3,2,-2.61,9.41,1.14,-0.01,0.02,-0.01,0.625,0.0,0.0,0.20452880859375,0.3453369140625,-0.56732177734375,-0.71905517578125,-9.5,-38.0,23.5,-2.59,9.38,1.15,Nothing,5
1.74,1.662017457,27,3,3,3,2,-2.59,9.4,1.14,0.0,0.01,-0.01,0.5625,-0.1875,0.0,0.20452880859375,0.3453369140625,-0.5673828125,-0.718994140625,-9.5,-38.0,23.5,-2.59,9.38,1.15,Nothing,5
1.74,1.676882773,27,3,3,3,2,-2.6,9.41,1.14,-0.01,0.02,-0.01,0.5625,-0.1875,0.0,0.20452880859375,0.3453369140625,-0.5673828125,-0.718994140625,-10.1875,-37.0,25.0,-2.59,9.38,1.15,Nothing,5
1.75,1.676882773,27,3,3,3,2,-2.6,9.42,1.12,-0.01,0.03,-0.02,0.3125,-0.5,0.0,0.20452880859375,0.3453369140625,-0.5673828125,-0.718994140625,-10.1875,-37.0,25.0,-2.59,9.38,1.15,Nothing,5
1.76,1.706220623,27,3,3,3,2,-2.6,9.41,1.14,0.0,0.02,0.0,0.375,-0.8125,0.125,0.2044677734375,0.34527587890625,-0.56744384765625,-0.718994140625,-10.1875,-37.0,25.0,-2.59,9.38,1.15,Nothing,5
1.78,1.706220623,27,3,3,3,2,-2.58,9.4,1.15,0.0,0.01,0.0,0.8125,-0.8125,0.1875,0.20440673828125,0.34527587890625,-0.5675048828125,-0.718994140625,-10.1875,-37.0,25.0,-2.59,9.38,1.15,Nothing,5
1.79,1.721191245,27,3,3,3,2,-2.58,9.42,1.12,0.01,0.04,-0.02,0.8125,0.125,0.0,0.20440673828125,0.34527587890625,-0.56756591796875,-0.71893310546875,-10.1875,-37.0,25.0,-2.59,9.38,1.15,Nothing,5
1.8,1.721191245,27,3,3,3,2,-2.58,9.34,0.98,0.01,-0.04,-0.16,0.0,1.3125,-0.4375,0.2044677734375,0.3453369140625,-0.5675048828125,-0.71893310546875,-9.75,-37.6875,24.5625,-2.59,9.38,1.15,Nothing,5
1.81,1.736755983,27,3,3,3,2,-2.59,9.35,0.99,0.0,-0.02,-0.15,0.25,1.25,-0.5625,0.2044677734375,0.345458984375,-0.5675048828125,-0.7188720703125,-9.75,-37.6875,24.5625,-2.59,9.38,1.14,Nothing,5
1.82,1.736755983,27,3,3,3,2,-2.54,9.43,1.05,0.04,0.04,-0.09,1.5625,0.75,-0.5625,0.2044677734375,0.3455810546875,-0.56756591796875,-0.71881103515625,-9.75,-37.6875,24.5625,-2.59,9.38,1.14,Nothing,5
1.83,1.766357464,27,3,3,3,2,-2.54,9.49,1.15,0.04,0.1,0.0,2.0625,0.0,0.0,0.20440673828125,0.3455810546875,-0.56768798828125,-0.71868896484375,-9.75,-37.6875,24.5625,-2.59,9.38,1.14,Nothing,5
1.83,1.766357464,27,3,3,3,2,-2.62,9.51,1.26,-0.02,0.12,0.11,1.875,-1.375,0.375,0.2042236328125,0.3455810546875,-0.56781005859375,-0.7186279296875,-9.75,-37.6875,24.5625,-2.59,9.38,1.14,Nothing,5
1.84,1.781190675,27,3,3,3,2,-2.58,9.49,1.21,0.01,0.1,0.07,0.5625,-2.75,0.8125,0.20416259765625,0.3453369140625,-0.56793212890625,-0.71868896484375,-10.1875,-37.6875,24.5625,-2.59,9.38,1.14,Nothing,5
1.86,1.781190675,27,3,3,3,2,-2.58,9.42,1.1,0.0,0.03,-0.03,-1.0,-2.3125,0.8125,0.2041015625,0.34515380859375,-0.56793212890625,-0.71881103515625,-10.1875,-37.6875,24.5625,-2.59,9.38,1.14,Nothing,5
1.87,1.796300213,27,3,3,3,2,-2.57,9.36,0.97,0.01,-0.02,-0.17,-1.625,-0.9375,0.1875,0.2041015625,0.34503173828125,-0.56787109375,-0.7188720703125,-10.1875,-37.6875,24.5625,-2.59,9.38,1.14,Nothing,5
1.88,1.796300213,27,3,3,3,2,-2.56,9.42,0.98,0.02,0.03,-0.16,-0.1875,0.875,0.0,0.20416259765625,0.3450927734375,-0.56787109375,-0.7188720703125,-10.1875,-37.6875,24.5625,-2.59,9.38,1.14,Nothing,5
1.89,1.841417604,27,3,3,3,2,-2.53,9.43,1.03,0.05,0.04,-0.11,1.6875,2.5625,-0.5,0.2042236328125,0.34527587890625,-0.56793212890625,-0.71868896484375,-10.1875,-37.6875,24.5625,-2.59,9.38,1.14,Nothing,5
1.9,1.841417604,27,3,3,3,2,-2.54,9.46,1.16,0.04,0.07,0.03,2.25,2.9375,-0.625,0.20428466796875,0.3455810546875,-0.5679931640625,-0.718505859375,-10.5625,-37.25,25.0,-2.59,9.38,1.13,Nothing,5
1.91,1.84450879,27,3,3,3,2,-2.56,9.5,1.24,0.03,0.11,0.1,1.0,1.625,-0.4375,0.204345703125,0.34564208984375,-0.5679931640625,-0.7183837890625,-10.5625,-37.25,25.0,-2.59,9.38,1.13,Nothing,5
1.91,1.84450879,27,3,3,3,2,-2.61,9.5,1.21,-0.01,0.11,0.07,-0.25,0.25,-0.1875,0.204345703125,0.34564208984375,-0.5679931640625,-0.7183837890625,-10.5625,-37.25,25.0,-2.59,9.38,1.13,Nothing,5
1.92,1.856246054,27,3,3,3,2,-2.63,9.5,1.14,-0.04,0.11,0.0,-1.125,-0.6875,0.0,0.204345703125,0.3455810546875,-0.56793212890625,-0.718505859375,-10.5625,-37.25,25.0,-2.59,9.38,1.13,Nothing,5
1.94,1.856246054,27,3,3,3,2,-2.64,9.49,1.11,-0.05,0.1,-0.02,-1.4375,-0.875,0.0,0.204345703125,0.34552001953125,-0.56787109375,-0.71856689453125,-10.5625,-37.25,25.0,-2.59,9.38,1.14,Nothing,5
1.95,1.88618327,27,3,3,3,2,-2.61,9.44,1.06,-0.01,0.05,-0.07,-1.1875,-0.9375,0.0,0.204345703125,0.345458984375,-0.56781005859375,-0.71868896484375,-10.1875,-37.25,23.75,-2.59,9.38,1.14,Nothing,5
1.96,1.88618327,27,3,3,3,2,-2.58,9.44,1.11,0.0,0.05,-0.03,-0.6875,-0.6875,0.125,0.20428466796875,0.34539794921875,-0.56781005859375,-0.71875,-10.1875,-37.25,23.75,-2.59,9.38,1.14,Nothing,5
1.97,1.901272096,27,3,3,3,2,-2.58,9.45,1.09,0.01,0.06,-0.05,-0.125,-0.4375,0.0,0.204345703125,0.34539794921875,-0.56781005859375,-0.71875,-10.1875,-37.25,23.75,-2.59,9.38,1.14,Nothing,5
1.98,1.901272096,27,3,3,3,2,-2.59,9.43,1.11,0.0,0.04,-0.02,-0.0625,0.0625,0.0,0.204345703125,0.34539794921875,-0.56781005859375,-0.71875,-10.1875,-37.25,23.75,-2.59,9.38,1.14,Nothing,5
1.99,1.916921388,27,3,3,3,2,-2.57,9.42,1.13,0.01,0.03,0.0,-0.375,0.125,-0.0625,0.204345703125,0.34539794921875,-0.56781005859375,-0.71875,-10.1875,-37.25,23.75,-2.59,9.38,1.14,Nothing,5
1.99,1.916921388,27,3,3,3,2,-2.58,9.45,1.16,0.01,0.07,0.02,-0.9375,0.25,0.0,0.204345703125,0.3453369140625,-0.5677490234375,-0.71881103515625,-9.5,-38.0,23.75,-2.59,9.38,1.14,Nothing,5
2.0,1.946666139,27,3,3,3,2,-2.57,9.43,1.15,0.02,0.04,0.0,-1.5,-0.125,0.0,0.20440673828125,0.3453369140625,-0.567626953125,-0.7188720703125,-9.5,-38.0,23.75,-2.59,9.38,1.14,Nothing,5
2.02,1.946666139,27,3,3,3,2,-2.59,9.42,1.11,0.0,0.04,-0.03,-1.6875,-0.5,-0.0625,0.2044677734375,0.34527587890625,-0.5675048828125,-0.71893310546875,-9.5,-38.0,23.75,-2.59,9.38,1.15,Nothing,5
2.03,1.961513755,27,3,3,3,2,-2.59,9.43,1.19,0.0,0.05,0.03,-1.8125,-0.6875,0.0625,0.2044677734375,0.34521484375,-0.56744384765625,-0.71905517578125,-9.5,-38.0,23.75,-2.59,9.38,1.15,Nothing,5
2.04,1.961513755,27,3,3,3,2,-2.6,9.48,1.21,-0.01,0.09,0.05,-1.5625,-1.0,0.3125,0.2044677734375,0.3450927734375,-0.5673828125,-0.71917724609375,-9.5,-38.0,23.75,-2.59,9.38,1.15,Nothing,5
2.05,1.976021242,27,3,3,3,2,-2.59,9.46,1.21,0.0,0.08,0.05,-1.6875,-1.25,0.25,0.2044677734375,0.34503173828125,-0.5672607421875,-0.71929931640625,-9.5,-38.0,25.0,-2.59,9.38,1.16,Nothing,5
2.06,1.976021242,27,3,3,3,2,-2.64,9.44,1.18,-0.05,0.05,0.02,-1.75,-0.75,0.125,0.2044677734375,0.34490966796875,-0.56719970703125,-0.71942138671875,-9.5,-38.0,25.0,-2.59,9.38,1.16,Nothing,5
2.07,2.015381919,27,3,3,3,2,-2.62,9.44,1.24,-0.02,0.05,0.07,-1.5625,-0.375,0.1875,0.20452880859375,0.34490966796875,-0.56707763671875,-0.719482421875,-9.5,-38.0,25.0,-2.59,9.38,1.16,Nothing,5
2.08,2.015381919,27,3,3,3,2,-2.63,9.42,1.2,-0.03,0.03,0.03,-2.0,-0.9375,0.4375,0.20452880859375,0.34478759765625,-0.56695556640625,-0.7196044921875,-9.5,-38.0,25.0,-2.59,9.38,1.17,Nothing,5
2.09,2.020590211,27,3,3,3,2,-2.63,9.39,1.16,-0.04,0.01,0.0,-2.25,-1.25,0.375,0.20452880859375,0.34466552734375,-0.56683349609375,-0.7197265625,-9.5,-38.0,25.0,-2.59,9.38,1.17,Nothing,5
2.1,2.020590211,27,3,3,3,2,-2.58,9.42,1.16,0.0,0.03,-0.01,-1.3125,-1.375,0.3125,0.20452880859375,0.34454345703125,-0.5667724609375,-0.7198486328125,-9.75,-37.6875,24.25,-2.59,9.38,1.17,Nothing,5
2.11,2.035658937,27,3,3,3,2,-2.58,9.38,1.15,0.0,0.0,-0.02,-0.1875,-1.1875,0.375,0.2044677734375,0.344482421875,-0.56683349609375,-0.71990966796875,-9.75,-37.6875,24.25,-2.59,9.38,1.17,Nothing,5
2.12,2.035658937,27,3,3,3,2,-2.56,9.36,1.21,0.02,-0.01,0.03,-0.1875,-1.1875,0.5,0.20440673828125,0.34442138671875,-0.56683349609375,-0.71990966796875,-9.75,-37.6875,24.25,-2.59,9.38,1.17,Nothing,5
2.13,2.05095923,27,3,3,3,2,-2.56,9.43,1.25,0.02,0.04,0.07,-0.4375,-1.1875,0.625,0.204345703125,0.34429931640625,-0.56689453125,-0.719970703125,-9.75,-37.6875,24.25,-2.58,9.38,1.17,Nothing,5
2.14,2.05095923,27,3,3,3,2,-2.6,9.47,1.21,-0.01,0.08,0.03,-0.625,-1.75,0.875,0.204345703125,0.3441162109375,-0.56689453125,-0.72003173828125,-9.75,-37.6875,24.25,-2.58,9.38,1.18,Nothing,5
2.15,2.083398358,27,3,3,3,2,-2.61,9.46,1.18,-0.03,0.07,0.0,-1.0,-2.0,0.75,0.204345703125,0.34393310546875,-0.56689453125,-0.72015380859375,-10.1875,-37.6875,24.5625,-2.58,9.38,1.18,Nothing,5
2.16,2.083398358,27,3,3,3,2,-2.58,9.42,1.19,0.0,0.03,0.01,-1.1875,-2.125,0.9375,0.204345703125,0.34375,-0.56689453125,-0.72021484375,-10.1875,-37.6875,24.5625,-2.58,9.38,1.18,Nothing,5
2.16,2.09648694,27,3,3,3,2,-2.61,9.42,1.22,-0.02,0.04,0.03,-1.25,-2.3125,0.9375,0.204345703125,0.343505859375,-0.56689453125,-0.7203369140625,-10.1875,-37.6875,24.5625,-2.58,9.38,1.18,Nothing,5
2.18,2.09648694,27,3,3,3,2,-2.59,9.45,1.25,-0.01,0.06,0.06,-1.1875,-2.5625,0.9375,0.20428466796875,0.34326171875,-0.56689453125,-0.720458984375,-10.1875,-37.6875,24.5625,-2.57,9.38,1.19,Nothing,5
2.19,2.127108563,27,3,3,3,2,-2.58,9.45,1.23,0.0,0.06,0.04,-1.375,-3.0,1.1875,0.20428466796875,0.343017578125,-0.56689453125,-0.7205810546875,-10.1875,-37.6875,24.5625,-2.57,9.38,1.19,Nothing,5
2.2,2.127108563,27,3,3,3,2,-2.57,9.44,1.21,0.0,0.06,0.01,-1.5625,-2.875,1.1875,0.2042236328125,0.34271240234375,-0.56689453125,-0.72076416015625,-10.1875,-38.0,24.5625,-2.57,9.38,1.2,Nothing,5
2.21,2.141082724,27,3,3,3,2,-2.54,9.43,1.21,0.02,0.04,0.0,-1.5,-2.8125,1.1875,0.2042236328125,0.34246826171875,-0.56683349609375,-0.72088623046875,-10.1875,-38.0,24.5625,-2.57,9.38,1.2,Nothing,5
2.22,2.141082724,27,3,3,3,2,-2.52,9.41,1.19,0.04,0.02,-0.01,-1.25,-2.5625,1.0625,0.2042236328125,0.34222412109375,-0.56683349609375,-0.72100830078125,-10.1875,-38.0,24.5625,-2.56,9.38,1.2,Nothing,5
2.23,2.155779868,27,3,3,3,2,-2.52,9.41,1.22,0.03,0.02,0.01,-1.0625,-2.5,1.125,0.20416259765625,0.34197998046875,-0.56689453125,-0.72113037109375,-10.1875,-38.0,24.5625,-2.56,9.38,1.21,Nothing,5
2.24,2.155779868,27,3,3,3,2,-2.52,9.38,1.25,0.03,0.0,0.04,-0.8125,-2.375,1.0625,0.20416259765625,0.341796875,-0.56689453125,-0.72119140625,-10.1875,-38.0,24.5625,-2.56,9.38,1.21,Nothing,5
2.24,2.170948122,27,3,3,3,2,-2.51,9.4,1.27,0.05,0.01,0.05,-0.75,-2.1875,1.0625,0.20416259765625,0.341552734375,-0.56689453125,-0.7213134765625,-9.5,-37.25,25.0,-2.56,9.38,1.21,Nothing,5
2.26,2.170948122,27,3,3,3,2,-2.53,9.41,1.27,0.02,0.02,0.05,-0.5,-2.0625,1.0625,0.2041015625,0.34136962890625,-0.56695556640625,-0.7213134765625,-9.5,-37.25,25.0,-2.55,9.38,1.21,Nothing,5
2.27,2.202117759,27,3,3,3,2,-2.51,9.42,1.24,0.04,0.03,0.02,-0.25,-1.9375,1.0,0.2041015625,0.3411865234375,-0.5670166015625,-0.72137451171875,-9.5,-37.25,25.0,-2.55,9.38,1.21,Nothing,5
2.28,2.202117759,27,3,3,3,2,-2.53,9.41,1.27,0.01,0.02,0.06,-0.1875,-1.875,1.0625,0.20404052734375,0.34100341796875,-0.567138671875,-0.721435546875,-9.5,-37.25,25.0,-2.55,9.38,1.21,Nothing,5
2.29,2.221441204,27,3,3,3,2,-2.53,9.45,1.26,0.01,0.06,0.04,-0.0625,-2.0,1.1875,0.20404052734375,0.3408203125,-0.56719970703125,-0.721435546875,-9.5,-37.25,25.0,-2.55,9.38,1.21,Nothing,5
2.3,2.221441204,27,3,3,3,2,-2.54,9.5,1.26,0.0,0.11,0.04,-0.125,-2.375,1.125,0.2039794921875,0.34063720703125,-0.5672607421875,-0.72149658203125,-9.75,-38.0,25.0,-2.55,9.39,1.21,Nothing,5
2.31,2.245962729,27,3,3,3,2,-2.55,9.48,1.27,0.0,0.09,0.05,-0.3125,-2.375,1.0,0.20391845703125,0.3404541015625,-0.56732177734375,-0.7215576171875,-9.75,-38.0,25.0,-2.54,9.39,1.22,Nothing,5
2.32,2.245962729,27,3,3,3,2,-2.54,9.48,1.25,0.0,0.09,0.03,-0.375,-2.6875,0.9375,0.203857421875,0.3402099609375,-0.56744384765625,-0.72161865234375,-9.75,-38.0,25.0,-2.54,9.39,1.22,Nothing,5
2.33,2.261582847,27,3,3,3,2,-2.52,9.45,1.25,0.02,0.06,0.03,-0.1875,-2.4375,0.875,0.20379638671875,0.34002685546875,-0.5675048828125,-0.7216796875,-9.75,-38.0,25.0,-2.54,9.39,1.22,Nothing,5
2.34,2.261582847,27,3,3,3,2,-2.5,9.44,1.27,0.03,0.05,0.04,0.1875,-2.6875,0.6875,0.2037353515625,0.33978271484375,-0.56756591796875,-0.72174072265625,-9.75,-38.0,25.0,-2.54,9.39,1.22,Nothing,5
2.35,2.276548952,27,3,3,3,2,-2.48,9.4,1.27,0.05,0.0,0.05,0.625,-2.4375,0.6875,0.20361328125,0.339599609375,-0.56768798828125,-0.72174072265625,-9.75,-38.75,23.875,-2.54,9.39,1.22,Nothing,5
2.36,2.276548952,27,3,3,3,2,-2.48,9.38,1.27,0.05,0.0,0.05,1.0,-2.125,0.5625,0.20355224609375,0.3394775390625,-0.56781005859375,-0.72174072265625,-9.75,-38.75,23.875,-2.53,9.39,1.22,Nothing,5
2.37,2.291702557,27,3,3,3,2,-2.49,9.41,1.24,0.04,0.02,0.02,1.25,-2.25,0.5,0.203369140625,0.33935546875,-0.56793212890625,-0.7218017578125,-9.75,-38.75,23.875,-2.53,9.39,1.22,Nothing,5
2.38,2.291702557,27,3,3,3,2,-2.48,9.42,1.27,0.05,0.02,0.05,1.1875,-2.625,0.625,0.2032470703125,0.33917236328125,-0.56805419921875,-0.7218017578125,-9.75,-38.75,23.875,-2.53,9.39,1.22,Nothing,5
2.39,2.32151758,27,3,3,3,2,-2.5,9.39,1.28,0.03,0.0,0.06,0.875,-2.6875,0.5,0.203125,0.3389892578125,-0.56817626953125,-0.7218017578125,-9.75,-38.75,23.875,-2.53,9.39,1.22,Nothing,5
2.4,2.32151758,27,3,3,3,2,-2.5,9.41,1.29,0.03,0.01,0.07,0.625,-3.0625,0.5,0.20294189453125,0.33880615234375,-0.5682373046875,-0.72186279296875,-10.1875,-37.6875,24.5625,-2.53,9.39,1.22,Nothing,5
2.41,2.336280275,27,3,3,3,2,-2.49,9.39,1.24,0.03,0.0,0.01,0.6875,-3.1875,0.1875,0.2027587890625,0.338623046875,-0.568359375,-0.721923828125,-10.1875,-37.6875,24.5625,-2.53,9.39,1.22,Nothing,5
2.42,2.336280275,27,3,3,3,2,-2.5,9.39,1.23,0.03,0.0,0.01,0.9375,-3.125,0.0625,0.20257568359375,0.33843994140625,-0.5684814453125,-0.72198486328125,-10.1875,-37.6875,24.5625,-2.53,9.39,1.22,Nothing,5
2.43,2.352357952,27,3,3,3,2,-2.5,9.42,1.23,0.03,0.03,0.01,1.1875,-3.1875,0.125,0.202392578125,0.3382568359375,-0.568603515625,-0.72198486328125,-10.1875,-37.6875,24.5625,-2.53,9.39,1.22,Nothing,5
2.44,2.352357952,27,3,3,3,2,-2.47,9.44,1.25,0.05,0.05,0.03,1.4375,-3.1875,0.0,0.2021484375,0.33807373046875,-0.56878662109375,-0.7220458984375,-10.1875,-37.6875,24.5625,-2.53,9.39,1.22,Nothing,5
2.45,2.38173751,27,3,3,3,2,-2.46,9.45,1.24,0.06,0.06,0.02,1.3125,-3.4375,0.0625,0.20196533203125,0.337890625,-0.56890869140625,-0.7220458984375,-10.5625,-37.6875,25.0,-2.53,9.39,1.21,Nothing,5
2.46,2.38173751,27,3,3,3,2,-2.49,9.46,1.3,0.03,0.07,0.08,1.1875,-3.8125,0.0,0.20172119140625,0.337646484375,-0.56903076171875,-0.72210693359375,-10.5625,-37.6875,25.0,-2.53,9.39,1.21,Nothing,5
2.47,2.397619915,27,3,3,3,2,-2.49,9.47,1.29,0.03,0.07,0.08,1.125,-3.8125,0.0625,0.20147705078125,0.33746337890625,-0.5692138671875,-0.72216796875,-10.5625,-37.6875,25.0,-2.53,9.39,1.21,Nothing,5
2.48,2.397619915,27,3,3,3,2,-2.49,9.39,1.17,0.03,0.0,-0.03,0.5625,-2.875,-0.125,0.20135498046875,0.3372802734375,-0.56927490234375,-0.72222900390625,-10.5625,-37.6875,25.0,-2.52,9.39,1.21,Nothing,5
2.49,2.426253826,27,3,3,3,2,-2.53,9.36,1.12,0.0,-0.02,-0.09,-0.0625,-1.9375,-0.625,0.201171875,0.337158203125,-0.56927490234375,-0.7222900390625,-10.5625,-37.6875,25.0,-2.53,9.39,1.22,Nothing,5
2.5,2.426253826,27,3,3,3,2,-2.51,9.38,1.14,0.02,-0.01,-0.07,0.5625,-2.0625,-0.8125,0.2010498046875,0.33709716796875,-0.5693359375,-0.72235107421875,-10.5625,-37.6875,24.25,-2.53,9.39,1.22,Nothing,5
2.51,2.441049562,27,3,3,3,2,-2.45,9.44,1.23,0.07,0.05,0.01,2.0625,-2.25,-0.5625,0.2008056640625,0.3370361328125,-0.56951904296875,-0.72235107421875,-10.5625,-37.6875,24.25,-2.53,9.39,1.21,Nothing,5
2.52,2.441049562,27,3,3,3,2,-2.47,9.55,1.41,0.05,0.15,0.19,2.3125,-3.0,-0.25,0.20062255859375,0.33685302734375,-0.5697021484375,-0.7222900390625,-10.5625,-37.6875,24.25,-2.53,9.39,1.21,Nothing,5
2.53,2.455993939,27,3,3,3,2,-2.49,9.53,1.44,0.03,0.13,0.22,1.5625,-4.625,0.1875,0.2003173828125,0.33660888671875,-0.56988525390625,-0.72235107421875,-10.5625,-37.6875,24.25,-2.53,9.39,1.21,Nothing,5
2.54,2.455993939,27,3,3,3,2,-2.48,9.48,1.41,0.04,0.09,0.2,0.0,-5.375,0.4375,0.2000732421875,0.33624267578125,-0.5699462890625,-0.7225341796875,-10.5625,-37.6875,24.25,-2.52,9.39,1.21,Nothing,5
2.55,2.486160728,27,3,3,3,2,-2.51,9.42,1.3,0.01,0.02,0.08,-1.9375,-5.0625,0.5,0.1998291015625,0.3359375,-0.5699462890625,-0.7227783203125,-9.75,-37.6875,25.0,-2.52,9.39,1.22,Nothing,5
2.56,2.486160728,27,3,3,3,2,-2.52,9.34,1.1,0.0,-0.05,-0.12,-2.25,-3.625,0.1875,0.19976806640625,0.33563232421875,-0.56988525390625,-0.72296142578125,-9.75,-37.6875,25.0,-2.52,9.39,1.22,Nothing,5
2.57,2.500979494,27,3,3,3,2,-2.49,9.42,1.14,0.03,0.02,-0.08,-0.5625,-1.6875,-0.3125,0.19970703125,0.33551025390625,-0.56982421875,-0.72308349609375,-9.75,-37.6875,25.0,-2.52,9.39,1.22,Nothing,5
2.58,2.500979494,27,3,3,3,2,-2.48,9.45,1.27,0.04,0.05,0.04,1.3125,0.0,-0.625,0.1995849609375,0.3355712890625,-0.5699462890625,-0.7230224609375,-9.75,-37.6875,25.0,-2.52,9.39,1.22,Nothing,5
2.59,2.515973716,27,3,3,3,2,-2.44,9.49,1.46,0.08,0.1,0.23,1.3125,0.0625,-0.75,0.19952392578125,0.33563232421875,-0.57000732421875,-0.72296142578125,-9.75,-37.6875,25.0,-2.52,9.39,1.22,Nothing,5
2.6,2.515973716,27,3,3,3,2,-2.46,9.51,1.46,0.06,0.11,0.24,0.0,-0.8125,-0.5625,0.19940185546875,0.33563232421875,-0.5699462890625,-0.7230224609375,-9.75,-37.6875,25.375,-2.52,9.39,1.22,Nothing,5
2.61,2.530989422,27,3,3,3,2,-2.48,9.52,1.42,0.04,0.13,0.19,-1.1875,-2.4375,-0.5,0.1993408203125,0.33544921875,-0.5699462890625,-0.72314453125,-9.75,-37.6875,25.375,-2.52,9.39,1.22,Nothing,5
2.62,2.530989422,27,3,3,3,2,-2.51,9.52,1.39,0.01,0.13,0.15,-1.5625,-2.9375,-0.375,0.19921875,0.335205078125,-0.56988525390625,-0.7232666015625,-9.75,-37.6875,25.375,-2.52,9.39,1.23,Nothing,5
2.63,2.561658937,27,3,3,3,2,-2.54,9.44,1.3,-0.01,0.04,0.07,-1.25,-2.75,-0.4375,0.19915771484375,0.33502197265625,-0.56988525390625,-0.72344970703125,-9.75,-37.6875,25.375,-2.52,9.39,1.23,Nothing,5
2.64,2.561658937,27,3,3,3,2,-2.54,9.42,1.33,-0.02,0.03,0.09,-0.5625,-2.5625,-0.25,0.19903564453125,0.3348388671875,-0.56988525390625,-0.72357177734375,-9.75,-37.6875,25.375,-2.52,9.39,1.23,Nothing,5
2.65,2.575447064,27,3,3,3,2,-2.54,9.42,1.34,-0.01,0.03,0.1,-0.0625,-2.1875,-0.1875,0.19891357421875,0.334716796875,-0.56988525390625,-0.7236328125,-10.5625,-37.6875,25.75,-2.52,9.39,1.23,Nothing,5
2.66,2.575447064,27,3,3,3,2,-2.54,9.42,1.39,-0.01,0.03,0.15,0.0,-2.5,-0.0625,0.19879150390625,0.33453369140625,-0.5699462890625,-0.72369384765625,-10.5625,-37.6875,25.75,-2.52,9.39,1.24,Nothing,5
2.67,2.605824139,27,3,3,3,2,-2.48,9.39,1.38,0.04,0.0,0.14,0.0,-2.4375,0.0,0.19866943359375,0.33441162109375,-0.57000732421875,-0.7237548828125,-10.5625,-37.6875,25.75,-2.52,9.39,1.24,Nothing,5
2.68,2.605824139,27,3,3,3,2,-2.5,9.39,1.34,0.01,0.0,0.09,0.125,-1.875,-0.0625,0.1986083984375,0.33428955078125,-0.57000732421875,-0.72381591796875,-10.5625,-37.6875,25.75,-2.52,9.39,1.24,Nothing,5
2.69,2.620798504,27,3,3,3,2,-2.49,9.36,1.31,0.03,-0.02,0.07,0.0625,-1.6875,-0.125,0.198486328125,0.33416748046875,-0.570068359375,-0.723876953125,-10.5625,-37.6875,25.75,-2.52,9.39,1.24,Nothing,5
2.7,2.620798504,27,3,3,3,2,-2.47,9.37,1.33,0.05,-0.02,0.09,0.1875,-1.5,0.0,0.19842529296875,0.33404541015625,-0.570068359375,-0.72393798828125,-10.5625,-38.375,24.5625,-2.52,9.39,1.24,Nothing,5
2.71,2.636188682,27,3,3,3,2,-2.47,9.38,1.35,0.04,0.0,0.11,0.3125,-1.625,0.0625,0.1983642578125,0.33392333984375,-0.57012939453125,-0.72393798828125,-10.5625,-38.375,24.5625,-2.52,9.39,1.24,Nothing,5
2.72,2.636188682,27,3,3,3,2,-2.5,9.43,1.35,0.02,0.04,0.11,0.5625,-2.0625,0.1875,0.1982421875,0.33380126953125,-0.5701904296875,-0.7239990234375,-10.5625,-38.375,24.5625,-2.52,9.39,1.24,Nothing,5
2.73,2.665989097,27,3,3,3,2,-2.52,9.43,1.41,0.0,0.04,0.16,0.625,-2.1875,0.3125,0.1981201171875,0.33367919921875,-0.57025146484375,-0.7239990234375,-10.5625,-38.375,24.5625,-2.52,9.39,1.24,Nothing,5
2.74,2.665989097,27,3,3,3,2,-2.52,9.47,1.39,0.0,0.07,0.14,0.125,-2.375,0.125,0.197998046875,0.33355712890625,-0.5703125,-0.72412109375,-10.5625,-38.375,24.5625,-2.52,9.39,1.24,Nothing,5
2.75,2.681858929,27,3,3,3,2,-2.55,9.46,1.4,-0.03,0.07,0.15,0.0,-2.0625,0.25,0.1978759765625,0.33343505859375,-0.5703125,-0.72418212890625,-8.75,-37.6875,25.375,-2.52,9.39,1.24,Nothing,5
2.76,2.681858929,27,3,3,3,2,-2.48,9.47,1.4,0.03,0.08,0.15,-0.0625,-2.0,0.375,0.19781494140625,0.333251953125,-0.57037353515625,-0.7242431640625,-8.75,-37.6875,25.375,-2.52,9.39,1.24,Nothing,5
2.77,2.696689129,27,3,3,3,2,-2.48,9.44,1.35,0.03,0.04,0.1,-0.5,-2.0,0.4375,0.19769287109375,0.3331298828125,-0.57037353515625,-0.72430419921875,-8.75,-37.6875,25.375,-2.52,9.39,1.24,Nothing,5
2.78,2.696689129,27,3,3,3,2,-2.5,9.39,1.28,0.01,0.0,0.03,-0.875,-2.3125,0.3125,0.1976318359375,0.3330078125,-0.57037353515625,-0.724365234375,-8.75,-37.6875,25.375,-2.52,9.39,1.25,Nothing,5
2.79,2.726512087,27,3,3,3,2,-2.47,9.38,1.29,0.04,0.0,0.04,0.0,-1.75,0.4375,0.197509765625,0.3328857421875,-0.5704345703125,-0.72442626953125,-8.75,-37.6875,25.375,-2.51,9.39,1.25,Nothing,5
2.8,2.726512087,27,3,3,3,2,-2.46,9.36,1.33,0.05,-0.02,0.08,0.875,-1.1875,0.5625,0.19744873046875,0.332763671875,-0.57049560546875,-0.72442626953125,-9.75,-38.375,25.0,-2.51,9.39,1.25,Nothing,5
2.81,2.740971966,27,3,3,3,2,-2.48,9.37,1.38,0.03,-0.01,0.13,0.5625,-1.125,0.625,0.19744873046875,0.33270263671875,-0.570556640625,-0.72442626953125,-9.75,-38.375,25.0,-2.51,9.39,1.25,Nothing,5
2.82,2.740971966,27,3,3,3,2,-2.52,9.39,1.4,0.0,0.0,0.15,0.3125,-1.1875,0.9375,0.19744873046875,0.33258056640625,-0.57061767578125,-0.72442626953125,-9.75,-38.375,25.0,-2.51,9.39,1.25,Nothing,5
2.83,2.756098797,27,3,3,3,2,-2.54,9.4,1.4,-0.03,0.0,0.15,0.3125,-1.375,1.0,0.19744873046875,0.3323974609375,-0.5706787109375,-0.7244873046875,-9.75,-38.375,25.0,-2.51,9.39,1.25,Nothing,5
2.84,2.756098797,27,3,3,3,2,-2.55,9.4,1.39,-0.04,0.0,0.14,0.25,-1.4375,1.0625,0.19744873046875,0.332275390625,-0.57073974609375,-0.7244873046875,-9.75,-38.375,25.0,-2.51,9.39,1.25,Nothing,5
2.85,2.786089479,27,3,3,3,2,-2.56,9.41,1.36,-0.05,0.01,0.11,0.25,-1.4375,1.1875,0.19744873046875,0.33209228515625,-0.57080078125,-0.7244873046875,-9.5,-38.0,24.5625,-2.5,9.39,1.25,Nothing,5
2.86,2.786089479,27,3,3,3,2,-2.52,9.39,1.38,-0.02,0.0,0.12,0.5,-1.5,1.25,0.19744873046875,0.33197021484375,-0.57086181640625,-0.72454833984375,-9.5,-38.0,24.5625,-2.5,9.39,1.25,Nothing,5
2.87,2.801039919,27,3,3,3,2,-2.55,9.39,1.35,-0.04,0.0,0.09,0.9375,-1.3125,1.1875,0.19744873046875,0.331787109375,-0.57098388671875,-0.7244873046875,-9.5,-38.0,24.5625,-2.5,9.39,1.25,Nothing,5
2.88,2.801039919,27,3,3,3,2,-2.54,9.37,1.36,-0.04,-0.02,0.11,1.3125,-1.3125,1.3125,0.1973876953125,0.3316650390625,-0.57110595703125,-0.72442626953125,-9.5,-38.0,24.5625,-2.5,9.39,1.25,Nothing,5
2.89,2.815642214,27,3,3,3,2,-2.53,9.38,1.38,-0.03,-0.01,0.13,1.6875,-1.25,1.375,0.1973876953125,0.33154296875,-0.5712890625,-0.724365234375,-9.5,-38.0,24.5625,-2.49,9.4,1.24,Nothing,5
2.9,2.815642214,27,3,3,3,2,-2.55,9.39,1.38,-0.05,0.0,0.13,2.125,-0.8125,1.4375,0.1973876953125,0.33148193359375,-0.57147216796875,-0.72430419921875,-9.75,-38.0,25.375,-2.49,9.4,1.24,Nothing,5
2.91,2.846465212,27,3,3,3,2,-2.55,9.4,1.37,-0.06,0.0,0.12,2.3125,-0.875,1.5,0.1973876953125,0.33135986328125,-0.57171630859375,-0.72418212890625,-9.75,-38.0,25.375,-2.49,9.4,1.24,Nothing,5
2.92,2.846465212,27,3,3,3,2,-2.54,9.41,1.33,-0.05,0.0,0.09,2.25,-0.8125,1.6875,0.1973876953125,0.33123779296875,-0.5718994140625,-0.72406005859375,-9.75,-38.0,25.375,-2.49,9.4,1.23,Nothing,5
2.93,2.861644737,27,3,3,3,2,-2.58,9.42,1.3,-0.09,0.01,0.06,2.3125,-0.6875,1.6875,0.1973876953125,0.3311767578125,-0.57208251953125,-0.72393798828125,-9.75,-38.0,25.375,-2.48,9.4,1.23,Nothing,5
2.94,2.861644737,27,3,3,3,2,-2.59,9.43,1.28,-0.11,0.02,0.05,2.4375,-0.875,1.75,0.1973876953125,0.3310546875,-0.57232666015625,-0.72381591796875,-9.75,-38.0,25.375,-2.48,9.4,1.23,Nothing,5
2.95,2.876408734,27,3,3,3,2,-2.59,9.42,1.29,-0.11,0.01,0.07,2.6875,-1.0,1.75,0.19732666015625,0.3309326171875,-0.57257080078125,-0.72369384765625,-10.1875,-38.0,25.375,-2.48,9.4,1.22,Nothing,5
2.96,2.876408734,27,3,3,3,2,-2.61,9.42,1.31,-0.13,0.02,0.08,3.0,-0.5,1.625,0.1973876953125,0.3309326171875,-0.57281494140625,-0.7235107421875,-10.1875,-38.0,25.375,-2.47,9.4,1.22,Nothing,5
2.97,2.905715049,27,3,3,3,2,-2.61,9.46,1.34,-0.13,0.05,0.12,3.25,-0.0625,1.625,0.1973876953125,0.33087158203125,-0.57305908203125,-0.72332763671875,-10.1875,-38.0,25.375,-2.47,9.41,1.21,Nothing,5
2.98,2.905715049,27,3,3,3,2,-2.59,9.45,1.34,-0.12,0.04,0.12,3.5,0.0625,1.375,0.1973876953125,0.33087158203125,-0.57330322265625,-0.72308349609375,-10.1875,-38.0,25.375,-2.47,9.41,1.21,Nothing,5
2.99,2.921260703,27,3,3,3,2,-2.57,9.47,1.3,-0.1,0.05,0.1,3.6875,0.1875,1.5625,0.19732666015625,0.33087158203125,-0.5736083984375,-0.722900390625,-10.1875,-38.0,25.375,-2.47,9.41,1.2,Nothing,5
3.0,2.921260703,27,3,3,3,2,-2.59,9.44,1.27,-0.12,0.03,0.07,3.8125,0.25,1.4375,0.19732666015625,0.33087158203125,-0.5738525390625,-0.72265625,-10.5625,-37.25,25.75,-2.46,9.41,1.2,Nothing,5
3.01,2.935785972,27,3,3,3,2,-2.57,9.4,1.2,-0.1,-0.01,0.0,4.0,0.8125,1.4375,0.19732666015625,0.3309326171875,-0.57415771484375,-0.722412109375,-10.5625,-37.25,25.75,-2.46,9.41,1.19,Nothing,5
3.02,2.935785972,27,3,3,3,2,-2.54,9.38,1.16,-0.07,-0.03,-0.01,4.3125,1.25,1.4375,0.1973876953125,0.33099365234375,-0.574462890625,-0.72216796875,-10.5625,-37.25,25.75,-2.46,9.41,1.18,Nothing,5
3.03,2.965997438,27,3,3,3,2,-2.53,9.35,1.2,-0.07,-0.06,0.03,4.625,1.4375,1.625,0.19744873046875,0.3310546875,-0.57476806640625,-0.72186279296875,-10.5625,-37.25,25.75,-2.46,9.41,1.17,Nothing,5
3.04,2.965997438,27,3,3,3,2,-2.52,9.36,1.24,-0.06,-0.05,0.07,4.875,2.0625,1.75,0.197509765625,0.3311767578125,-0.5750732421875,-0.72149658203125,-10.5625,-37.25,25.75,-2.45,9.42,1.16,Nothing,5
3.05,2.981806846,27,3,3,3,2,-2.49,9.39,1.21,-0.03,-0.03,0.05,4.8125,2.1875,1.9375,0.1976318359375,0.331298828125,-0.57537841796875,-0.72119140625,-9.75,-37.25,25.0,-2.45,9.42,1.15,Nothing,5
3.06,2.981806846,27,3,3,3,2,-2.51,9.41,1.17,-0.05,-0.01,0.02,4.375,2.0625,2.125,0.19769287109375,0.3314208984375,-0.57568359375,-0.72088623046875,-9.75,-37.25,25.0,-2.45,9.42,1.15,Nothing,5
3.07,2.995798301,27,3,3,3,2,-2.49,9.4,1.19,-0.04,-0.02,0.04,3.9375,1.875,2.3125,0.19781494140625,0.33148193359375,-0.57598876953125,-0.7205810546875,-9.75,-37.25,25.0,-2.44,9.42,1.14,Nothing,5
3.08,2.995798301,27,3,3,3,2,-2.48,9.41,1.18,-0.04,-0.01,0.04,3.5,2.0,2.625,0.197998046875,0.33154296875,-0.57623291015625,-0.72027587890625,-9.75,-37.25,25.0,-2.44,9.42,1.13,Nothing,5
3.09,3.026806683,27,3,3,3,2,-2.49,9.44,1.14,-0.04,0.01,0.01,3.3125,1.9375,2.9375,0.19818115234375,0.33160400390625,-0.57647705078125,-0.72003173828125,-9.75,-37.25,25.0,-2.44,9.43,1.13,Nothing,5
3.1,3.026806683,27,3,3,3,2,-2.51,9.42,1.11,-0.07,0.0,-0.01,3.0,2.1875,3.0625,0.19842529296875,0.33160400390625,-0.57672119140625,-0.7197265625,-11.25,-37.6875,26.5625,-2.43,9.43,1.12,Nothing,5
3.11,3.056250734,27,3,3,3,2,-2.51,9.45,1.12,-0.08,0.02,0.0,3.0,2.375,3.3125,0.19866943359375,0.3316650390625,-0.57696533203125,-0.719482421875,-11.25,-37.6875,26.5625,-2.43,9.43,1.11,Nothing,5
3.12,3.056250734,27,3,3,3,2,-2.48,9.47,1.08,-0.05,0.03,-0.02,3.1875,2.625,3.3125,0.19891357421875,0.33172607421875,-0.5772705078125,-0.71917724609375,-11.25,-37.6875,26.5625,-2.42,9.43,1.11,Nothing,5
3.13,3.059445599,27,3,3,3,2,-2.49,9.45,1.07,-0.07,0.01,-0.03,3.3125,2.875,3.625,0.19921875,0.33172607421875,-0.5775146484375,-0.7188720703125,-11.25,-37.6875,26.5625,-2.42,9.43,1.1,Nothing,5
3.14,3.059445599,27,3,3,3,2,-2.48,9.48,1.11,-0.07,0.04,0.01,3.25,3.1875,3.5,0.199462890625,0.33184814453125,-0.5777587890625,-0.718505859375,-11.25,-37.6875,26.5625,-2.41,9.44,1.1,Nothing,5
3.15,3.085937705,27,3,3,3,2,-2.46,9.47,1.11,-0.05,0.03,0.02,3.1875,3.5625,3.5,0.19976806640625,0.3319091796875,-0.5780029296875,-0.71820068359375,-10.5625,-37.75,27.375,-2.41,9.44,1.09,Nothing,5
3.16,3.085937705,27,3,3,3,2,-2.45,9.5,1.06,-0.04,0.06,-0.02,2.75,3.625,3.5625,0.20013427734375,0.33203125,-0.57818603515625,-0.7178955078125,-10.5625,-37.75,27.375,-2.4,9.44,1.08,Nothing,5
3.17,3.100921063,27,3,3,3,2,-2.45,9.51,1.11,-0.05,0.06,0.03,2.375,3.625,3.5625,0.200439453125,0.3321533203125,-0.578369140625,-0.71759033203125,-10.5625,-37.75,27.375,-2.4,9.44,1.08,Nothing,5
3.18,3.100921063,27,3,3,3,2,-2.45,9.48,1.12,-0.05,0.03,0.04,2.5,3.8125,3.8125,0.2008056640625,0.33221435546875,-0.57861328125,-0.71728515625,-10.5625,-37.75,27.375,-2.39,9.44,1.07,Nothing,5
3.19,3.1159268,27,3,3,3,2,-2.44,9.49,1.09,-0.05,0.04,0.02,2.4375,4.75,3.8125,0.20123291015625,0.33233642578125,-0.57879638671875,-0.71697998046875,-10.5625,-37.75,27.375,-2.38,9.45,1.07,Nothing,5
3.2,3.1159268,27,3,3,3,2,-2.43,9.42,0.92,-0.04,-0.03,-0.13,1.6875,6.25,3.375,0.20172119140625,0.33258056640625,-0.578857421875,-0.7166748046875,-9.75,-37.75,27.375,-2.38,9.45,1.06,Nothing,5
3.21,3.147378868,27,3,3,3,2,-2.45,9.43,0.93,-0.07,-0.01,-0.12,1.5625,6.8125,3.0625,0.20220947265625,0.3328857421875,-0.57891845703125,-0.71630859375,-9.75,-37.75,27.375,-2.38,9.45,1.05,Nothing,5
3.22,3.147378868,27,3,3,3,2,-2.39,9.47,0.93,-0.01,0.01,-0.11,2.8125,6.5625,3.375,0.20269775390625,0.33319091796875,-0.5791015625,-0.7159423828125,-9.75,-37.75,27.375,-2.37,9.45,1.05,Nothing,5
3.23,3.161169232,27,3,3,3,2,-2.37,9.53,1.06,0.0,0.07,0.02,3.375,6.125,3.5,0.203125,0.33343505859375,-0.57928466796875,-0.71551513671875,-9.75,-37.75,27.375,-2.37,9.45,1.04,Nothing,5
3.24,3.161169232,27,3,3,3,2,-2.38,9.53,1.16,-0.01,0.07,0.12,3.375,5.0625,4.125,0.2034912109375,0.3336181640625,-0.57952880859375,-0.71514892578125,-9.75,-37.75,27.375,-2.36,9.46,1.03,Nothing,5
3.25,3.175421348,27,3,3,3,2,-2.39,9.48,1.16,-0.03,0.02,0.13,2.4375,4.125,4.5,0.20391845703125,0.33367919921875,-0.57977294921875,-0.71478271484375,-11.25,-37.75,26.5625,-2.35,9.46,1.03,Nothing,5
3.26,3.175421348,27,3,3,3,2,-2.39,9.45,1.02,-0.03,-0.01,0.0,0.5,4.25,4.875,0.2044677734375,0.333740234375,-0.579833984375,-0.714599609375,-11.25,-37.75,26.5625,-2.35,9.46,1.02,Nothing,5
3.27,3.205778526,27,3,3,3,2,-2.44,9.38,0.89,-0.09,-0.07,-0.13,-0.5625,5.625,4.6875,0.205078125,0.33380126953125,-0.579833984375,-0.71435546875,-11.25,-37.75,26.5625,-2.34,9.46,1.02,Nothing,5
3.28,3.205778526,27,3,3,3,2,-2.42,9.42,0.85,-0.08,-0.04,-0.17,0.125,7.875,4.0,0.2056884765625,0.3341064453125,-0.57977294921875,-0.71405029296875,-11.25,-37.75,26.5625,-2.34,9.46,1.02,Nothing,5
3.29,3.220951296,27,3,3,3,2,-2.4,9.49,0.92,-0.06,0.02,-0.09,2.0625,9.875,3.5625,0.20635986328125,0.3345947265625,-0.579833984375,-0.713623046875,-11.25,-37.75,26.5625,-2.33,9.46,1.01,Nothing,5
3.3,3.220951296,27,3,3,3,2,-2.4,9.52,1.05,-0.07,0.04,0.04,2.8125,11.0625,3.125,0.20703125,0.33514404296875,-0.57989501953125,-0.71307373046875,-12.0,-37.375,27.375,-2.33,9.47,1.0,Nothing,5
3.31,3.23579647,27,3,3,3,2,-2.38,9.6,1.16,-0.05,0.12,0.16,1.9375,10.6875,3.125,0.20770263671875,0.335693359375,-0.5799560546875,-0.712646484375,-12.0,-37.375,27.375,-2.32,9.47,0.99,Nothing,5
3.32,3.23579647,27,3,3,3,2,-2.36,9.57,1.11,-0.04,0.1,0.11,0.625,9.4375,3.3125,0.2083740234375,0.33612060546875,-0.57989501953125,-0.7122802734375,-12.0,-37.375,27.375,-2.32,9.47,0.99,Nothing,5
3.33,3.266230227,27,3,3,3,2,-2.4,9.54,1.05,-0.08,0.07,0.05,0.0,8.4375,3.625,0.20904541015625,0.33648681640625,-0.579833984375,-0.7119140625,-12.0,-37.375,27.375,-2.32,9.47,0.99,Nothing,5
3.34,3.266230227,27,3,3,3,2,-2.4,9.55,0.95,-0.09,0.08,-0.03,0.0625,8.5625,3.6875,0.209716796875,0.33685302734375,-0.57977294921875,-0.71160888671875,-12.0,-37.375,27.375,-2.31,9.47,0.98,Nothing,5
3.35,3.281128257,27,3,3,3,2,-2.36,9.54,0.96,-0.05,0.06,-0.01,0.375,8.875,3.8125,0.21038818359375,0.33721923828125,-0.57977294921875,-0.7113037109375,-10.5625,-38.5,28.0625,-2.31,9.47,0.98,Nothing,5
3.36,3.281128257,27,3,3,3,2,-2.36,9.55,0.96,-0.06,0.07,-0.01,0.8125,9.5625,3.875,0.21112060546875,0.33758544921875,-0.5797119140625,-0.71087646484375,-10.5625,-38.5,28.0625,-2.3,9.48,0.97,Nothing,5
3.37,3.297114626,27,3,3,3,2,-2.36,9.54,1.0,-0.06,0.06,0.03,0.9375,9.375,4.125,0.2117919921875,0.3380126953125,-0.5797119140625,-0.71051025390625,-10.5625,-38.5,28.0625,-2.3,9.48,0.97,Nothing,5
3.38,3.297114626,27,3,3,3,2,-2.33,9.53,0.99,-0.04,0.05,0.02,0.625,9.6875,4.1875,0.2125244140625,0.33837890625,-0.5797119140625,-0.7100830078125,-10.5625,-38.5,28.0625,-2.29,9.48,0.96,Nothing,5
3.39,3.327004722,27,3,3,3,2,-2.3,9.51,0.93,-0.01,0.02,-0.03,0.25,9.9375,4.5,0.21331787109375,0.33880615234375,-0.57965087890625,-0.709716796875,-10.5625,-38.5,28.0625,-2.29,9.48,0.96,Nothing,5
3.4,3.327004722,27,3,3,3,2,-2.25,9.52,0.88,0.03,0.03,-0.07,0.1875,10.5,4.3125,0.214111328125,0.3392333984375,-0.57958984375,-0.7093505859375,-11.6875,-37.75,27.75,-2.28,9.48,0.96,Nothing,5
3.41,3.34084778,27,3,3,3,2,-2.21,9.51,0.92,0.06,0.02,-0.02,0.6875,10.9375,4.6875,0.2149658203125,0.33966064453125,-0.57958984375,-0.7088623046875,-11.6875,-37.75,27.75,-2.27,9.49,0.95,Nothing,5
3.42,3.34084778,27,3,3,3,2,-2.16,9.52,0.89,0.11,0.02,-0.05,1.625,11.5625,4.5625,0.21575927734375,0.3402099609375,-0.57958984375,-0.7083740234375,-11.6875,-37.75,27.75,-2.27,9.49,0.94,Nothing,5
3.43,3.355518353,27,3,3,3,2,-2.12,9.57,0.97,0.14,0.08,0.03,2.375,11.6875,4.625,0.216552734375,0.3406982421875,-0.57965087890625,-0.70782470703125,-11.6875,-37.75,27.75,-2.26,9.49,0.93,Nothing,5
3.44,3.355518353,27,3,3,3,2,-2.08,9.59,0.97,0.17,0.1,0.04,2.625,11.875,4.8125,0.2174072265625,0.34124755859375,-0.57977294921875,-0.70721435546875,-11.6875,-37.75,27.75,-2.26,9.49,0.93,Nothing,5
3.45,3.401911176,27,3,3,3,2,-2.06,9.62,1.0,0.18,0.12,0.08,2.375,12.0625,5.125,0.21826171875,0.341796875,-0.579833984375,-0.7066650390625,-11.6875,-38.0625,29.0,-2.25,9.49,0.92,Nothing,5
3.46,3.401911176,27,3,3,3,2,-2.1,9.51,0.98,0.14,0.01,0.06,2.0625,12.8125,4.9375,0.21917724609375,0.34234619140625,-0.579833984375,-0.7060546875,-11.6875,-38.0625,29.0,-2.24,9.5,0.91,Nothing,5
3.47,3.405126182,27,3,3,3,2,-2.07,9.49,0.96,0.16,-0.01,0.05,2.4375,13.5,5.1875,0.2200927734375,0.343017578125,-0.57989501953125,-0.7054443359375,-11.6875,-38.0625,29.0,-2.24,9.5,0.9,Nothing,5
3.48,3.405126182,27,3,3,3,2,-2.02,9.46,0.89,0.21,-0.03,0.0,2.75,14.3125,5.3125,0.2210693359375,0.34368896484375,-0.5799560546875,-0.70477294921875,-11.6875,-38.0625,29.0,-2.23,9.5,0.89,Nothing,5
3.49,3.431264081,27,3,3,3,2,-2.0,9.43,0.82,0.22,-0.07,-0.05,2.9375,14.875,5.4375,0.2220458984375,0.3443603515625,-0.58001708984375,-0.70404052734375,-11.6875,-38.0625,29.0,-2.22,9.5,0.88,Nothing,5
3.5,3.431264081,27,3,3,3,2,-1.97,9.44,0.8,0.24,-0.06,-0.06,3.75,16.0625,5.4375,0.22308349609375,0.34515380859375,-0.580078125,-0.70330810546875,-13.1875,-38.5,29.25,-2.22,9.51,0.87,Nothing,5
3.51,3.445839113,27,3,3,3,2,-1.92,9.43,0.79,0.28,-0.07,-0.05,5.375,17.375,5.4375,0.22412109375,0.34600830078125,-0.58026123046875,-0.702392578125,-13.1875,-38.5,29.25,-2.21,9.51,0.85,Nothing,5
3.52,3.445839113,27,3,3,3,2,-1.88,9.43,0.78,0.31,-0.08,-0.05,6.0625,18.3125,5.375,0.22528076171875,0.346923828125,-0.5804443359375,-0.70135498046875,-13.1875,-38.5,29.25,-2.2,9.51,0.83,Nothing,5
3.53,3.461367434,27,3,3,3,2,-1.88,9.47,0.82,0.31,-0.04,0.0,6.1875,18.6875,5.375,0.2264404296875,0.34783935546875,-0.5806884765625,-0.70037841796875,-13.1875,-38.5,29.25,-2.19,9.52,0.81,Nothing,5
3.54,3.461367434,27,3,3,3,2,-1.8,9.47,0.85,0.38,-0.05,0.05,6.375,18.8125,5.5,0.2276611328125,0.34869384765625,-0.5809326171875,-0.6993408203125,-13.1875,-38.5,29.25,-2.18,9.52,0.8,Nothing,5
3.55,3.476285687,27,3,3,3,2,-1.78,9.43,0.8,0.39,-0.09,0.02,6.6875,18.6875,5.5,0.2288818359375,0.34954833984375,-0.5811767578125,-0.69830322265625,-15.0,-37.375,28.5,-2.17,9.52,0.78,Nothing,5
3.56,3.476285687,27,3,3,3,2,-1.73,9.39,0.78,0.42,-0.14,0.01,7.125,19.25,5.1875,0.23016357421875,0.3504638671875,-0.58148193359375,-0.69720458984375,-15.0,-37.375,28.5,-2.16,9.53,0.76,Nothing,5
3.57,3.506622968,27,3,3,3,2,-1.69,9.34,0.71,0.46,-0.19,-0.03,7.75,19.6875,5.0625,0.23138427734375,0.35137939453125,-0.581787109375,-0.696044921875,-15.0,-37.375,28.5,-2.15,9.53,0.74,Nothing,5
3.58,3.506622968,27,3,3,3,2,-1.57,9.32,0.65,0.56,-0.21,-0.06,8.3125,20.25,5.25,0.232666015625,0.352294921875,-0.5821533203125,-0.69482421875,-15.0,-37.375,28.5,-2.14,9.54,0.72,Nothing,5
3.59,3.520773928,27,3,3,3,2,-1.51,9.36,0.63,0.61,-0.18,-0.06,8.6875,20.875,5.3125,0.23406982421875,0.35321044921875,-0.58258056640625,-0.69354248046875,-15.0,-37.375,28.5,-2.12,9.54,0.7,Nothing,5
3.6,3.520773928,27,3,3,3,2,-1.48,9.39,0.6,0.62,-0.16,-0.07,8.6875,21.1875,5.3125,0.23553466796875,0.35406494140625,-0.58306884765625,-0.6922607421875,-14.5625,-37.75,29.6875,-2.11,9.55,0.68,Nothing,5
3.61,3.536024213,27,3,3,3,2,-1.48,9.43,0.55,0.61,-0.12,-0.1,8.25,21.5625,5.625,0.237060546875,0.35498046875,-0.58349609375,-0.69085693359375,-14.5625,-37.75,29.6875,-2.09,9.55,0.65,Nothing,5
3.62,3.536024213,27,3,3,3,2,-1.45,9.6,0.52,0.62,0.03,-0.11,7.5,21.6875,5.6875,0.2386474609375,0.35577392578125,-0.58392333984375,-0.68951416015625,-14.5625,-37.75,29.6875,-2.07,9.56,0.63,Nothing,5
3.63,3.566114667,27,3,3,3,2,-1.46,9.7,0.5,0.59,0.13,-0.1,6.8125,21.375,5.8125,0.240234375,0.3565673828125,-0.5843505859375,-0.688232421875,-14.5625,-37.75,29.6875,-2.05,9.56,0.61,Nothing,5
3.64,3.566114667,27,3,3,3,2,-1.45,9.8,0.5,0.59,0.23,-0.09,6.0625,20.875,5.875,0.24151611328125,0.35760498046875,-0.58447265625,-0.6871337890625,-14.5625,-37.75,29.6875,-2.05,9.57,0.59,Nothing,5
3.65,3.580996828,27,3,3,3,2,-1.54,9.99,0.48,0.5,0.42,-0.09,5.5,20.375,5.75,0.24273681640625,0.358642578125,-0.5845947265625,-0.68609619140625,-15.0,-36.25,30.5,-2.04,9.57,0.58,Nothing,5
3.66,3.580996828,27,3,3,3,2,-1.57,10.09,0.48,0.46,0.51,-0.08,4.5625,20.4375,5.3125,0.24395751953125,0.3597412109375,-0.5845947265625,-0.68511962890625,-15.0,-36.25,30.5,-2.03,9.57,0.56,Nothing,5
3.67,3.596538698,27,3,3,3,2,-1.61,10.12,0.51,0.41,0.54,-0.03,3.5625,19.9375,4.9375,0.2451171875,0.3607177734375,-0.58453369140625,-0.6842041015625,-15.0,-36.25,30.5,-2.03,9.57,0.55,Nothing,5
3.68,3.596538698,27,3,3,3,2,-1.67,10.18,0.51,0.35,0.6,-0.02,3.0,19.625,4.3125,0.246337890625,0.36175537109375,-0.58441162109375,-0.683349609375,-15.0,-36.25,30.5,-2.02,9.58,0.54,Nothing,5
3.69,3.626808474,27,3,3,3,2,-1.83,10.2,0.59,0.18,0.61,0.06,2.625,19.5625,3.75,0.2474365234375,0.36279296875,-0.58428955078125,-0.6824951171875,-15.0,-36.25,30.5,-2.02,9.58,0.52,Nothing,5
3.7,3.626808474,27,3,3,3,2,-1.89,10.19,0.6,0.12,0.6,0.08,2.0,19.5,3.125,0.24859619140625,0.36383056640625,-0.5841064453125,-0.68170166015625,-16.0,-37.0625,29.6875,-2.01,9.58,0.51,Nothing,5
3.71,3.640725914,27,3,3,3,2,-1.95,10.17,0.59,0.06,0.59,0.08,1.5,19.0,2.4375,0.2496337890625,0.3648681640625,-0.5838623046875,-0.68096923828125,-16.0,-37.0625,29.6875,-2.01,9.58,0.51,Nothing,5
3.72,3.640725914,27,3,3,3,2,-1.99,10.13,0.58,0.01,0.55,0.07,1.1875,18.1875,1.4375,0.2506103515625,0.3658447265625,-0.58355712890625,-0.6802978515625,-16.0,-37.0625,29.6875,-2.01,9.58,0.5,Nothing,5
3.73,3.655953534,27,3,3,3,2,-2.05,9.98,0.57,-0.03,0.4,0.07,1.0625,17.3125,0.5,0.25146484375,0.366943359375,-0.583251953125,-0.6796875,-16.0,-37.0625,29.6875,-2.01,9.58,0.49,Nothing,5
3.74,3.655953534,27,3,3,3,2,-2.08,9.93,0.56,-0.07,0.34,0.08,1.3125,16.3125,-0.4375,0.25225830078125,0.367919921875,-0.58294677734375,-0.6790771484375,-16.0,-37.0625,29.6875,-2.01,9.58,0.48,Nothing,5
3.75,3.686455731,27,3,3,3,2,-2.06,9.89,0.54,-0.04,0.3,0.06,1.625,15.375,-1.625,0.2529296875,0.36895751953125,-0.58270263671875,-0.67852783203125,-15.6875,-37.1875,29.0,-2.01,9.58,0.47,Nothing,5
3.76,3.686455731,27,3,3,3,2,-2.07,9.83,0.57,-0.05,0.24,0.1,1.875,14.375,-2.75,0.25341796875,0.3699951171875,-0.5823974609375,-0.67803955078125,-15.6875,-37.1875,29.0,-2.02,9.58,0.46,Nothing,5
3.77,3.701098025,27,3,3,3,2,-2.05,9.78,0.59,-0.01,0.2,0.13,1.875,13.3125,-3.5625,0.25384521484375,0.3709716796875,-0.58209228515625,-0.67755126953125,-15.6875,-37.1875,29.0,-2.03,9.58,0.46,Nothing,5
3.78,3.701098025,27,3,3,3,2,-2.01,9.77,0.62,0.02,0.19,0.17,1.5,12.0,-4.3125,0.254150390625,0.3719482421875,-0.581787109375,-0.67718505859375,-15.6875,-37.1875,29.0,-2.04,9.58,0.45,Nothing,5
3.79,3.732434695,27,3,3,3,2,-1.95,9.75,0.62,0.08,0.17,0.17,1.0625,10.5,-4.8125,0.25439453125,0.372802734375,-0.5814208984375,-0.67694091796875,-15.6875,-37.1875,29.0,-2.04,9.57,0.45,Nothing,5
3.8,3.732434695,27,3,3,3,2,-1.89,9.75,0.63,0.15,0.17,0.18,0.5,8.6875,-5.0625,0.25457763671875,0.37353515625,-0.5810546875,-0.6767578125,-16.75,-37.1875,30.0625,-2.05,9.57,0.44,Nothing,5
3.81,3.746115847,27,3,3,3,2,-1.84,9.67,0.53,0.22,0.09,0.09,0.0,7.25,-5.1875,0.25469970703125,0.3741455078125,-0.58074951171875,-0.67669677734375,-16.75,-37.1875,30.0625,-2.06,9.57,0.44,Nothing,5
3.82,3.746115847,27,3,3,3,2,-1.8,9.7,0.46,0.26,0.13,0.01,-0.5625,5.75,-5.25,0.2547607421875,0.3746337890625,-0.5804443359375,-0.6766357421875,-16.75,-37.1875,30.0625,-2.07,9.57,0.44,Nothing,5
3.83,3.762198448,27,3,3,3,2,-1.78,9.68,0.41,0.29,0.11,-0.02,-1.0,4.5,-5.3125,0.25482177734375,0.37506103515625,-0.58013916015625,-0.6766357421875,-16.75,-37.1875,30.0625,-2.07,9.57,0.44,Nothing,5
3.84,3.762198448,27,3,3,3,2,-1.72,9.7,0.42,0.35,0.13,-0.02,-1.4375,3.125,-5.3125,0.2548828125,0.3753662109375,-0.57989501953125,-0.67669677734375,-16.75,-37.1875,30.0625,-2.08,9.57,0.44,Nothing,5
3.85,3.798828412,27,3,3,3,2,-1.71,9.69,0.48,0.37,0.12,0.03,-1.25,2.375,-5.3125,0.2548828125,0.3756103515625,-0.57965087890625,-0.67669677734375,-14.875,-37.5,30.875,-2.08,9.57,0.44,Nothing,5
3.86,3.798828412,27,3,3,3,2,-1.71,9.69,0.51,0.38,0.12,0.06,-0.9375,1.9375,-5.625,0.25482177734375,0.37579345703125,-0.5794677734375,-0.67681884765625,-14.875,-37.5,30.875,-2.09,9.57,0.45,Nothing,5
3.87,3.806230349,27,3,3,3,2,-1.72,9.66,0.53,0.37,0.09,0.08,-0.5,2.0,-5.75,0.25482177734375,0.37603759765625,-0.57928466796875,-0.67681884765625,-14.875,-37.5,30.875,-2.09,9.56,0.45,Nothing,5
3.88,3.806230349,27,3,3,3,2,-1.73,9.62,0.5,0.36,0.05,0.05,-0.375,1.9375,-5.875,0.2547607421875,0.37628173828125,-0.57916259765625,-0.67681884765625,-14.875,-37.5,30.875,-2.1,9.56,0.45,Nothing,5
3.89,3.822118126,27,3,3,3,2,-1.74,9.63,0.47,0.36,0.06,0.02,-0.4375,2.0625,-6.0625,0.254638671875,0.37652587890625,-0.5789794921875,-0.6768798828125,-14.875,-37.5,30.875,-2.1,9.56,0.45,Nothing,5
3.9,3.822118126,27,3,3,3,1,-1.74,9.65,0.44,0.36,0.08,0.0,0.0,2.25,-6.0625,0.25457763671875,0.37677001953125,-0.578857421875,-0.6768798828125,-15.1875,-36.375,29.6875,-2.11,9.56,0.45,Nothing,5
3.91,3.837243777,27,3,3,3,1,-1.77,9.66,0.46,0.34,0.1,0.01,0.625,2.5625,-6.0625,0.2545166015625,0.3770751953125,-0.5787353515625,-0.67681884765625,-15.1875,-36.375,29.6875,-2.11,9.56,0.44,Climbing Up,5
3.92,3.837243777,27,3,3,3,1,-1.78,9.59,0.41,0.33,0.03,-0.02,1.375,3.6875,-6.125,0.25445556640625,0.37750244140625,-0.57861328125,-0.67669677734375,-15.1875,-36.375,29.6875,-2.12,9.56,0.44,Climbing Up,5
3.93,3.866318321,27,3,3,3,1,-1.8,9.58,0.32,0.32,0.02,-0.11,1.3125,5.25,-6.625,0.25445556640625,0.3780517578125,-0.5784912109375,-0.676513671875,-15.1875,-36.375,29.6875,-2.12,9.56,0.44,Climbing Up,5
3.94,3.866318321,27,3,3,3,1,-1.84,9.54,0.3,0.29,-0.01,-0.13,1.25,6.5625,-7.125,0.25439453125,0.37872314453125,-0.5782470703125,-0.67633056640625,-15.1875,-36.375,29.6875,-2.13,9.56,0.43,Climbing Up,5
3.95,3.8811237,27,3,3,3,1,-1.81,9.58,0.32,0.33,0.02,-0.09,2.6875,7.0625,-6.875,0.25439453125,0.37945556640625,-0.57818603515625,-0.676025390625,-15.1875,-36.75,29.6875,-2.14,9.55,0.42,Climbing Up,5
3.96,3.8811237,27,3,3,3,1,-1.72,9.72,0.5,0.43,0.16,0.09,3.75,7.25,-6.6875,0.25445556640625,0.380126953125,-0.578125,-0.6756591796875,-15.1875,-36.75,29.6875,-2.15,9.55,0.41,Climbing Up,5
3.97,3.895993777,27,3,3,3,1,-1.72,9.76,0.54,0.42,0.2,0.13,4.125,6.4375,-6.0625,0.2545166015625,0.38067626953125,-0.578125,-0.67535400390625,-15.1875,-36.75,29.6875,-2.15,9.55,0.4,Climbing Up,5
3.98,3.895993777,27,3,3,3,1,-1.76,9.71,0.58,0.39,0.15,0.18,3.4375,5.1875,-5.25,0.25457763671875,0.38104248046875,-0.578125,-0.67510986328125,-15.1875,-36.75,29.6875,-2.15,9.55,0.4,Climbing Up,5
3.99,3.925937421,27,3,3,3,1,-1.79,9.64,0.53,0.36,0.08,0.13,1.0625,4.6875,-4.8125,0.2547607421875,0.38134765625,-0.5780029296875,-0.67498779296875,-15.1875,-36.75,29.6875,-2.16,9.55,0.4,Climbing Up,5
4.0,3.925937421,27,3,3,3,1,-1.84,9.55,0.29,0.32,0.0,-0.1,-0.8125,5.3125,-4.6875,0.25494384765625,0.38177490234375,-0.5777587890625,-0.67486572265625,-15.5625,-37.5,29.25,-2.16,9.55,0.4,Climbing Up,5
4.01,3.941127647,27,3,3,3,1,-1.83,9.52,0.28,0.33,-0.03,-0.11,-0.875,6.75,-4.8125,0.25518798828125,0.38226318359375,-0.5775146484375,-0.67474365234375,-15.5625,-37.5,29.25,-2.16,9.55,0.4,Climbing Up,5
4.02,3.941127647,27,3,3,3,1,-1.8,9.51,0.34,0.36,-0.04,-0.05,0.5625,8.1875,-5.1875,0.25543212890625,0.38287353515625,-0.5772705078125,-0.67449951171875,-15.5625,-37.5,29.25,-2.17,9.55,0.39,Climbing Up,5
4.03,3.955794233,27,3,3,3,1,-1.73,9.53,0.47,0.43,-0.01,0.08,1.625,9.4375,-5.4375,0.25567626953125,0.383544921875,-0.57708740234375,-0.67413330078125,-15.5625,-37.5,29.25,-2.17,9.55,0.38,Climbing Up,5
4.04,3.955794233,27,3,3,3,1,-1.73,9.6,0.52,0.44,0.04,0.13,1.5,9.1875,-5.4375,0.25604248046875,0.3841552734375,-0.576904296875,-0.673828125,-15.5625,-37.5,29.25,-2.18,9.55,0.38,Climbing Up,5
4.05,3.986008466,27,3,3,3,1,-1.77,9.65,0.54,0.4,0.1,0.16,0.8125,8.1875,-5.1875,0.25634765625,0.38470458984375,-0.57666015625,-0.673583984375,-15.1875,-36.75,28.875,-2.18,9.55,0.38,Climbing Up,5
4.06,3.986008466,27,3,3,3,1,-1.81,9.68,0.55,0.36,0.13,0.17,0.8125,7.6875,-4.5625,0.2567138671875,0.3851318359375,-0.57647705078125,-0.67340087890625,-15.1875,-36.75,28.875,-2.18,9.55,0.37,Climbing Up,5
4.07,4.001184247,27,3,3,3,1,-1.85,9.66,0.5,0.32,0.11,0.12,1.3125,8.0,-4.5625,0.25701904296875,0.38568115234375,-0.57623291015625,-0.67315673828125,-15.1875,-36.75,28.875,-2.18,9.55,0.37,Climbing Up,5
4.08,4.001184247,27,3,3,3,1,-1.86,9.65,0.52,0.32,0.1,0.15,1.5,8.125,-4.4375,0.25732421875,0.38616943359375,-0.5760498046875,-0.67291259765625,-15.1875,-36.75,28.875,-2.18,9.55,0.37,Climbing Up,5
4.09,4.016243329,27,3,3,3,1,-1.89,9.64,0.54,0.3,0.09,0.17,1.4375,7.9375,-4.375,0.257568359375,0.38671875,-0.57586669921875,-0.67266845703125,-15.1875,-36.75,28.875,-2.19,9.55,0.36,Climbing Up,5
4.1,4.016243329,27,3,3,3,1,-1.86,9.66,0.53,0.33,0.11,0.17,1.25,7.25,-4.375,0.2578125,0.38720703125,-0.57562255859375,-0.6724853515625,-14.875,-36.75,28.875,-2.19,9.55,0.36,Climbing Up,5
4.11,4.046193525,27,3,3,3,1,-1.88,9.68,0.38,0.31,0.13,0.02,0.9375,6.8125,-4.3125,0.258056640625,0.3876953125,-0.575439453125,-0.67230224609375,-14.875,-36.75,28.875,-2.19,9.54,0.36,Climbing Up,5
4.12,4.046193525,27,3,3,3,1,-1.86,9.7,0.37,0.33,0.15,0.01,0.5,6.375,-4.375,0.25830078125,0.38812255859375,-0.57525634765625,-0.672119140625,-14.875,-36.75,28.875,-2.2,9.54,0.36,Climbing Up,5
4.13,4.061147179,27,3,3,3,1,-1.8,9.73,0.39,0.39,0.18,0.03,0.875,6.5625,-4.5,0.258544921875,0.3885498046875,-0.5750732421875,-0.67193603515625,-14.875,-36.75,28.875,-2.2,9.54,0.35,Climbing Up,5
4.14,4.061147179,27,3,3,3,1,-1.79,9.72,0.44,0.41,0.17,0.09,1.875,7.25,-4.8125,0.2587890625,0.3890380859375,-0.574951171875,-0.671630859375,-14.875,-36.75,28.875,-2.2,9.54,0.35,Climbing Up,5
4.15,4.075922406,27,3,3,3,1,-1.72,9.7,0.55,0.48,0.15,0.2,2.6875,7.375,-5.1875,0.259033203125,0.38946533203125,-0.57489013671875,-0.67132568359375,-15.1875,-37.1875,29.5625,-2.2,9.54,0.34,Climbing Up,5
4.16,4.075922406,27,3,3,3,1,-1.75,9.76,0.55,0.45,0.21,0.2,2.6875,7.0625,-5.5,0.25933837890625,0.389892578125,-0.57476806640625,-0.67108154296875,-15.1875,-37.1875,29.5625,-2.2,9.54,0.34,Climbing Up,5
4.17,4.106286868,27,3,3,3,1,-1.79,9.81,0.51,0.41,0.26,0.17,1.625,5.875,-5.8125,0.259521484375,0.3902587890625,-0.57464599609375,-0.6708984375,-15.1875,-37.1875,29.5625,-2.21,9.54,0.34,Climbing Up,5
4.18,4.106286868,27,3,3,3,1,-1.84,9.81,0.48,0.36,0.27,0.14,0.0,4.5625,-5.8125,0.25970458984375,0.39056396484375,-0.57440185546875,-0.6708984375,-15.1875,-37.1875,29.5625,-2.21,9.54,0.34,Climbing Up,5
4.19,4.120686811,27,3,3,3,1,-1.86,9.75,0.45,0.35,0.2,0.1,-0.9375,4.4375,-6.375,0.2598876953125,0.390869140625,-0.5740966796875,-0.6708984375,-15.1875,-37.1875,29.5625,-2.21,9.54,0.34,Climbing Up,5
4.2,4.120686811,27,3,3,3,1,-1.89,9.73,0.51,0.32,0.18,0.16,-0.3125,4.75,-6.75,0.25994873046875,0.3912353515625,-0.5738525390625,-0.6708984375,-14.0625,-37.1875,27.25,-2.22,9.54,0.34,Climbing Up,5
4.21,4.135369916,27,3,3,3,1,-1.84,9.7,0.52,0.37,0.15,0.17,0.5,5.1875,-7.25,0.260009765625,0.39166259765625,-0.57354736328125,-0.6708984375,-14.0625,-37.1875,27.25,-2.22,9.54,0.34,Climbing Up,5
4.22,4.135369916,27,3,3,3,1,-1.85,9.65,0.52,0.37,0.1,0.18,0.4375,4.8125,-7.6875,0.26007080078125,0.39208984375,-0.57318115234375,-0.6708984375,-14.0625,-37.1875,27.25,-2.23,9.54,0.34,Climbing Up,5
4.23,4.166023033,27,3,3,3,1,-1.86,9.62,0.47,0.37,0.08,0.12,0.4375,3.9375,-8.25,0.260009765625,0.3924560546875,-0.5728759765625,-0.67095947265625,-14.0625,-37.1875,27.25,-2.24,9.54,0.34,Climbing Up,5
4.24,4.166023033,27,3,3,3,1,-1.84,9.64,0.4,0.4,0.1,0.06,0.75,3.125,-8.75,0.2598876953125,0.39288330078125,-0.5726318359375,-0.67095947265625,-14.0625,-37.1875,27.25,-2.25,9.53,0.34,Climbing Up,5
4.25,4.180443077,27,3,3,3,1,-1.84,9.6,0.41,0.41,0.07,0.06,0.625,2.1875,-9.4375,0.2596435546875,0.39324951171875,-0.57244873046875,-0.6710205078125,-14.5,-37.1875,27.6875,-2.26,9.53,0.34,Climbing Up,5
4.26,4.180443077,27,3,3,3,1,-1.9,9.69,0.44,0.36,0.15,0.09,0.3125,1.5625,-10.0,0.2593994140625,0.39361572265625,-0.5721435546875,-0.671142578125,-14.5,-37.1875,27.6875,-2.27,9.53,0.34,Climbing Up,5
4.27,4.196822878,27,3,3,3,1,-1.95,9.74,0.44,0.33,0.2,0.09,0.75,2.0625,-10.4375,0.25909423828125,0.39404296875,-0.57183837890625,-0.6712646484375,-14.5,-37.1875,27.6875,-2.28,9.53,0.34,Climbing Up,5
4.28,4.196822878,27,3,3,3,1,-2.0,9.79,0.48,0.29,0.27,0.13,1.4375,1.75,-11.0,0.2586669921875,0.39453125,-0.57159423828125,-0.67132568359375,-14.5,-37.1875,27.6875,-2.29,9.52,0.34,Climbing Up,5
4.29,4.226263959,27,3,3,3,1,-2.05,9.83,0.5,0.25,0.3,0.16,1.6875,0.625,-11.375,0.2581787109375,0.39495849609375,-0.57135009765625,-0.6715087890625,-14.5,-37.1875,27.6875,-2.3,9.52,0.34,Climbing Up,5
4.3,4.226263959,27,3,3,3,1,-2.2,9.9,0.57,0.11,0.38,0.23,1.25,-1.0625,-11.6875,0.25750732421875,0.3953857421875,-0.571044921875,-0.6717529296875,-13.0625,-36.75,27.25,-2.32,9.52,0.34,Climbing Up,5
4.31,4.241010297,27,3,3,3,1,-2.3,9.88,0.52,0.03,0.37,0.17,1.0,-2.625,-11.8125,0.2567138671875,0.39581298828125,-0.57073974609375,-0.67205810546875,-13.0625,-36.75,27.25,-2.34,9.51,0.34,Climbing Up,5
4.32,4.241010297,27,3,3,3,1,-2.4,9.86,0.46,-0.04,0.34,0.12,1.0,-4.125,-11.9375,0.2557373046875,0.39617919921875,-0.57049560546875,-0.67242431640625,-13.0625,-36.75,27.25,-2.36,9.51,0.34,Climbing Up,5
4.33,4.256008954,27,3,3,3,1,-2.5,9.85,0.35,-0.12,0.34,0.01,1.6875,-5.3125,-11.9375,0.2547607421875,0.396484375,-0.5703125,-0.67279052734375,-13.0625,-36.75,27.25,-2.38,9.5,0.34,Climbing Up,5
4.34,4.256008954,27,3,3,3,1,-2.72,9.87,0.22,-0.32,0.37,-0.12,2.4375,-5.875,-11.6875,0.253662109375,0.39678955078125,-0.5701904296875,-0.673095703125,-13.0625,-36.75,27.25,-2.4,9.5,0.34,Climbing Up,5
4.35,4.285885948,27,3,3,3,1,-2.86,9.84,0.23,-0.44,0.34,-0.1,3.4375,-6.25,-11.6875,0.2525634765625,0.39703369140625,-0.57012939453125,-0.67340087890625,-12.6875,-37.25,26.5,-2.42,9.49,0.33,Climbing Up,5
4.36,4.285885948,27,3,3,3,1,-3.0,9.79,0.28,-0.56,0.3,-0.04,4.875,-6.5,-11.625,0.25140380859375,0.3973388671875,-0.5701904296875,-0.67364501953125,-12.6875,-37.25,26.5,-2.43,9.49,0.33,Climbing Up,5
4.37,4.300794558,27,3,3,3,1,-3.31,9.41,0.28,-0.85,-0.07,-0.04,6.375,-6.1875,-11.625,0.25018310546875,0.397705078125,-0.57025146484375,-0.673828125,-12.6875,-37.25,26.5,-2.45,9.48,0.32,Climbing Up,5
4.38,4.300794558,27,3,3,3,1,-3.45,9.1,0.25,-0.97,-0.37,-0.06,7.3125,-6.5625,-11.5,0.24896240234375,0.39801025390625,-0.5704345703125,-0.6739501953125,-12.6875,-37.25,26.5,-2.47,9.48,0.31,Climbing Up,5
4.39,4.316085818,27,3,3,3,1,-3.6,8.82,0.19,-1.1,-0.65,-0.1,8.0,-7.5625,-11.4375,0.24761962890625,0.3983154296875,-0.5706787109375,-0.674072265625,-12.6875,-37.25,26.5,-2.49,9.47,0.3,Climbing Up,5
4.4,4.316085818,27,3,3,3,1,-3.71,8.59,0.13,-1.19,-0.88,-0.16,8.5625,-8.5,-12.0,0.2462158203125,0.39862060546875,-0.57098388671875,-0.6741943359375,-11.875,-37.5625,25.6875,-2.51,9.47,0.29,Climbing Up,5
4.41,4.346686282,27,3,3,3,1,-3.99,8.27,-0.06,-1.45,-1.19,-0.34,8.9375,-9.3125,-13.625,0.24462890625,0.39892578125,-0.57122802734375,-0.67431640625,-11.875,-37.5625,25.6875,-2.53,9.46,0.28,Climbing Up,5
4.42,4.346686282,27,3,3,3,1,-4.15,8.26,-0.18,-1.59,-1.2,-0.45,8.5,-9.8125,-15.625,0.242919921875,0.3992919921875,-0.5714111328125,-0.674560546875,-11.875,-37.5625,25.6875,-2.56,9.46,0.27,Climbing Up,5
4.43,4.361726728,27,3,3,3,1,-4.3,8.39,-0.26,-1.71,-1.05,-0.53,7.1875,-10.1875,-16.9375,0.24114990234375,0.39971923828125,-0.5714111328125,-0.6749267578125,-11.875,-37.5625,25.6875,-2.58,9.45,0.26,Climbing Up,5
4.44,4.361726728,27,3,3,3,1,-4.4,8.66,-0.3,-1.78,-0.78,-0.56,5.8125,-10.75,-17.75,0.2393798828125,0.40008544921875,-0.5714111328125,-0.6754150390625,-11.875,-37.5625,25.6875,-2.61,9.44,0.26,Climbing Up,5
4.45,4.376600304,27,3,3,3,1,-4.39,9.17,-0.12,-1.74,-0.26,-0.38,4.9375,-11.0625,-17.625,0.23760986328125,0.400390625,-0.5712890625,-0.6759033203125,-11.5625,-36.5,24.5,-2.64,9.43,0.26,Climbing Up,5
4.46,4.376600304,27,3,3,3,1,-4.3,9.3,0.13,-1.63,-0.13,-0.12,5.3125,-10.25,-17.375,0.23590087890625,0.4007568359375,-0.57122802734375,-0.6763916015625,-11.5625,-36.5,24.5,-2.67,9.43,0.25,Climbing Up,5
4.47,4.405916303,27,3,3,3,1,-4.1,9.34,0.49,-1.4,-0.07,0.24,6.4375,-9.5625,-17.6875,0.234130859375,0.4012451171875,-0.5711669921875,-0.6767578125,-11.5625,-36.5,24.5,-2.7,9.42,0.25,Climbing Up,5
4.48,4.405916303,27,3,3,3,1,-3.92,9.37,0.85,-1.19,-0.04,0.61,7.0625,-9.1875,-17.875,0.23236083984375,0.4017333984375,-0.5711669921875,-0.67706298828125,-11.5625,-36.5,24.5,-2.73,9.41,0.24,Climbing Up,5
4.49,4.421518883,27,3,3,3,1,-3.61,9.21,1.25,-0.85,-0.18,1.01,6.625,-10.5625,-17.3125,0.2305908203125,0.402099609375,-0.5711669921875,-0.677490234375,-11.5625,-36.5,24.5,-2.76,9.4,0.23,Climbing Up,5
4.5,4.421518883,27,3,3,3,1,-3.54,9.09,1.12,-0.75,-0.3,0.88,4.625,-14.0625,-16.5,0.22869873046875,0.40216064453125,-0.57110595703125,-0.67803955078125,-10.875,-37.25,25.25,-2.78,9.39,0.23,Climbing Up,5
4.51,4.436022341,27,3,3,3,1,-3.54,9.0,0.85,-0.73,-0.38,0.61,2.0,-17.8125,-15.8125,0.226806640625,0.4019775390625,-0.571044921875,-0.67889404296875,-10.875,-37.25,25.25,-2.81,9.39,0.24,Climbing Up,5
4.52,4.436022341,27,3,3,3,1,-3.63,8.98,0.61,-0.79,-0.39,0.36,1.1875,-19.1875,-14.9375,0.22491455078125,0.401611328125,-0.5709228515625,-0.6798095703125,-10.875,-37.25,25.25,-2.83,9.38,0.25,Climbing Up,5
4.53,4.466931725,27,3,3,3,1,-3.74,8.97,0.44,-0.88,-0.39,0.19,3.5,-17.1875,-13.9375,0.22308349609375,0.4013671875,-0.57098388671875,-0.6805419921875,-10.875,-37.25,25.25,-2.85,9.37,0.25,Climbing Up,5
4.54,4.466931725,27,3,3,3,1,-3.67,8.98,0.55,-0.79,-0.38,0.3,7.6875,-13.0625,-13.1875,0.22137451171875,0.4013671875,-0.57122802734375,-0.68084716796875,-10.875,-37.25,25.25,-2.87,9.37,0.24,Climbing Up,5
4.55,4.481904991,27,3,3,3,1,-3.66,8.93,0.76,-0.76,-0.42,0.53,11.0,-9.8125,-12.5,0.21978759765625,0.401611328125,-0.5716552734375,-0.680908203125,-10.5,-37.25,24.5,-2.89,9.36,0.23,Climbing Up,5
4.56,4.481904991,27,3,3,3,1,-3.75,8.78,1.06,-0.83,-0.57,0.85,12.5,-8.25,-11.5,0.21820068359375,0.4019775390625,-0.5721435546875,-0.6807861328125,-10.5,-37.25,24.5,-2.91,9.35,0.21,Climbing Up,5
4.57,4.49614429,27,3,3,3,1,-3.8,8.74,1.07,-0.86,-0.6,0.87,12.25,-8.375,-11.0,0.21673583984375,0.4022216796875,-0.5726318359375,-0.6806640625,-10.5,-37.25,24.5,-2.93,9.35,0.2,Climbing Up,5
4.58,4.49614429,27,3,3,3,1,-3.87,8.78,1.03,-0.91,-0.56,0.84,11.625,-9.375,-10.625,0.2152099609375,0.4024658203125,-0.5731201171875,-0.6806640625,-10.5,-37.25,24.5,-2.95,9.34,0.18,Climbing Up,5
4.59,4.526718875,27,3,3,3,1,-3.95,8.76,0.95,-0.98,-0.57,0.78,11.1875,-9.1875,-10.6875,0.21368408203125,0.40264892578125,-0.57354736328125,-0.68060302734375,-10.5,-37.25,24.5,-2.97,9.34,0.17,Climbing Up,5
4.6,4.526718875,27,3,3,3,1,-3.99,8.74,0.92,-1.0,-0.59,0.76,11.625,-7.6875,-10.875,0.21221923828125,0.4029541015625,-0.573974609375,-0.6805419921875,-9.375,-36.5,24.875,-2.98,9.33,0.15,Climbing Up,5
4.61,4.540664065,27,3,3,3,1,-3.99,8.74,0.94,-0.98,-0.58,0.8,12.8125,-5.6875,-11.375,0.2108154296875,0.4034423828125,-0.574462890625,-0.6802978515625,-9.375,-36.5,24.875,-3.0,9.33,0.14,Climbing Up,5
4.62,4.540664065,27,3,3,3,1,-4.01,8.76,1.0,-0.95,-0.55,0.85,14.3125,-3.9375,-12.375,0.20849609375,0.404541015625,-0.573486328125,-0.68121337890625,-9.375,-36.5,24.875,-3.05,9.31,0.14,Climbing Up,5
4.63,4.555926272,27,3,3,3,1,-4.0,8.77,1.01,-0.89,-0.52,0.86,15.4375,-3.375,-13.1875,0.2061767578125,0.4056396484375,-0.572509765625,-0.6820068359375,-9.375,-36.5,24.875,-3.11,9.29,0.15,Climbing Up,5
4.64,4.555926272,27,3,3,3,1,-4.03,8.83,1.08,-0.87,-0.44,0.92,15.375,-4.1875,-13.375,0.20391845703125,0.40667724609375,-0.57159423828125,-0.68292236328125,-9.375,-36.5,24.875,-3.16,9.28,0.15,Climbing Up,5
4.65,4.586380862,27,3,3,3,1,-3.98,8.83,1.04,-0.77,-0.42,0.88,14.75,-5.5,-13.25,0.20159912109375,0.407470703125,-0.5706787109375,-0.683837890625,-9.6875,-36.0,25.6875,-3.2,9.26,0.16,Climbing Up,5
4.66,4.586380862,27,3,3,3,1,-3.9,8.79,1.05,-0.65,-0.45,0.88,14.0,-6.4375,-12.8125,0.19940185546875,0.40814208984375,-0.56982421875,-0.684814453125,-9.6875,-36.0,25.6875,-3.25,9.24,0.17,Climbing Up,5
4.67,4.601846072,27,3,3,3,1,-3.79,8.7,0.9,-0.5,-0.52,0.72,13.5,-6.0625,-12.4375,0.1973876953125,0.4088134765625,-0.56903076171875,-0.6856689453125,-9.6875,-36.0,25.6875,-3.29,9.23,0.17,Climbing Up,5
4.68,4.601846072,27,3,3,3,1,-3.74,8.58,0.83,-0.4,-0.63,0.65,14.1875,-4.25,-12.25,0.1954345703125,0.40948486328125,-0.568359375,-0.68634033203125,-9.6875,-36.0,25.6875,-3.33,9.22,0.18,Climbing Up,5
4.69,4.615845258,27,3,3,3,1,-3.67,8.62,0.89,-0.31,-0.58,0.71,17.3125,-2.875,-11.375,0.193603515625,0.41021728515625,-0.5679931640625,-0.686767578125,-9.6875,-36.0,25.6875,-3.36,9.2,0.17,Climbing Up,5
4.7,4.615845258,27,3,3,3,1,-3.61,8.7,1.04,-0.22,-0.5,0.89,19.625,-2.5625,-10.25,0.192138671875,0.410888671875,-0.56884765625,-0.68603515625,-8.6875,-35.6875,26.0625,-3.38,9.2,0.14,Climbing Up,5
4.71,4.647600304,27,3,3,3,1,-3.67,8.79,1.13,-0.27,-0.4,1.01,19.9375,-3.625,-8.75,0.190673828125,0.41143798828125,-0.56976318359375,-0.68536376953125,-8.6875,-35.6875,26.0625,-3.39,9.19,0.11,Climbing Up,5
4.72,4.647600304,27,3,3,3,1,-3.73,8.81,1.12,-0.32,-0.38,1.03,18.6875,-5.125,-7.0,0.1893310546875,0.41180419921875,-0.5706787109375,-0.68475341796875,-8.6875,-35.6875,26.0625,-3.41,9.19,0.09,Climbing Up,5
4.73,4.661602827,27,3,3,3,1,-3.76,8.7,1.03,-0.33,-0.48,0.93,16.125,-5.8125,-5.6875,0.18792724609375,0.41180419921875,-0.57037353515625,-0.6854248046875,-8.6875,-35.6875,26.0625,-3.43,9.18,0.1,Climbing Up,5
4.74,4.661602827,27,3,3,3,1,-3.81,8.54,0.91,-0.35,-0.63,0.8,15.0,-4.5625,-5.125,0.18658447265625,0.411865234375,-0.5699462890625,-0.68609619140625,-8.6875,-35.6875,26.0625,-3.45,9.17,0.1,Climbing Up,5
4.75,4.675765506,27,3,3,3,1,-3.86,8.41,0.77,-0.38,-0.74,0.66,16.125,-1.875,-5.0,0.18524169921875,0.4122314453125,-0.56964111328125,-0.68646240234375,-8.25,-36.75,26.875,-3.48,9.16,0.1,Climbing Up,5
4.76,4.675765506,27,3,3,3,1,-3.88,8.46,0.69,-0.39,-0.69,0.61,19.3125,1.125,-5.4375,0.18426513671875,0.41290283203125,-0.570556640625,-0.68560791015625,-8.25,-36.75,26.875,-3.48,9.16,0.07,Climbing Up,5
4.77,4.706348066,27,3,3,3,1,-3.93,8.55,0.7,-0.43,-0.6,0.66,21.6875,3.75,-5.875,0.18328857421875,0.41375732421875,-0.57159423828125,-0.6844482421875,-8.25,-36.75,26.875,-3.49,9.16,0.04,Climbing Up,5
4.78,4.706348066,27,3,3,3,1,-3.99,8.61,0.73,-0.48,-0.54,0.73,22.8125,5.0,-6.125,0.182373046875,0.41473388671875,-0.5726318359375,-0.68328857421875,-8.25,-36.75,26.875,-3.5,9.15,0.0,Climbing Up,5
4.79,4.720887006,27,3,3,3,1,-4.17,8.73,0.87,-0.65,-0.41,0.91,23.0,4.875,-5.9375,0.181396484375,0.41571044921875,-0.57366943359375,-0.68206787109375,-8.25,-36.75,26.875,-3.51,9.15,-0.03,Climbing Up,5
4.8,4.720887006,27,3,3,3,1,-4.25,8.67,0.89,-0.72,-0.47,0.97,22.9375,4.0625,-5.4375,0.180419921875,0.41656494140625,-0.57476806640625,-0.68084716796875,-7.875,-36.0,25.6875,-3.52,9.14,-0.07,Climbing Up,5
4.81,4.735432579,27,3,3,3,1,-4.33,8.56,0.88,-0.8,-0.57,0.99,23.0625,3.125,-4.9375,0.179443359375,0.4173583984375,-0.57586669921875,-0.6796875,-7.875,-36.0,25.6875,-3.53,9.14,-0.11,Climbing Up,5
4.82,4.735432579,27,3,3,3,1,-4.33,8.47,0.82,-0.79,-0.66,0.97,23.25,2.625,-4.625,0.178466796875,0.41815185546875,-0.5770263671875,-0.67852783203125,-7.875,-36.0,25.6875,-3.54,9.14,-0.15,Climbing Up,5
4.83,4.766818769,27,3,3,3,1,-4.37,8.47,0.62,-0.82,-0.66,0.81,23.75,2.25,-4.375,0.17742919921875,0.41888427734375,-0.57818603515625,-0.67730712890625,-7.875,-36.0,25.6875,-3.55,9.13,-0.19,Climbing Up,5
4.84,4.766818769,27,3,3,3,1,-4.34,8.54,0.55,-0.78,-0.59,0.78,24.125,2.3125,-4.4375,0.1763916015625,0.41961669921875,-0.57940673828125,-0.67608642578125,-7.875,-36.0,25.6875,-3.55,9.13,-0.23,Climbing Up,5
4.85,4.780689049,27,3,3,3,1,-4.33,8.57,0.51,-0.76,-0.55,0.79,24.8125,2.5,-4.4375,0.17529296875,0.42034912109375,-0.58062744140625,-0.6748046875,-10.0625,-35.375,28.0,-3.56,9.13,-0.27,Climbing Up,5
4.86,4.780689049,27,3,3,3,1,-4.28,8.55,0.54,-0.71,-0.57,0.86,25.1875,2.5625,-4.125,0.17425537109375,0.42108154296875,-0.5819091796875,-0.67352294921875,-10.0625,-35.375,28.0,-3.57,9.12,-0.31,Climbing Up,5
4.87,4.79594914,27,3,3,3,1,-4.25,8.53,0.62,-0.67,-0.58,0.97,25.75,2.125,-3.5625,0.1732177734375,0.42181396484375,-0.583251953125,-0.6722412109375,-10.0625,-35.375,28.0,-3.58,9.12,-0.35,Climbing Up,5
4.88,4.79594914,27,3,3,3,1,-4.22,8.59,0.66,-0.64,-0.52,1.06,26.5,1.125,-2.9375,0.172119140625,0.42242431640625,-0.58465576171875,-0.6708984375,-10.0625,-35.375,28.0,-3.58,9.11,-0.39,Climbing Up,5
4.89,4.82680233,27,3,3,3,1,-4.26,8.62,0.68,-0.65,-0.48,1.08,26.1875,0.4375,-2.0,0.17041015625,0.4229736328125,-0.5845947265625,-0.6710205078125,-10.0625,-35.375,28.0,-3.61,9.1,-0.4,Climbing Up,5
4.9,4.82680233,27,3,3,3,1,-4.35,8.8,0.58,-0.71,-0.29,0.99,24.75,-0.6875,-1.3125,0.1688232421875,0.42340087890625,-0.5845947265625,-0.67120361328125,-9.6875,-35.375,28.875,-3.63,9.09,-0.41,Climbing Up,5
4.91,4.841069868,27,3,3,3,1,-4.41,8.93,0.49,-0.77,-0.16,0.94,22.3125,-2.375,-0.0625,0.1678466796875,0.423583984375,-0.5859375,-0.670166015625,-9.6875,-35.375,28.875,-3.63,9.09,-0.44,Climbing Up,5
4.92,4.841069868,27,3,3,3,1,-4.49,9.12,0.38,-0.85,0.03,0.85,19.5625,-4.5,1.25,0.16693115234375,0.42352294921875,-0.587158203125,-0.6693115234375,-9.6875,-35.375,28.875,-3.63,9.09,-0.47,Climbing Up,5
4.93,4.856335086,27,3,3,3,1,-4.57,9.38,0.27,-0.93,0.29,0.77,16.1875,-6.125,2.3125,0.1661376953125,0.42327880859375,-0.5882568359375,-0.668701171875,-9.6875,-35.375,28.875,-3.63,9.09,-0.49,Climbing Up,5
4.94,4.856335086,27,3,3,3,1,-4.96,9.8,0.25,-1.33,0.71,0.77,13.875,-6.75,3.875,0.16552734375,0.42291259765625,-0.58929443359375,-0.668212890625,-9.6875,-35.375,28.875,-3.62,9.09,-0.51,Climbing Up,5
4.95,4.885937421,27,3,3,3,1,-5.1,9.95,0.3,-1.48,0.85,0.83,13.875,-7.9375,5.6875,0.1649169921875,0.42236328125,-0.59039306640625,-0.667724609375,-9.375,-35.0,30.375,-3.62,9.09,-0.52,Climbing Up,5
4.96,4.885937421,27,3,3,3,1,-5.21,10.06,0.34,-1.59,0.96,0.89,14.0,-9.1875,7.4375,0.164306640625,0.421630859375,-0.59161376953125,-0.667236328125,-9.375,-35.0,30.375,-3.61,9.1,-0.54,Climbing Up,5
4.97,4.917295087,27,3,3,3,1,-5.31,10.32,0.33,-1.71,1.21,0.89,13.125,-9.75,8.9375,0.16387939453125,0.4207763671875,-0.5927734375,-0.66680908203125,-9.375,-35.0,30.375,-3.59,9.1,-0.55,Climbing Up,5
4.98,4.917295087,27,3,3,3,1,-5.49,11.14,0.24,-1.91,2.03,0.81,11.875,-9.75,10.4375,0.16351318359375,0.41986083984375,-0.593994140625,-0.66644287109375,-9.375,-35.0,30.375,-3.58,9.11,-0.57,Climbing Up,5
4.99,4.920630822,27,3,3,3,1,-5.63,11.57,0.23,-2.07,2.46,0.81,10.0625,-9.75,12.125,0.163330078125,0.4188232421875,-0.5950927734375,-0.6661376953125,-9.375,-35.0,30.375,-3.56,9.11,-0.58,Climbing Up,5
5.0,4.920630822,27,3,3,3,1,-5.78,11.96,0.26,-2.24,2.83,0.85,7.625,-9.0,14.6875,0.16339111328125,0.41766357421875,-0.59619140625,-0.6658935546875,-10.0625,-34.1875,31.1875,-3.54,9.12,-0.58,Climbing Up,5
5.01,4.947294681,27,3,3,3,1,-5.87,12.02,0.3,-2.35,2.88,0.89,4.9375,-7.5625,17.75,0.16387939453125,0.4163818359375,-0.59722900390625,-0.66571044921875,-10.0625,-34.1875,31.1875,-3.51,9.13,-0.58,Climbing Up,5
5.02,4.947294681,27,3,3,3,1,-5.82,11.83,0.32,-2.34,2.69,0.91,2.25,-6.375,20.375,0.16461181640625,0.41497802734375,-0.59814453125,-0.66552734375,-10.0625,-34.1875,31.1875,-3.48,9.14,-0.58,Climbing Up,5
5.03,4.960865197,27,3,3,3,1,-5.63,11.81,0.19,-2.18,2.65,0.77,0.0,-6.4375,22.25,0.16552734375,0.4134521484375,-0.5989990234375,-0.66546630859375,-10.0625,-34.1875,31.1875,-3.45,9.16,-0.58,Climbing Up,5
5.04,4.960865197,27,3,3,3,1,-5.44,11.89,-0.05,-2.02,2.71,0.52,-0.9375,-6.9375,24.25,0.1666259765625,0.4117431640625,-0.59991455078125,-0.66546630859375,-10.0625,-34.1875,31.1875,-3.41,9.17,-0.57,Climbing Up,5
5.05,4.977658328,27,3,3,3,1,-5.28,12.26,-0.5,-1.91,3.07,0.06,-0.6875,-6.9375,26.75,0.16778564453125,0.409912109375,-0.60089111328125,-0.66534423828125,-9.6875,-33.75,31.1875,-3.37,9.19,-0.57,Climbing Up,5
5.06,4.977658328,27,3,3,3,1,-5.05,13.28,-1.39,-1.73,4.08,-0.82,0.625,-6.5,29.625,0.16912841796875,0.40802001953125,-0.60205078125,-0.6651611328125,-9.6875,-33.75,31.1875,-3.32,9.2,-0.56,Climbing Up,5
5.07,5.01502637,27,3,3,3,1,-5.21,13.82,-1.7,-1.94,4.59,-1.13,2.6875,-4.875,32.5,0.170654296875,0.40606689453125,-0.6033935546875,-0.66473388671875,-9.6875,-33.75,31.1875,-3.27,9.22,-0.56,Climbing Up,5
5.08,5.01502637,27,3,3,3,1,-5.37,14.33,-1.87,-2.15,5.08,-1.29,4.3125,-0.6875,33.9375,0.17242431640625,0.404296875,-0.6048583984375,-0.6640625,-9.6875,-33.75,31.1875,-3.22,9.24,-0.57,Climbing Up,5
5.09,5.021313317,27,3,3,3,1,-5.5,14.73,-1.8,-2.33,5.46,-1.22,4.4375,5.125,33.75,0.17449951171875,0.40289306640625,-0.606201171875,-0.66314697265625,-9.6875,-33.75,31.1875,-3.16,9.26,-0.58,Climbing Up,5
5.1,5.021313317,27,3,3,3,1,-4.94,14.21,-1.67,-1.83,4.93,-1.08,4.5,12.0625,32.8125,0.17681884765625,0.40191650390625,-0.607421875,-0.6619873046875,-10.875,-33.375,31.1875,-3.11,9.28,-0.59,Climbing Up,5
5.11,5.035681237,27,3,3,3,1,-4.0,13.25,-1.66,-0.94,3.95,-1.05,4.75,18.5,31.5625,0.179443359375,0.4013671875,-0.60845947265625,-0.66064453125,-10.875,-33.375,31.1875,-3.05,9.29,-0.61,Climbing Up,5
5.12,5.035681237,27,3,3,3,1,-4.0,13.25,-1.66,-0.94,3.95,-1.05,4.75,18.5,31.5625,0.179443359375,0.4013671875,-0.60845947265625,-0.66064453125,-10.875,-33.375,31.1875,-3.05,9.29,-0.61,Climbing Up,5
5.12,5.051164594,27,3,3,3,1,-3.21,12.17,-1.85,-0.2,2.86,-1.21,4.125,21.9375,29.6875,0.18218994140625,0.40118408203125,-0.609375,-0.6591796875,-10.875,-33.375,31.1875,-3.0,9.31,-0.63,Climbing Up,5
5.13,5.051164594,27,3,3,3,1,-1.88,10.04,-2.19,1.07,0.72,-1.55,0.375,23.25,28.875,0.18505859375,0.40093994140625,-0.6099853515625,-0.657958984375,-10.875,-33.375,31.1875,-2.96,9.32,-0.64,Climbing Up,5
5.14,5.065641482,27,3,3,3,1,-1.09,9.25,-2.32,1.81,-0.08,-1.67,-4.875,25.125,28.6875,0.18817138671875,0.40081787109375,-0.61029052734375,-0.6568603515625,-10.875,-33.375,31.1875,-2.91,9.34,-0.64,Climbing Up,5
5.15,5.065641482,27,3,3,3,1,-0.34,8.62,-2.49,2.51,-0.73,-1.84,-10.3125,29.875,29.3125,0.19183349609375,0.40081787109375,-0.6102294921875,-0.6558837890625,-13.0625,-33.375,32.6875,-2.86,9.35,-0.64,Climbing Up,5
5.16,5.097211551,27,3,3,3,1,0.15,8.36,-2.61,2.96,-1.01,-1.97,-15.0,36.25,30.75,0.196044921875,0.4010009765625,-0.60980224609375,-0.6549072265625,-13.0625,-33.375,32.6875,-2.8,9.37,-0.64,Climbing Up,5
5.17,5.097211551,27,3,3,3,1,0.53,8.59,-3.08,3.28,-0.8,-2.45,-21.875,44.3125,31.3125,0.200927734375,0.4014892578125,-0.60882568359375,-0.65399169921875,-13.0625,-33.375,32.6875,-2.75,9.39,-0.62,Climbing Up,5
5.18,5.111887902,27,3,3,3,1,0.52,9.28,-3.31,3.21,-0.12,-2.71,-30.0,51.625,33.1875,0.20660400390625,0.40216064453125,-0.60736083984375,-0.6531982421875,-13.0625,-33.375,32.6875,-2.69,9.41,-0.6,Climbing Up,5
5.19,5.111887902,27,3,3,3,1,0.46,10.25,-3.73,3.09,0.82,-3.16,-36.125,55.875,34.375,0.2127685546875,0.40283203125,-0.60546875,-0.65252685546875,-13.0625,-33.375,32.6875,-2.62,9.43,-0.56,Climbing Up,5
5.2,5.14209827,27,3,3,3,2,0.37,10.86,-3.82,2.94,1.41,-3.29,-33.8125,51.5,31.4375,0.21844482421875,0.40350341796875,-0.60369873046875,-0.65191650390625,-15.1875,-32.6875,33.0625,-2.57,9.44,-0.53,Climbing Up,5
5.21,5.14209827,27,3,3,3,2,0.14,10.32,-2.9,2.66,0.86,-2.39,-20.625,41.75,25.75,0.22283935546875,0.40411376953125,-0.60260009765625,-0.65106201171875,-15.1875,-32.6875,33.0625,-2.52,9.46,-0.51,Climbing Up,5
5.22,5.156373091,27,3,3,3,2,-0.02,9.79,-2.26,2.46,0.32,-1.73,-2.1875,33.5,21.0625,0.22589111328125,0.40484619140625,-0.60260009765625,-0.64959716796875,-15.1875,-32.6875,33.0625,-2.48,9.47,-0.53,Climbing Up,5
5.23,5.156373091,27,3,3,3,2,-0.25,9.34,-1.9,2.19,-0.12,-1.33,16.5625,29.625,18.125,0.2279052734375,0.40594482421875,-0.60357666015625,-0.64727783203125,-15.1875,-32.6875,33.0625,-2.45,9.47,-0.57,Climbing Up,5
5.24,5.17052991,27,3,3,3,2,-0.94,8.88,-1.47,1.47,-0.59,-0.84,32.8125,27.125,17.1875,0.2291259765625,0.40716552734375,-0.60552978515625,-0.64422607421875,-15.1875,-32.6875,33.0625,-2.42,9.48,-0.63,Climbing Up,5
5.25,5.17052991,27,3,3,3,2,-1.33,8.87,-1.21,1.06,-0.6,-0.49,43.875,24.1875,16.125,0.229736328125,0.4085693359375,-0.60809326171875,-0.6407470703125,-17.375,-34.875,32.0,-2.39,9.48,-0.71,Climbing Up,5
5.26,5.18597563,27,3,3,3,2,-1.74,9.02,-0.87,0.62,-0.45,-0.06,52.0,21.875,15.5625,0.22991943359375,0.4100341796875,-0.611083984375,-0.6368408203125,-17.375,-34.875,32.0,-2.36,9.48,-0.81,Climbing Up,5
5.27,5.18597563,27,3,3,3,2,-2.46,9.29,-0.02,-0.13,-0.18,0.89,58.6875,24.4375,16.0,0.23004150390625,0.41168212890625,-0.61444091796875,-0.63250732421875,-17.375,-34.875,32.0,-2.33,9.47,-0.92,Climbing Up,5
5.28,5.216274214,27,3,3,3,2,-4.59,10.39,1.41,-2.28,0.91,2.42,42.25,49.4375,12.5625,0.23187255859375,0.41461181640625,-0.6162109375,-0.62823486328125,-17.375,-34.875,32.0,-2.3,9.47,-1.01,Climbing Up,5
5.29,5.216274214,27,3,3,3,2,-3.97,9.99,1.44,-1.68,0.52,2.5,13.0,53.6875,6.0,0.234619140625,0.41748046875,-0.61602783203125,-0.62542724609375,-17.375,-34.875,32.0,-2.28,9.47,-1.05,Climbing Up,5
5.3,5.231878746,27,3,3,3,2,-2.86,9.15,0.97,-0.59,-0.32,2.03,-7.8125,31.1875,3.3125,0.23675537109375,0.4188232421875,-0.6151123046875,-0.6246337890625,-19.1875,-34.5,35.5,-2.27,9.48,-1.05,Climbing Up,5
5.31,5.231878746,27,3,3,3,2,-2.18,8.31,0.3,0.08,-1.16,1.33,-17.75,16.6875,0.0,0.23828125,0.41937255859375,-0.61376953125,-0.625,-19.1875,-34.5,35.5,-2.27,9.48,-1.03,Climbing Up,5
5.32,5.246568525,27,3,3,3,2,-1.56,7.3,-0.94,0.7,-2.18,0.06,-16.3125,12.4375,-2.4375,0.23944091796875,0.41986083984375,-0.612548828125,-0.62548828125,-19.1875,-34.5,35.5,-2.27,9.48,-1.0,Climbing Up,5
5.33,5.246568525,27,3,3,3,2,-1.51,6.84,-1.26,0.75,-2.64,-0.26,-10.75,15.6875,-2.625,0.240478515625,0.42059326171875,-0.61151123046875,-0.62554931640625,-19.1875,-34.5,35.5,-2.27,9.48,-0.99,Climbing Up,5
5.34,5.276812259,27,3,3,3,2,-1.56,6.4,-1.36,0.71,-3.08,-0.37,-5.625,20.25,-3.4375,0.2415771484375,0.4217529296875,-0.61065673828125,-0.62518310546875,-19.1875,-34.5,35.5,-2.27,9.48,-0.99,Climbing Up,5
5.35,5.276812259,27,3,3,3,2,-1.61,5.98,-1.48,0.67,-3.5,-0.47,-1.3125,22.6875,-4.25,0.24261474609375,0.4232177734375,-0.6099853515625,-0.62445068359375,-19.5625,-34.6875,36.25,-2.28,9.48,-1.0,Climbing Up,5
5.36,5.292271284,27,3,3,3,2,-1.61,5.38,-1.4,0.67,-4.09,-0.38,2.75,21.375,-5.125,0.243408203125,0.4246826171875,-0.6094970703125,-0.6236572265625,-19.5625,-34.6875,36.25,-2.28,9.48,-1.01,Climbing Up,5
5.37,5.292271284,27,3,3,3,2,-1.54,5.26,-1.36,0.74,-4.21,-0.33,5.5,19.375,-5.875,0.243896484375,0.42620849609375,-0.609130859375,-0.62274169921875,-19.5625,-34.6875,36.25,-2.29,9.47,-1.03,Climbing Up,5
5.38,5.30568258,27,3,3,3,2,-1.45,5.46,-1.33,0.84,-4.01,-0.28,5.875,18.125,-5.9375,0.24432373046875,0.4276123046875,-0.60882568359375,-0.62188720703125,-19.5625,-34.6875,36.25,-2.29,9.47,-1.05,Climbing Up,5
5.39,5.30568258,27,3,3,3,2,-1.45,5.46,-1.33,0.84,-4.01,-0.28,5.875,18.125,-5.9375,0.24432373046875,0.4276123046875,-0.60882568359375,-0.62188720703125,-19.5625,-34.6875,36.25,-2.29,9.47,-1.05,Climbing Up,5
5.39,5.320561689,27,3,3,3,2,-1.25,5.75,-1.35,1.05,-3.71,-0.29,5.625,15.1875,-4.375,0.24468994140625,0.4288330078125,-0.608642578125,-0.62109375,-19.5625,-34.6875,36.25,-2.3,9.47,-1.06,Climbing Up,5
5.4,5.320561689,27,3,3,3,2,-0.89,6.28,-1.25,1.4,-3.18,-0.17,6.125,8.5,-2.0625,0.2447509765625,0.42950439453125,-0.6087646484375,-0.6204833984375,-20.6875,-34.25,34.6875,-2.3,9.47,-1.07,Climbing Up,5
5.41,5.336284468,27,3,3,3,2,-0.89,6.5,-1.16,1.4,-2.96,-0.07,6.9375,0.9375,0.0625,0.24456787109375,0.4296875,-0.609130859375,-0.6201171875,-20.6875,-34.25,34.6875,-2.3,9.46,-1.09,Climbing Up,5
5.42,5.336284468,27,3,3,3,2,-0.99,6.72,-1.11,1.3,-2.73,-0.01,7.8125,-5.625,2.0,0.24407958984375,0.429443359375,-0.6097412109375,-0.619873046875,-20.6875,-34.25,34.6875,-2.3,9.46,-1.1,Climbing Up,5
5.43,5.366414513,27,3,3,3,2,-1.34,7.04,-0.93,0.95,-2.41,0.17,7.9375,-10.75,2.875,0.24334716796875,0.42889404296875,-0.6104736328125,-0.6197509765625,-20.6875,-34.25,34.6875,-2.29,9.46,-1.11,Climbing Up,5
5.44,5.366414513,27,3,3,3,2,-1.46,7.22,-0.85,0.83,-2.24,0.26,6.625,-12.4375,3.0,0.24261474609375,0.42822265625,-0.61126708984375,-0.61981201171875,-20.6875,-34.25,34.6875,-2.29,9.46,-1.11,Climbing Up,5
5.45,5.381968834,27,3,3,3,2,-1.53,7.4,-0.83,0.75,-2.06,0.28,2.8125,-9.6875,2.375,0.24212646484375,0.4276123046875,-0.6116943359375,-0.6199951171875,-20.1875,-35.5625,33.5,-2.29,9.46,-1.11,Climbing Up,5
5.46,5.381968834,27,3,3,3,2,-1.51,7.67,-0.89,0.77,-1.79,0.21,-0.9375,-6.25,0.9375,0.24188232421875,0.42718505859375,-0.61181640625,-0.6202392578125,-20.1875,-35.5625,33.5,-2.29,9.46,-1.11,Climbing Up,5
5.47,5.395966068,27,3,3,3,2,-1.35,8.2,-1.12,0.94,-1.26,-0.01,-1.8125,-4.0,-0.9375,0.24169921875,0.427001953125,-0.61175537109375,-0.6204833984375,-20.1875,-35.5625,33.5,-2.29,9.46,-1.1,Climbing Up,5
5.48,5.395966068,27,3,3,3,2,-1.3,8.43,-1.21,0.99,-1.02,-0.1,-1.4375,-2.4375,-2.5625,0.241455078125,0.42694091796875,-0.61163330078125,-0.6207275390625,-20.1875,-35.5625,33.5,-2.3,9.46,-1.1,Climbing Up,5
5.49,5.426067833,27,3,3,3,2,-1.24,8.69,-1.29,1.06,-0.77,-0.19,-1.75,-1.0,-3.875,0.24127197265625,0.42706298828125,-0.6114501953125,-0.62091064453125,-20.1875,-35.5625,33.5,-2.3,9.46,-1.1,Climbing Up,5
5.5,5.426067833,27,3,3,3,2,-1.21,9.05,-1.4,1.1,-0.41,-0.3,-2.75,-0.625,-5.125,0.24102783203125,0.42724609375,-0.611083984375,-0.6212158203125,-20.5625,-35.5625,32.6875,-2.31,9.46,-1.09,Climbing Up,5
5.51,5.441720177,27,3,3,3,2,-1.16,10.32,-1.55,1.15,0.86,-0.45,-4.5,-1.4375,-5.8125,0.2408447265625,0.4273681640625,-0.61065673828125,-0.62164306640625,-20.5625,-35.5625,32.6875,-2.32,9.46,-1.09,Climbing Up,5
5.52,5.441720177,27,3,3,3,2,-1.16,11.19,-1.59,1.16,1.73,-0.51,-6.75,-1.25,-6.75,0.24066162109375,0.42755126953125,-0.610107421875,-0.6221923828125,-20.5625,-35.5625,32.6875,-2.33,9.46,-1.07,Climbing Up,5
5.53,5.455877322,27,3,3,3,2,-1.16,12.16,-1.63,1.18,2.7,-0.57,-8.4375,0.0,-8.8125,0.240478515625,0.4278564453125,-0.60931396484375,-0.622802734375,-20.5625,-35.5625,32.6875,-2.35,9.46,-1.06,Climbing Up,5
5.54,5.455877322,27,3,3,3,2,-1.16,13.03,-1.59,1.21,3.57,-0.54,-9.125,0.6875,-11.375,0.240234375,0.42828369140625,-0.60833740234375,-0.62347412109375,-20.5625,-35.5625,32.6875,-2.37,9.45,-1.05,Climbing Up,5
5.55,5.486897545,27,3,3,3,2,-0.99,13.76,-1.09,1.4,4.3,-0.06,-9.9375,0.625,-13.8125,0.23992919921875,0.4288330078125,-0.6072998046875,-0.624267578125,-21.1875,-35.6875,33.5,-2.39,9.45,-1.03,Climbing Up,5
5.56,5.486897545,27,3,3,3,2,-0.99,13.64,-0.76,1.42,4.19,0.24,-11.8125,-0.9375,-15.0625,0.239501953125,0.4293212890625,-0.60614013671875,-0.625244140625,-21.1875,-35.6875,33.5,-2.41,9.44,-1.01,Climbing Up,5
5.57,5.501302168,27,3,3,3,2,-1.24,13.34,-0.47,1.19,3.9,0.51,-15.375,-3.0625,-15.375,0.23907470703125,0.42962646484375,-0.60479736328125,-0.62646484375,-21.1875,-35.6875,33.5,-2.44,9.44,-0.98,Climbing Up,5
5.58,5.501302168,27,3,3,3,2,-1.78,13.06,-0.37,0.68,3.62,0.57,-18.75,-4.5625,-15.5625,0.23870849609375,0.4298095703125,-0.603271484375,-0.62799072265625,-21.1875,-35.6875,33.5,-2.46,9.44,-0.95,Climbing Up,5
5.59,5.516082319,27,3,3,3,2,-1.98,13.04,-0.76,0.51,3.61,0.15,-21.6875,-5.5,-15.5625,0.2384033203125,0.42987060546875,-0.60162353515625,-0.629638671875,-21.1875,-35.6875,33.5,-2.49,9.43,-0.91,Climbing Up,5
5.6,5.516082319,27,3,3,3,2,-1.93,12.87,-0.85,0.59,3.43,0.02,-22.875,-6.4375,-15.6875,0.238037109375,0.42987060546875,-0.59991455078125,-0.63140869140625,-20.5,-35.6875,31.1875,-2.52,9.43,-0.87,Climbing Up,5
5.61,5.546606815,27,3,3,3,2,-2.05,12.82,-1.07,0.49,3.39,-0.23,-21.875,-8.625,-16.0625,0.237548828125,0.42974853515625,-0.5982666015625,-0.6331787109375,-20.5,-35.6875,31.1875,-2.54,9.43,-0.83,Climbing Up,5
5.62,5.546606815,27,3,3,3,2,-2.59,12.98,-1.66,-0.01,3.55,-0.86,-21.0625,-12.5,-16.75,0.23675537109375,0.42950439453125,-0.59674072265625,-0.6351318359375,-20.5,-35.6875,31.1875,-2.57,9.42,-0.79,Climbing Up,5
5.63,5.561069543,27,3,3,3,2,-2.74,13.13,-1.89,-0.13,3.71,-1.14,-21.25,-17.5625,-16.625,0.2357177734375,0.428955078125,-0.5953369140625,-0.63720703125,-20.5,-35.6875,31.1875,-2.6,9.42,-0.75,Climbing Up,5
5.64,5.561069543,27,3,3,3,2,-3.0,13.34,-2.06,-0.37,3.92,-1.35,-21.1875,-22.5625,-15.875,0.2344970703125,0.42803955078125,-0.59405517578125,-0.63946533203125,-20.5,-35.6875,31.1875,-2.63,9.41,-0.7,Climbing Up,5
5.65,5.577056115,27,3,3,3,2,-3.46,13.65,-2.19,-0.8,4.24,-1.52,-18.4375,-27.5,-13.625,0.23297119140625,0.42681884765625,-0.59307861328125,-0.6417236328125,-20.0625,-36.6875,30.0,-2.66,9.41,-0.66,Climbing Up,5
5.66,5.577056115,27,3,3,3,2,-3.46,13.65,-2.19,-0.8,4.24,-1.52,-18.4375,-27.5,-13.625,0.23297119140625,0.42681884765625,-0.59307861328125,-0.6417236328125,-20.0625,-36.6875,30.0,-2.66,9.41,-0.66,Climbing Up,5
5.66,5.59186654,27,3,3,3,2,-4.42,14.65,-2.82,-1.73,5.24,-2.2,-16.0625,-28.875,-11.4375,0.23150634765625,0.42547607421875,-0.59234619140625,-0.64385986328125,-20.0625,-36.6875,30.0,-2.68,9.41,-0.62,Climbing Up,5
5.67,5.59186654,27,3,3,3,2,-4.75,14.57,-3.02,-2.05,5.16,-2.44,-14.5625,-27.625,-9.625,0.23004150390625,0.42413330078125,-0.59173583984375,-0.64581298828125,-20.0625,-36.6875,30.0,-2.7,9.4,-0.58,Climbing Up,5
5.68,5.606718835,27,3,3,3,2,-4.89,13.62,-2.96,-2.18,4.22,-2.4,-14.0,-25.8125,-7.0,0.2288818359375,0.4227294921875,-0.5911865234375,-0.64764404296875,-20.0625,-36.6875,30.0,-2.71,9.4,-0.55,Climbing Up,5
5.69,5.606718835,27,3,3,3,2,-4.82,11.8,-2.45,-2.1,2.39,-1.94,-15.125,-24.8125,-3.375,0.22796630859375,0.42120361328125,-0.5906982421875,-0.64935302734375,-20.0625,-36.6875,30.0,-2.72,9.4,-0.51,Climbing Up,5
5.7,5.636186282,27,3,3,3,2,-4.18,9.05,-1.92,-1.45,-0.35,-1.44,-15.0,-21.75,-1.9375,0.227294921875,0.41973876953125,-0.59027099609375,-0.65093994140625,-19.0,-37.0625,28.0,-2.72,9.4,-0.48,Climbing Up,5
5.71,5.636186282,27,3,3,3,2,-3.89,8.24,-2.02,-1.16,-1.16,-1.57,-11.75,-18.0625,-1.5,0.2266845703125,0.4185791015625,-0.58990478515625,-0.6522216796875,-19.0,-37.0625,28.0,-2.73,9.4,-0.45,Climbing Up,5
5.72,5.651168623,27,3,3,3,2,-3.71,7.72,-2.12,-0.97,-1.68,-1.68,-6.875,-18.4375,-1.75,0.22589111328125,0.41748046875,-0.58984375,-0.6533203125,-19.0,-37.0625,28.0,-2.73,9.4,-0.43,Climbing Up,5
5.73,5.651168623,27,3,3,3,2,-3.82,7.44,-2.28,-1.08,-1.95,-1.86,-3.5,-22.9375,-1.1875,0.22479248046875,0.4161376953125,-0.59002685546875,-0.654296875,-19.0,-37.0625,28.0,-2.73,9.4,-0.41,Climbing Up,5
5.74,5.66589193,27,3,3,3,2,-4.89,6.95,-2.32,-2.15,-2.45,-1.92,0.0625,-31.8125,0.5,0.22314453125,0.414306640625,-0.5906982421875,-0.65545654296875,-19.0,-37.0625,28.0,-2.74,9.4,-0.4,Climbing Up,5
5.75,5.66589193,27,3,3,3,2,-5.51,6.99,-2.21,-2.77,-2.41,-1.82,4.8125,-41.6875,1.9375,0.220947265625,0.41192626953125,-0.59185791015625,-0.65667724609375,-17.875,-38.5,26.5,-2.74,9.4,-0.39,Climbing Up,5
5.76,5.697460005,27,3,3,3,2,-6.01,7.26,-2.06,-3.26,-2.14,-1.67,9.6875,-47.5625,0.6875,0.21820068359375,0.40936279296875,-0.5933837890625,-0.6578369140625,-17.875,-38.5,26.5,-2.74,9.4,-0.38,Climbing Up,5
5.77,5.697460005,27,3,3,3,2,-5.68,8.01,-1.95,-2.93,-1.38,-1.56,12.6875,-44.5625,-0.25,0.21539306640625,0.40704345703125,-0.594970703125,-0.65875244140625,-17.875,-38.5,26.5,-2.74,9.4,-0.38,Climbing Up,5
5.78,5.710896406,27,3,3,3,2,-4.86,8.09,-1.47,-2.11,-1.3,-1.08,14.25,-37.0625,-1.6875,0.212890625,0.4052734375,-0.596435546875,-0.65936279296875,-17.875,-38.5,26.5,-2.75,9.4,-0.39,Climbing Up,5
5.79,5.710896406,27,3,3,3,2,-4.22,7.86,-0.81,-1.47,-1.53,-0.4,18.5625,-27.1875,-3.5625,0.2105712890625,0.404296875,-0.59783935546875,-0.65936279296875,-17.875,-38.5,26.5,-2.75,9.4,-0.4,Climbing Up,5
5.8,5.725842492,27,3,3,3,2,-3.73,7.71,-0.15,-0.96,-1.68,0.28,24.5,-18.75,-6.4375,0.2083740234375,0.40399169921875,-0.59942626953125,-0.65887451171875,-16.875,-38.875,26.5,-2.77,9.39,-0.44,Climbing Up,5
5.81,5.725842492,27,3,3,3,2,-2.93,7.86,0.87,-0.14,-1.52,1.35,24.9375,-14.0625,-9.625,0.2061767578125,0.4041748046875,-0.60076904296875,-0.658203125,-16.875,-38.875,26.5,-2.78,9.38,-0.47,Climbing Up,5
5.82,5.756279341,27,3,3,3,2,-2.75,7.95,1.19,0.05,-1.43,1.69,17.4375,-18.9375,-12.875,0.20379638671875,0.404052734375,-0.6016845703125,-0.658203125,-16.875,-38.875,26.5,-2.81,9.38,-0.49,Climbing Up,5
5.83,5.756279341,27,3,3,3,2,-2.66,7.77,1.06,0.16,-1.6,1.56,10.1875,-32.625,-14.9375,0.20086669921875,0.40313720703125,-0.602294921875,-0.6590576171875,-16.875,-38.875,26.5,-2.83,9.37,-0.49,Climbing Up,5
5.84,5.771092736,27,3,3,3,2,-2.65,7.38,0.64,0.21,-1.98,1.13,7.5,-44.9375,-15.75,0.19732666015625,0.40155029296875,-0.60296630859375,-0.6605224609375,-16.875,-38.875,26.5,-2.86,9.36,-0.48,Climbing Up,5
5.85,5.771092736,27,3,3,3,3,-2.32,6.63,-0.36,0.57,-2.71,0.1,5.75,-49.125,-16.125,0.193603515625,0.399658203125,-0.60357666015625,-0.66217041015625,-16.875,-39.875,28.0,-2.89,9.35,-0.47,Climbing Up,5
5.86,5.786189578,27,3,3,3,3,-1.95,6.39,-0.66,0.97,-2.95,-0.21,5.25,-47.1875,-15.25,0.19000244140625,0.3978271484375,-0.6041259765625,-0.66375732421875,-16.875,-39.875,28.0,-2.92,9.34,-0.45,Climbing Up,5
5.87,5.786189578,27,3,3,3,3,-1.52,6.05,-0.9,1.42,-3.28,-0.45,6.6875,-41.6875,-12.1875,0.1868896484375,0.39617919921875,-0.60479736328125,-0.6650390625,-16.875,-39.875,28.0,-2.95,9.34,-0.44,Climbing Up,5
5.88,5.816731855,27,3,3,3,3,-1.13,5.8,-1.04,1.83,-3.53,-0.6,10.5,-37.3125,-7.625,0.18408203125,0.39459228515625,-0.60577392578125,-0.6658935546875,-16.875,-39.875,28.0,-2.96,9.33,-0.44,Climbing Up,5
5.89,5.816731855,27,3,3,3,3,-0.48,5.4,-1.05,2.48,-3.93,-0.6,14.6875,-33.375,-2.625,0.181640625,0.39306640625,-0.6070556640625,-0.66632080078125,-16.875,-39.875,28.0,-2.97,9.33,-0.45,Climbing Up,5
5.9,5.831811852,27,3,3,3,3,-0.33,5.25,-1.02,2.63,-4.07,-0.56,19.0,-29.8125,2.75,0.1795654296875,0.3914794921875,-0.6087646484375,-0.666259765625,-15.6875,-40.1875,28.0,-2.97,9.33,-0.46,Climbing Up,5
5.91,5.831811852,27,3,3,3,3,-0.26,5.16,-0.85,2.69,-4.16,-0.36,22.3125,-27.0625,7.1875,0.17779541015625,0.389892578125,-0.6107177734375,-0.6658935546875,-15.6875,-40.1875,28.0,-2.96,9.33,-0.49,Climbing Up,5
5.92,5.845758467,27,3,3,3,3,-0.21,4.98,-0.63,2.73,-4.35,-0.11,24.875,-22.6875,10.375,0.17633056640625,0.388427734375,-0.61285400390625,-0.6651611328125,-15.6875,-40.1875,28.0,-2.94,9.33,-0.51,Climbing Up,5
5.93,5.845758467,27,3,3,3,3,-0.48,4.87,-0.34,2.44,-4.46,0.21,26.25,-17.3125,13.6875,0.17529296875,0.3870849609375,-0.61517333984375,-0.66412353515625,-15.6875,-40.1875,28.0,-2.92,9.34,-0.55,Climbing Up,5
5.94,5.876382002,27,3,3,3,3,-0.95,5.1,-0.23,1.94,-4.24,0.35,25.4375,-15.8125,15.75,0.17449951171875,0.3857421875,-0.61737060546875,-0.66302490234375,-15.6875,-40.1875,28.0,-2.9,9.34,-0.58,Climbing Up,5
5.95,5.876382002,27,3,3,3,3,-0.95,5.1,-0.23,1.94,-4.24,0.35,25.4375,-15.8125,15.75,0.17449951171875,0.3857421875,-0.61737060546875,-0.66302490234375,-15.6875,-40.1875,28.0,-2.9,9.34,-0.58,Climbing Up,5
5.95,5.879485233,27,3,3,3,3,-1.39,5.6,-0.15,1.48,-3.74,0.45,20.0625,-17.75,16.3125,0.17376708984375,0.38409423828125,-0.619384765625,-0.66229248046875,-15.375,-40.5625,29.5625,-2.87,9.35,-0.61,Climbing Up,5
5.96,5.879485233,27,3,3,3,3,-2.27,6.8,-0.07,0.58,-2.56,0.54,10.3125,-19.125,16.4375,0.17333984375,0.38226318359375,-0.620849609375,-0.662109375,-15.375,-40.5625,29.5625,-2.85,9.36,-0.61,Climbing Up,5
5.97,5.905619632,27,3,3,3,3,-2.61,7.38,-0.01,0.21,-1.98,0.59,1.0,-21.375,14.25,0.1729736328125,0.38031005859375,-0.6217041015625,-0.66253662109375,-15.375,-40.5625,29.5625,-2.83,9.36,-0.61,Climbing Up,5
5.98,5.905619632,27,3,3,3,3,-2.88,7.95,0.0,-0.07,-1.41,0.59,-4.5,-22.5625,11.0625,0.17254638671875,0.37835693359375,-0.62213134765625,-0.663330078125,-15.375,-40.5625,29.5625,-2.81,9.37,-0.59,Climbing Up,5
5.99,5.920409386,27,3,3,3,3,-3.07,8.5,-0.05,-0.26,-0.87,0.52,-6.4375,-20.875,7.3125,0.17205810546875,0.37664794921875,-0.622314453125,-0.66424560546875,-15.375,-40.5625,29.5625,-2.8,9.37,-0.57,Climbing Up,5
6.0,5.920409386,27,3,3,3,3,-3.28,9.78,-0.34,-0.48,0.4,0.2,-5.625,-17.4375,3.1875,0.17144775390625,0.3753662109375,-0.62237548828125,-0.66510009765625,-15.6875,-39.1875,30.75,-2.8,9.38,-0.55,Climbing Up,5
6.01,5.951662398,27,3,3,3,3,-3.36,10.55,-0.4,-0.56,1.16,0.14,-3.5,-15.125,0.0,0.1707763671875,0.37445068359375,-0.6224365234375,-0.665771484375,-15.6875,-39.1875,30.75,-2.8,9.38,-0.54,Climbing Up,5
6.02,5.951662398,27,3,3,3,3,-3.52,11.41,-0.37,-0.71,2.03,0.15,-2.0,-14.5625,-1.3125,0.169921875,0.3736572265625,-0.62249755859375,-0.6663818359375,-15.6875,-39.1875,30.75,-2.8,9.38,-0.53,Climbing Up,5
6.03,5.966000288,27,3,3,3,3,-3.69,12.33,-0.22,-0.88,2.95,0.29,-0.875,-13.875,-1.75,0.16912841796875,0.3729248046875,-0.62255859375,-0.6668701171875,-15.6875,-39.1875,30.75,-2.81,9.38,-0.52,Climbing Up,5
6.04,5.966000288,27,3,3,3,3,-4.33,13.54,-0.01,-1.52,4.16,0.5,2.875,-9.6875,-0.5625,0.16845703125,0.3724365234375,-0.62286376953125,-0.66705322265625,-15.6875,-39.1875,30.75,-2.81,9.37,-0.52,Climbing Up,5
6.05,5.981300134,27,3,3,3,3,-4.73,13.58,0.11,-1.92,4.2,0.64,10.0625,-5.875,2.4375,0.16796875,0.37213134765625,-0.6236572265625,-0.6666259765625,-16.0625,-39.1875,29.1875,-2.81,9.37,-0.53,Climbing Up,5
6.06,5.981300134,27,3,3,3,3,-5.21,13.34,0.31,-2.41,3.96,0.87,13.8125,-2.75,5.5,0.16766357421875,0.37188720703125,-0.62469482421875,-0.6658935546875,-16.0625,-39.1875,29.1875,-2.8,9.38,-0.55,Climbing Up,5
6.07,5.997594689,27,3,3,3,3,-5.51,13.23,0.4,-2.72,3.84,0.98,10.375,-0.1875,7.625,0.167724609375,0.37158203125,-0.62554931640625,-0.66522216796875,-16.0625,-39.1875,29.1875,-2.79,9.38,-0.57,Climbing Up,5
6.08,5.997594689,27,3,3,3,3,-5.53,13.17,0.34,-2.76,3.78,0.92,3.5625,1.4375,9.5625,0.16827392578125,0.3712158203125,-0.62603759765625,-0.664794921875,-16.0625,-39.1875,29.1875,-2.77,9.38,-0.58,Climbing Up,5
6.09,6.026928918,27,3,3,3,3,-5.54,12.94,0.31,-2.78,3.55,0.89,-1.625,2.25,11.1875,0.1690673828125,0.3707275390625,-0.62628173828125,-0.6646728515625,-16.0625,-39.1875,29.1875,-2.75,9.39,-0.58,Climbing Up,5
6.1,6.026928918,27,3,3,3,3,-5.5,12.76,0.23,-2.77,3.36,0.81,-3.875,3.3125,11.875,0.17010498046875,0.3702392578125,-0.6263427734375,-0.66461181640625,-16.5,-38.375,29.5625,-2.73,9.39,-0.57,Climbing Up,5
6.11,6.041605106,27,3,3,3,3,-5.23,12.7,0.12,-2.51,3.29,0.69,-3.0,5.25,12.5625,0.17120361328125,0.36981201171875,-0.62652587890625,-0.6644287109375,-16.5,-38.375,29.5625,-2.71,9.4,-0.57,Climbing Up,5
6.12,6.041605106,27,3,3,3,3,-5.03,12.81,0.06,-2.34,3.4,0.64,0.0,9.375,13.8125,0.1724853515625,0.36956787109375,-0.6268310546875,-0.66387939453125,-16.5,-38.375,29.5625,-2.69,9.41,-0.57,Climbing Up,5
6.13,6.056333988,27,3,3,3,3,-4.79,12.91,0.05,-2.12,3.49,0.64,2.25,14.6875,14.6875,0.174072265625,0.36968994140625,-0.627197265625,-0.6630859375,-16.5,-38.375,29.5625,-2.66,9.41,-0.58,Climbing Up,5
6.14,6.056333988,27,3,3,3,3,-4.58,12.93,0.08,-1.94,3.51,0.68,1.5625,18.8125,15.1875,0.1759033203125,0.3699951171875,-0.62750244140625,-0.66217041015625,-16.5,-38.375,29.5625,-2.63,9.42,-0.6,Climbing Up,5
6.15,6.086409549,27,3,3,3,3,-4.07,12.98,-0.23,-1.45,3.54,0.37,-2.4375,21.4375,15.5625,0.17803955078125,0.370361328125,-0.62750244140625,-0.661376953125,-16.0625,-39.5,27.875,-2.61,9.43,-0.6,Climbing Up,5
6.16,6.086409549,27,3,3,3,3,-3.66,12.89,-0.63,-1.08,3.45,-0.03,-9.375,22.6875,16.3125,0.1805419921875,0.37060546875,-0.62713623046875,-0.660888671875,-16.0625,-39.5,27.875,-2.58,9.44,-0.6,Climbing Up,5
6.17,6.101185713,27,3,3,3,3,-3.31,12.65,-1.08,-0.76,3.2,-0.49,-18.125,22.75,18.0,0.18341064453125,0.37066650390625,-0.62628173828125,-0.66082763671875,-16.0625,-39.5,27.875,-2.55,9.45,-0.58,Climbing Up,5
6.18,6.101185713,27,3,3,3,3,-2.98,12.32,-1.42,-0.47,2.85,-0.87,-23.0,23.8125,20.0,0.18658447265625,0.37060546875,-0.625244140625,-0.6610107421875,-16.0625,-39.5,27.875,-2.51,9.46,-0.55,Climbing Up,5
6.19,6.115710086,27,3,3,3,3,-2.38,11.37,-2.03,0.09,1.9,-1.5,-20.6875,27.625,21.125,0.19000244140625,0.37066650390625,-0.624267578125,-0.660888671875,-16.0625,-39.5,27.875,-2.47,9.47,-0.53,Climbing Up,5
6.2,6.115710086,27,3,3,3,3,-1.99,10.83,-2.26,0.44,1.34,-1.74,-14.5,32.8125,20.375,0.19342041015625,0.3712158203125,-0.62353515625,-0.6602783203125,-17.1875,-39.0625,29.875,-2.44,9.48,-0.52,Climbing Up,5
6.21,6.132285078,27,3,3,3,3,-1.99,10.83,-2.26,0.44,1.34,-1.74,-14.5,32.8125,20.375,0.19342041015625,0.3712158203125,-0.62353515625,-0.6602783203125,-17.1875,-39.0625,29.875,-2.44,9.48,-0.52,Climbing Up,5
6.21,6.132285078,27,3,3,3,3,-1.59,10.16,-2.36,0.81,0.67,-1.84,-9.875,39.625,17.25,0.19683837890625,0.3724365234375,-0.62286376953125,-0.65924072265625,-17.1875,-39.0625,29.875,-2.41,9.49,-0.52,Climbing Up,5
6.22,6.147298343,27,3,3,3,3,-1.29,9.62,-2.47,1.08,0.12,-1.94,-8.0,45.375,13.75,0.20037841796875,0.3741455078125,-0.6220703125,-0.657958984375,-17.1875,-39.0625,29.875,-2.38,9.49,-0.52,Climbing Up,5
6.23,6.147298343,27,3,3,3,3,-0.81,9.01,-2.64,1.54,-0.49,-2.11,-8.0,48.3125,11.5625,0.20391845703125,0.37615966796875,-0.62109375,-0.6566162109375,-17.1875,-39.0625,29.875,-2.36,9.5,-0.53,Climbing Up,5
6.24,6.176912072,27,3,3,3,3,-0.45,8.76,-2.73,1.88,-0.74,-2.19,-11.125,49.4375,10.0625,0.20751953125,0.37823486328125,-0.61993408203125,-0.6553955078125,-17.1875,-39.0625,29.875,-2.33,9.5,-0.53,Climbing Up,5
6.25,6.176912072,27,3,3,3,3,-0.06,8.6,-2.75,2.25,-0.9,-2.22,-18.75,50.3125,8.6875,0.21136474609375,0.38031005859375,-0.61822509765625,-0.65460205078125,-17.875,-40.0625,27.875,-2.32,9.51,-0.52,Climbing Up,5
6.26,6.191535241,27,3,3,3,3,0.41,8.69,-2.76,2.71,-0.82,-2.26,-29.6875,51.6875,8.4375,0.215576171875,0.38226318359375,-0.6158447265625,-0.654296875,-17.875,-40.0625,27.875,-2.3,9.51,-0.49,Climbing Up,5
6.27,6.191535241,27,3,3,3,3,0.98,9.31,-2.6,3.27,-0.21,-2.14,-37.5625,53.125,8.9375,0.22021484375,0.38409423828125,-0.61297607421875,-0.65435791015625,-17.875,-40.0625,27.875,-2.28,9.52,-0.45,Climbing Up,5
6.28,6.206939294,27,3,3,3,3,1.02,9.6,-2.48,3.28,0.06,-2.06,-37.75,55.3125,10.125,0.22503662109375,0.385986328125,-0.610107421875,-0.654296875,-17.875,-40.0625,27.875,-2.26,9.53,-0.41,Climbing Up,5
6.29,6.206939294,27,3,3,3,3,0.87,9.7,-2.41,3.11,0.16,-2.02,-29.25,55.5625,9.375,0.2294921875,0.38812255859375,-0.607666015625,-0.65380859375,-17.875,-40.0625,27.875,-2.24,9.53,-0.38,Climbing Up,5
6.3,6.25108765,27,3,3,3,3,0.01,9.02,-2.01,2.23,-0.51,-1.62,-14.3125,51.625,7.125,0.23309326171875,0.390380859375,-0.6060791015625,-0.65264892578125,-20.5,-41.25,25.5625,-2.22,9.54,-0.38,Climbing Up,5
6.31,6.25108765,27,3,3,3,3,-0.55,8.6,-1.74,1.66,-0.94,-1.33,3.9375,45.75,5.3125,0.2357177734375,0.39276123046875,-0.60552978515625,-0.6507568359375,-20.5,-41.25,25.5625,-2.21,9.54,-0.41,Climbing Up,5
6.32,6.256691206,27,3,3,3,3,-1.28,8.11,-1.46,0.91,-1.43,-0.99,23.1875,39.375,4.75,0.23724365234375,0.395263671875,-0.60626220703125,-0.6480712890625,-20.5,-41.25,25.5625,-2.2,9.54,-0.46,Climbing Up,5
6.33,6.256691206,27,3,3,3,3,-2.0,7.6,-1.13,0.18,-1.94,-0.58,40.5625,35.625,5.3125,0.238037109375,0.3978271484375,-0.60797119140625,-0.64453125,-20.5,-41.25,25.5625,-2.19,9.54,-0.54,Climbing Up,5
6.34,6.267055505,27,3,3,3,3,-2.37,7.11,-0.68,-0.2,-2.42,-0.03,54.0625,36.1875,6.5,0.23846435546875,0.400634765625,-0.61053466796875,-0.6402587890625,-20.5,-41.25,25.5625,-2.17,9.54,-0.65,Climbing Up,5
6.35,6.267055505,27,3,3,3,3,-2.56,6.97,0.03,-0.41,-2.55,0.8,62.0,38.5,7.9375,0.23876953125,0.40362548828125,-0.61346435546875,-0.6353759765625,-20.6875,-42.375,23.5625,-2.15,9.53,-0.76,Climbing Up,5
6.36,6.297832401,27,3,3,3,3,-2.92,7.34,1.14,-0.78,-2.18,2.01,52.875,50.4375,8.25,0.24005126953125,0.4071044921875,-0.61566162109375,-0.630615234375,-20.6875,-42.375,23.5625,-2.13,9.53,-0.87,Climbing Up,5
6.37,6.297832401,27,3,3,3,3,-2.77,7.81,1.06,-0.65,-1.71,2.0,21.0,64.5,4.5625,0.2430419921875,0.41082763671875,-0.6156005859375,-0.62701416015625,-20.6875,-42.375,23.5625,-2.11,9.52,-0.93,Climbing Up,5
6.38,6.311956791,27,3,3,3,3,-1.83,7.51,1.28,0.27,-2.01,2.24,-1.5,47.0,2.5,0.24578857421875,0.4132080078125,-0.6146240234375,-0.6253662109375,-20.6875,-42.375,23.5625,-2.1,9.53,-0.95,Climbing Up,5
6.39,6.311956791,27,3,3,3,3,-1.69,6.82,0.73,0.4,-2.7,1.67,-10.9375,28.25,1.125,0.24774169921875,0.41448974609375,-0.61346435546875,-0.6248779296875,-20.6875,-42.375,23.5625,-2.09,9.53,-0.94,Climbing Up,5
6.4,6.326825524,27,3,3,3,3,-1.63,6.25,0.05,0.46,-3.28,0.98,-12.5625,19.375,-2.1875,0.24908447265625,0.41534423828125,-0.6123046875,-0.6248779296875,-21.0625,-41.6875,25.5625,-2.09,9.53,-0.93,Climbing Up,5
6.41,6.326825524,27,3,3,3,3,-1.47,5.92,-0.58,0.62,-3.6,0.33,-12.0625,17.0,-4.6875,0.25018310546875,0.416259765625,-0.611083984375,-0.625,-21.0625,-41.6875,25.5625,-2.1,9.53,-0.91,Climbing Up,5
6.42,6.356583378,27,3,3,3,3,-1.32,5.53,-1.21,0.78,-4.0,-0.31,-13.1875,17.5625,-5.3125,0.2513427734375,0.417236328125,-0.60980224609375,-0.62518310546875,-21.0625,-41.6875,25.5625,-2.11,9.53,-0.9,Climbing Up,5
6.43,6.356583378,27,3,3,3,3,-1.41,5.38,-1.19,0.69,-4.14,-0.3,-14.6875,17.0625,-6.0625,0.25244140625,0.41815185546875,-0.6083984375,-0.62548828125,-21.0625,-41.6875,25.5625,-2.11,9.53,-0.88,Climbing Up,5
6.44,6.37260417,27,3,3,3,3,-1.37,5.35,-1.23,0.75,-4.18,-0.37,-16.0,18.4375,-7.375,0.25360107421875,0.419189453125,-0.60687255859375,-0.62579345703125,-21.0625,-41.6875,25.5625,-2.12,9.53,-0.86,Climbing Up,5
6.45,6.37260417,27,3,3,3,3,-1.23,5.42,-1.3,0.9,-4.1,-0.45,-16.0,19.875,-8.25,0.25482177734375,0.42041015625,-0.60528564453125,-0.6260986328125,-20.0,-42.6875,23.25,-2.13,9.53,-0.84,Climbing Up,5
6.46,6.386597334,27,3,3,3,3,-1.1,5.56,-1.4,1.04,-3.97,-0.57,-14.9375,20.0625,-9.3125,0.25592041015625,0.421630859375,-0.60369873046875,-0.6263427734375,-20.0,-42.6875,23.25,-2.15,9.53,-0.82,Climbing Up,5
6.47,6.386597334,27,3,3,3,3,-1.07,5.68,-1.45,1.08,-3.84,-0.64,-12.3125,18.6875,-10.0,0.25677490234375,0.42291259765625,-0.60223388671875,-0.62652587890625,-20.0,-42.6875,23.25,-2.16,9.53,-0.81,Climbing Up,5
6.48,6.402056929,27,3,3,3,3,-1.12,5.87,-1.5,1.05,-3.65,-0.69,-8.625,15.75,-9.375,0.2574462890625,0.424072265625,-0.60107421875,-0.6265869140625,-20.0,-42.6875,23.25,-2.17,9.52,-0.8,Climbing Up,5
6.49,6.402056929,27,3,3,3,3,-1.12,5.87,-1.5,1.05,-3.65,-0.69,-8.625,15.75,-9.375,0.2574462890625,0.424072265625,-0.60107421875,-0.6265869140625,-20.0,-42.6875,23.25,-2.17,9.52,-0.8,Climbing Up,5
6.49,6.416203169,27,3,3,3,3,-1.23,6.46,-1.49,0.95,-3.06,-0.68,-3.6875,11.375,-7.9375,0.2576904296875,0.425048828125,-0.600341796875,-0.62652587890625,-20.0,-42.6875,23.25,-2.18,9.52,-0.8,Climbing Up,5
6.5,6.416203169,27,3,3,3,3,-1.37,6.86,-1.43,0.82,-2.65,-0.61,1.5625,7.0625,-5.6875,0.2576904296875,0.42578125,-0.60003662109375,-0.62628173828125,-19.25,-43.0625,21.6875,-2.19,9.52,-0.81,Climbing Up,5
6.51,6.446961389,27,3,3,3,3,-1.6,7.32,-1.31,0.59,-2.19,-0.49,7.8125,2.9375,-3.9375,0.25738525390625,0.42633056640625,-0.60028076171875,-0.6258544921875,-19.25,-43.0625,21.6875,-2.2,9.52,-0.82,Climbing Up,5
6.52,6.446961389,27,3,3,3,3,-1.83,7.82,-1.24,0.37,-1.69,-0.39,15.4375,0.1875,-2.625,0.25665283203125,0.42681884765625,-0.60101318359375,-0.62506103515625,-19.25,-43.0625,21.6875,-2.2,9.51,-0.85,Climbing Up,5
6.53,6.461441247,27,3,3,3,3,-2.17,8.96,-0.69,0.03,-0.54,0.19,24.125,-1.375,-1.75,0.25555419921875,0.4273681640625,-0.602294921875,-0.6239013671875,-19.25,-43.0625,21.6875,-2.21,9.51,-0.89,Climbing Up,5
6.54,6.461441247,27,3,3,3,3,-2.19,9.69,0.02,0.01,0.18,0.95,27.9375,3.1875,-1.5625,0.254638671875,0.42828369140625,-0.60369873046875,-0.622314453125,-19.25,-43.0625,21.6875,-2.21,9.5,-0.93,Climbing Up,5
6.55,6.477017907,27,3,3,3,3,-2.09,10.66,0.31,0.12,1.15,1.28,16.3125,15.8125,-3.4375,0.254638671875,0.4296875,-0.6041259765625,-0.62091064453125,-19.375,-42.0,21.25,-2.21,9.5,-0.97,Climbing Up,5
6.56,6.477017907,27,3,3,3,3,-2.0,11.77,0.77,0.21,2.27,1.75,1.0625,11.9375,-5.25,0.25494384765625,0.43060302734375,-0.603759765625,-0.62054443359375,-19.375,-42.0,21.25,-2.22,9.5,-0.97,Climbing Up,5
6.57,6.507248946,27,3,3,3,3,-1.84,13.26,0.46,0.39,3.75,1.41,-13.75,1.5,-7.0,0.25518798828125,0.4307861328125,-0.60272216796875,-0.621337890625,-19.375,-42.0,21.25,-2.23,9.5,-0.95,Climbing Up,5
6.58,6.507248946,27,3,3,3,3,-1.77,13.55,-0.07,0.47,4.05,0.84,-24.0,-5.5625,-10.4375,0.25518798828125,0.43048095703125,-0.60113525390625,-0.623046875,-19.375,-42.0,21.25,-2.25,9.5,-0.91,Climbing Up,5
6.59,6.520797489,27,3,3,3,3,-1.7,13.68,-0.55,0.56,4.18,0.31,-26.5,-6.6875,-13.0625,0.255126953125,0.43017578125,-0.599365234375,-0.625,-19.375,-42.0,21.25,-2.27,9.49,-0.86,Climbing Up,5
6.6,6.520797489,27,3,3,3,3,-1.66,13.72,-0.93,0.63,4.23,-0.1,-23.875,-2.3125,-14.0625,0.25518798828125,0.4302978515625,-0.59759521484375,-0.6265869140625,-20.0625,-42.0,20.0625,-2.29,9.49,-0.82,Climbing Up,5
6.61,6.537196944,27,3,3,3,3,-1.6,13.78,-1.27,0.71,4.29,-0.47,-18.5,4.75,-14.3125,0.25531005859375,0.43084716796875,-0.595947265625,-0.627685546875,-20.0625,-42.0,20.0625,-2.32,9.49,-0.8,Climbing Up,5
6.62,6.537196944,27,3,3,3,3,-1.69,13.86,-1.11,0.64,4.37,-0.33,-12.8125,10.25,-14.25,0.25555419921875,0.431884765625,-0.594482421875,-0.6282958984375,-20.0625,-42.0,20.0625,-2.34,9.49,-0.78,Climbing Up,5
6.63,6.567009159,27,3,3,3,3,-1.88,13.84,-0.76,0.48,4.35,0.0,-9.25,13.125,-14.75,0.25579833984375,0.43316650390625,-0.5931396484375,-0.62860107421875,-20.0625,-42.0,20.0625,-2.36,9.48,-0.77,Climbing Up,5
6.64,6.567009159,27,3,3,3,3,-1.8,13.68,0.14,0.58,4.2,0.9,-8.75,12.5,-14.8125,0.2559814453125,0.43438720703125,-0.591796875,-0.62890625,-20.0625,-42.0,20.0625,-2.38,9.48,-0.76,Climbing Up,5
6.65,6.582374637,27,3,3,3,3,-1.68,13.57,0.46,0.72,4.09,1.2,-13.125,9.5,-14.0,0.2562255859375,0.43536376953125,-0.59039306640625,-0.6295166015625,-19.375,-41.5,17.75,-2.4,9.47,-0.74,Climbing Up,5
6.66,6.582374637,27,3,3,3,3,-1.77,13.46,0.54,0.65,3.98,1.25,-19.1875,3.9375,-12.25,0.2564697265625,0.43572998046875,-0.5887451171875,-0.630615234375,-19.375,-41.5,17.75,-2.42,9.47,-0.71,Climbing Up,5
6.67,6.597324507,27,3,3,3,3,-1.97,13.41,0.22,0.47,3.94,0.9,-24.0625,-3.875,-11.1875,0.256591796875,0.435546875,-0.58709716796875,-0.63226318359375,-19.375,-41.5,17.75,-2.44,9.47,-0.67,Climbing Up,5
6.68,6.597324507,27,3,3,3,3,-2.85,13.13,-1.1,-0.38,3.66,-0.48,-28.4375,-11.5,-12.0,0.25640869140625,0.43487548828125,-0.5853271484375,-0.6343994140625,-19.375,-41.5,17.75,-2.46,9.47,-0.62,Climbing Up,5
6.69,6.627272058,27,3,3,3,3,-3.14,13.29,-1.54,-0.65,3.82,-0.97,-30.4375,-16.375,-13.125,0.25604248046875,0.4339599609375,-0.58355712890625,-0.63690185546875,-19.375,-41.5,17.75,-2.49,9.46,-0.56,Climbing Up,5
6.7,6.627272058,27,3,3,3,3,-3.3,13.47,-1.66,-0.79,4.0,-1.14,-24.625,-20.5,-13.3125,0.25518798828125,0.43292236328125,-0.58209228515625,-0.63922119140625,-17.875,-41.875,17.0,-2.51,9.46,-0.51,Climbing Up,5
6.71,6.641584273,27,3,3,3,3,-3.54,13.66,-1.83,-1.01,4.2,-1.35,-15.1875,-22.3125,-12.875,0.25390625,0.4320068359375,-0.581298828125,-0.64111328125,-17.875,-41.875,17.0,-2.53,9.46,-0.48,Climbing Up,5
6.72,6.641584273,27,3,3,3,3,-4.17,14.23,-2.36,-1.61,4.78,-1.9,-7.0625,-22.4375,-11.5,0.25238037109375,0.43115234375,-0.58099365234375,-0.64251708984375,-17.875,-41.875,17.0,-2.55,9.45,-0.45,Climbing Up,5
6.73,6.67166488,27,3,3,3,3,-4.24,13.57,-2.48,-1.67,4.12,-2.03,-1.6875,-21.375,-11.3125,0.250732421875,0.43048095703125,-0.5809326171875,-0.6436767578125,-17.875,-41.875,17.0,-2.57,9.45,-0.44,Climbing Up,5
6.74,6.67166488,27,3,3,3,3,-4.11,12.09,-2.48,-1.52,2.65,-2.04,-2.5625,-20.0625,-10.6875,0.249267578125,0.42987060546875,-0.580810546875,-0.644775390625,-17.875,-41.875,17.0,-2.59,9.44,-0.43,Climbing Up,5
6.75,6.676806685,27,3,3,3,3,-4.11,12.09,-2.48,-1.52,2.65,-2.04,-2.5625,-20.0625,-10.6875,0.249267578125,0.42987060546875,-0.580810546875,-0.644775390625,-17.875,-41.875,17.0,-2.59,9.44,-0.43,Climbing Up,5
6.75,6.676806685,27,3,3,3,3,-3.87,10.45,-2.21,-1.26,1.01,-1.8,-8.1875,-19.3125,-8.5625,0.24810791015625,0.42901611328125,-0.5804443359375,-0.6461181640625,-16.1875,-42.5625,15.0625,-2.61,9.44,-0.41,Climbing Up,5
6.76,6.687604903,27,3,3,3,3,-3.59,8.25,-2.22,-0.97,-1.18,-1.84,-12.75,-17.9375,-8.0,0.24725341796875,0.4281005859375,-0.579833984375,-0.6475830078125,-16.1875,-42.5625,15.0625,-2.62,9.44,-0.38,Climbing Up,5
6.77,6.687604903,27,3,3,3,3,-3.43,7.51,-2.37,-0.79,-1.92,-2.02,-13.4375,-19.1875,-6.6875,0.24639892578125,0.42706298828125,-0.57928466796875,-0.64910888671875,-16.1875,-42.5625,15.0625,-2.63,9.43,-0.35,Climbing Up,5
6.78,6.716735274,27,3,3,3,3,-3.31,6.87,-2.43,-0.67,-2.56,-2.11,-13.3125,-23.3125,-5.0625,0.24542236328125,0.42572021484375,-0.578857421875,-0.6507568359375,-16.1875,-42.5625,15.0625,-2.64,9.43,-0.31,Climbing Up,5
6.79,6.716735274,27,3,3,3,3,-3.41,6.25,-2.47,-0.76,-3.18,-2.18,-11.0,-28.75,-2.875,0.24420166015625,0.42401123046875,-0.5787353515625,-0.65240478515625,-16.1875,-42.5625,15.0625,-2.65,9.43,-0.28,Climbing Up,5
6.8,6.731661096,27,3,3,3,3,-4.38,5.48,-2.51,-1.72,-3.94,-2.25,-6.0,-36.0625,-0.875,0.2425537109375,0.421875,-0.5791015625,-0.654052734375,-15.75,-43.0,14.25,-2.65,9.43,-0.26,Climbing Up,5
6.81,6.731661096,27,3,3,3,3,-4.92,5.74,-2.61,-2.26,-3.69,-2.37,1.0,-45.5,-1.375,0.2401123046875,0.41937255859375,-0.58013916015625,-0.65570068359375,-15.75,-43.0,14.25,-2.66,9.43,-0.24,Climbing Up,5
6.82,6.762124312,27,3,3,3,3,-5.38,6.4,-2.77,-2.71,-3.02,-2.53,9.4375,-56.6875,-4.25,0.2366943359375,0.41650390625,-0.5816650390625,-0.6573486328125,-15.75,-43.0,14.25,-2.67,9.43,-0.23,Climbing Up,5
6.83,6.762124312,27,3,3,3,3,-5.43,7.95,-2.56,-2.74,-1.47,-2.32,17.3125,-63.0625,-6.6875,0.232421875,0.41363525390625,-0.583740234375,-0.65887451171875,-15.75,-43.0,14.25,-2.68,9.42,-0.23,Climbing Up,5
6.85,6.776097701,27,3,3,3,3,-4.55,8.03,-2.02,-1.84,-1.38,-1.75,29.0625,-40.9375,-8.5625,0.22467041015625,0.409912109375,-0.58819580078125,-0.65997314453125,-14.375,-43.375,15.375,-2.71,9.41,-0.27,Climbing Up,5
6.86,6.776097701,27,3,3,3,3,-3.88,7.9,-1.77,-1.15,-1.5,-1.44,36.5,-24.25,-10.5625,0.22149658203125,0.4097900390625,-0.59039306640625,-0.6591796875,-14.375,-43.375,15.375,-2.73,9.41,-0.32,Climbing Up,5
6.87,6.808906335,27,3,3,3,3,-2.6,7.99,-0.62,0.15,-1.41,-0.23,44.4375,-6.9375,-11.9375,0.2188720703125,0.41082763671875,-0.5926513671875,-0.65728759765625,-14.375,-43.375,15.375,-2.75,9.4,-0.39,Climbing Up,5
6.88,6.808906335,27,3,3,3,3,-2.28,8.19,0.11,0.49,-1.19,0.59,48.875,8.8125,-14.375,0.21673583984375,0.41302490234375,-0.59478759765625,-0.65472412109375,-14.375,-43.375,15.375,-2.77,9.39,-0.47,Climbing Up,5
6.89,6.820923995,27,3,3,3,3,-2.29,8.41,1.13,0.51,-0.96,1.7,51.875,10.6875,-18.625,0.21429443359375,0.4156494140625,-0.59686279296875,-0.6519775390625,-14.375,-43.375,15.375,-2.8,9.37,-0.56,Climbing Up,5
6.9,6.820923995,27,3,3,3,3,-2.47,8.57,1.87,0.36,-0.78,2.51,43.4375,-0.9375,-24.75,0.21124267578125,0.41766357421875,-0.59844970703125,-0.65020751953125,-13.5625,-43.75,15.75,-2.84,9.36,-0.63,Climbing Up,5
6.91,6.83842139,27,3,3,3,3,-2.26,8.32,1.29,0.62,-1.02,1.96,26.9375,-25.5,-27.125,0.2073974609375,0.41815185546875,-0.5994873046875,-0.65020751953125,-13.5625,-43.75,15.75,-2.89,9.34,-0.67,Climbing Up,5
6.92,6.83842139,27,3,3,3,3,-2.15,7.93,0.4,0.78,-1.39,1.07,11.625,-45.1875,-24.25,0.20318603515625,0.4171142578125,-0.60009765625,-0.65167236328125,-13.5625,-43.75,15.75,-2.93,9.33,-0.66,Climbing Up,5
6.93,6.868646732,27,3,3,3,3,-2.0,7.42,-0.35,0.96,-1.89,0.28,1.3125,-49.375,-19.3125,0.199462890625,0.41534423828125,-0.600341796875,-0.6536865234375,-13.5625,-43.75,15.75,-2.97,9.32,-0.64,Climbing Up,5
6.94,6.868646732,27,3,3,3,3,-1.81,7.05,-0.91,1.19,-2.25,-0.29,-2.0,-44.625,-14.25,0.19635009765625,0.41351318359375,-0.6004638671875,-0.6556396484375,-13.5625,-43.75,15.75,-3.0,9.31,-0.61,Climbing Up,5
6.95,6.882051762,27,3,3,3,3,-1.3,6.43,-1.34,1.71,-2.87,-0.74,-0.3125,-39.3125,-10.0625,0.1937255859375,0.41180419921875,-0.60076904296875,-0.6572265625,-13.0,-43.0625,17.375,-3.02,9.3,-0.59,Climbing Up,5
6.96,6.882051762,27,3,3,3,3,-1.03,6.19,-1.36,2.0,-3.1,-0.77,5.5,-35.9375,-5.8125,0.1912841796875,0.41015625,-0.60150146484375,-0.6583251953125,-13.0,-43.0625,17.375,-3.03,9.3,-0.58,Climbing Up,5
6.97,6.897236291,27,3,3,3,3,-0.72,5.99,-1.3,2.31,-3.31,-0.7,13.375,-30.9375,-1.375,0.1890869140625,0.40869140625,-0.602783203125,-0.65869140625,-13.0,-43.0625,17.375,-3.04,9.3,-0.59,Climbing Up,5
6.98,6.897236291,27,3,3,3,3,-0.4,5.8,-1.1,2.63,-3.5,-0.49,21.375,-24.0,2.75,0.18719482421875,0.40753173828125,-0.6044921875,-0.65838623046875,-13.0,-43.0625,17.375,-3.04,9.3,-0.61,Climbing Up,5
6.99,6.927367842,27,3,3,3,3,-0.54,5.92,-0.99,2.48,-3.37,-0.34,27.8125,-18.5625,6.5625,0.18560791015625,0.40655517578125,-0.60662841796875,-0.657470703125,-13.0,-43.0625,17.375,-3.03,9.3,-0.65,Climbing Up,5
7.0,6.927367842,27,3,3,3,3,-0.72,6.27,-0.82,2.29,-3.02,-0.13,29.75,-14.6875,8.5,0.18426513671875,0.40576171875,-0.60888671875,-0.65625,-13.0,-44.0625,15.75,-3.02,9.3,-0.69,Climbing Up,5
7.01,6.942086674,27,3,3,3,3,-1.05,6.73,-0.63,1.95,-2.56,0.09,24.25,-10.6875,9.5,0.18341064453125,0.405029296875,-0.61077880859375,-0.6551513671875,-13.0,-44.0625,15.75,-3.0,9.3,-0.72,Climbing Up,5
7.02,6.942086674,27,3,3,3,3,-1.05,6.73,-0.63,1.95,-2.56,0.09,24.25,-10.6875,9.5,0.18341064453125,0.405029296875,-0.61077880859375,-0.6551513671875,-13.0,-44.0625,15.75,-3.0,9.3,-0.72,Climbing Up,5
7.02,6.95626628,27,3,3,3,3,-2.0,7.41,-0.16,0.98,-1.89,0.58,15.25,-8.5625,10.375,0.1829833984375,0.40423583984375,-0.6121826171875,-0.65447998046875,-13.0,-44.0625,15.75,-2.99,9.3,-0.74,Climbing Up,5
7.03,6.95626628,27,3,3,3,3,-2.64,7.69,0.05,0.32,-1.61,0.81,7.25,-9.25,9.1875,0.1827392578125,0.4033203125,-0.61309814453125,-0.65423583984375,-13.0,-44.0625,15.75,-2.97,9.31,-0.75,Climbing Up,5
7.04,6.971371138,27,3,3,3,3,-3.19,8.07,0.2,-0.22,-1.24,0.95,1.75,-10.5,6.625,0.1824951171875,0.40240478515625,-0.61358642578125,-0.6544189453125,-13.0,-44.0625,15.75,-2.96,9.31,-0.75,Climbing Up,5
7.05,6.971371138,27,3,3,3,3,-3.54,8.41,0.22,-0.57,-0.89,0.97,-0.9375,-11.75,2.875,0.18206787109375,0.40155029296875,-0.61383056640625,-0.65478515625,-12.5625,-43.0625,18.5625,-2.96,9.31,-0.74,Climbing Up,5
7.06,7.001431726,27,3,3,3,3,-3.62,9.44,-0.08,-0.65,0.12,0.64,-2.75,-13.375,-0.9375,0.181396484375,0.40081787109375,-0.6138916015625,-0.65545654296875,-12.5625,-43.0625,18.5625,-2.96,9.31,-0.73,Climbing Up,5
7.07,7.001431726,27,3,3,3,3,-3.73,10.15,-0.24,-0.75,0.84,0.47,-4.875,-16.9375,-4.125,0.180419921875,0.4000244140625,-0.61370849609375,-0.6563720703125,-12.5625,-43.0625,18.5625,-2.97,9.31,-0.71,Climbing Up,5
7.08,7.017311771,27,3,3,3,3,-3.91,10.98,-0.34,-0.92,1.66,0.34,-6.5,-21.25,-5.1875,0.17919921875,0.39898681640625,-0.613525390625,-0.65753173828125,-12.5625,-43.0625,18.5625,-2.98,9.31,-0.69,Climbing Up,5
7.09,7.017311771,27,3,3,3,3,-4.33,11.88,-0.29,-1.33,2.56,0.38,-5.625,-24.5625,-3.5625,0.1778564453125,0.39764404296875,-0.61346435546875,-0.65869140625,-12.5625,-43.0625,18.5625,-2.99,9.31,-0.67,Climbing Up,5
7.1,7.032232466,27,3,3,3,3,-5.47,13.38,0.0,-2.47,4.07,0.65,-2.4375,-25.5625,0.0,0.17657470703125,0.39617919921875,-0.61370849609375,-0.65972900390625,-13.0,-43.0625,17.375,-3.0,9.31,-0.65,Climbing Up,5
7.11,7.032232466,27,3,3,3,3,-5.96,13.57,0.03,-2.97,4.25,0.68,-0.375,-22.1875,4.75,0.1756591796875,0.3946533203125,-0.61419677734375,-0.660400390625,-13.0,-43.0625,17.375,-2.99,9.31,-0.64,Climbing Up,5
7.12,7.062360071,27,3,3,3,3,-6.31,13.31,0.03,-3.33,3.99,0.66,-2.5625,-16.25,9.75,0.1754150390625,0.39312744140625,-0.61468505859375,-0.66094970703125,-13.0,-43.0625,17.375,-2.98,9.32,-0.63,Climbing Up,5
7.13,7.062360071,27,3,3,3,3,-6.36,12.82,0.18,-3.4,3.5,0.8,-8.375,-12.0625,13.4375,0.17584228515625,0.3916015625,-0.61480712890625,-0.66162109375,-13.0,-43.0625,17.375,-2.96,9.32,-0.61,Climbing Up,5
7.14,7.077389856,27,3,3,3,3,-5.8,12.7,0.46,-2.87,3.36,1.04,-13.1875,-10.25,15.25,0.17657470703125,0.3900146484375,-0.61474609375,-0.66241455078125,-13.0,-43.0625,17.375,-2.93,9.33,-0.58,Climbing Up,5
7.15,7.077389856,27,3,3,3,3,-5.44,12.86,0.35,-2.52,3.51,0.91,-12.375,-8.875,16.875,0.177490234375,0.38836669921875,-0.61474609375,-0.66314697265625,-12.5625,-43.0625,17.375,-2.91,9.34,-0.56,Climbing Up,5
7.16,7.091301518,27,3,3,3,3,-5.09,12.99,0.25,-2.21,3.63,0.79,-9.3125,-7.25,18.75,0.17852783203125,0.3868408203125,-0.61492919921875,-0.66357421875,-12.5625,-43.0625,17.375,-2.88,9.35,-0.54,Climbing Up,5
7.17,7.091301518,27,3,3,3,3,-4.39,13.25,0.16,-1.54,3.88,0.69,-8.9375,-4.3125,20.6875,0.17974853515625,0.38531494140625,-0.61517333984375,-0.66387939453125,-12.5625,-43.0625,17.375,-2.84,9.36,-0.52,Climbing Up,5
7.18,7.12128752,27,3,3,3,3,-4.03,13.38,-0.07,-1.22,4.0,0.43,-9.375,-0.125,22.4375,0.181396484375,0.38397216796875,-0.61541748046875,-0.66400146484375,-12.5625,-43.0625,17.375,-2.81,9.38,-0.51,Climbing Up,5
7.19,7.12128752,27,3,3,3,3,-3.72,13.46,-0.38,-0.94,4.06,0.1,-10.9375,2.0625,24.0625,0.1832275390625,0.38262939453125,-0.61553955078125,-0.6641845703125,-12.5625,-43.0625,17.375,-2.77,9.39,-0.49,Climbing Up,5
7.2,7.137626957,27,3,3,3,3,-3.45,13.28,-0.69,-0.72,3.87,-0.22,-17.4375,2.9375,25.375,0.18548583984375,0.38116455078125,-0.61529541015625,-0.66461181640625,-12.1875,-43.75,17.0,-2.73,9.4,-0.46,Climbing Up,5
7.21,7.137626957,27,3,3,3,3,-2.79,12.33,-1.34,-0.11,2.91,-0.91,-25.125,5.3125,26.25,0.1881103515625,0.37969970703125,-0.6146240234375,-0.66534423828125,-12.1875,-43.75,17.0,-2.68,9.42,-0.43,Climbing Up,5
7.22,7.152135461,27,3,3,3,3,-2.52,11.73,-1.7,0.11,2.29,-1.31,-26.75,8.0,26.25,0.19091796875,0.3782958984375,-0.61383056640625,-0.66607666015625,-12.1875,-43.75,17.0,-2.64,9.43,-0.39,Climbing Up,5
7.23,7.152135461,27,3,3,3,3,-2.33,11.13,-2.0,0.26,1.69,-1.65,-22.3125,11.4375,24.625,0.1937255859375,0.3773193359375,-0.6131591796875,-0.66650390625,-12.1875,-43.75,17.0,-2.6,9.44,-0.35,Climbing Up,5
7.24,7.182102502,27,3,3,3,3,-2.15,10.56,-2.3,0.4,1.1,-1.96,-17.0,18.0625,21.625,0.19647216796875,0.37689208984375,-0.612548828125,-0.66644287109375,-12.1875,-43.75,17.0,-2.56,9.45,-0.33,Climbing Up,5
7.25,7.182102502,27,3,3,3,3,-1.75,9.63,-2.86,0.77,0.16,-2.53,-14.6875,26.0,18.6875,0.199462890625,0.377197265625,-0.61187744140625,-0.666015625,-13.1875,-42.6875,15.375,-2.53,9.46,-0.32,Climbing Up,5
7.26,7.197729862,27,3,3,3,3,-1.48,9.56,-3.01,1.01,0.08,-2.69,-17.25,33.0625,16.0625,0.20269775390625,0.3779296875,-0.61083984375,-0.66558837890625,-13.1875,-42.6875,15.375,-2.5,9.47,-0.31,Climbing Up,5
7.27,7.197729862,27,3,3,3,3,-1.24,9.53,-3.02,1.23,0.05,-2.73,-24.5,39.3125,13.4375,0.20635986328125,0.37908935546875,-0.609130859375,-0.66534423828125,-13.1875,-42.6875,15.375,-2.48,9.48,-0.28,Climbing Up,5
7.28,7.20354692,27,3,3,3,3,-1.24,9.53,-3.02,1.23,0.05,-2.73,-24.5,39.3125,13.4375,0.20635986328125,0.37908935546875,-0.609130859375,-0.66534423828125,-13.1875,-42.6875,15.375,-2.48,9.48,-0.28,Climbing Up,5
7.28,7.20354692,27,3,3,3,3,-0.88,9.51,-3.07,1.57,0.02,-2.82,-32.1875,42.75,11.0,0.2103271484375,0.38037109375,-0.60687255859375,-0.6654052734375,-13.1875,-42.6875,15.375,-2.46,9.48,-0.25,Climbing Up,5
