timestamp,android_nano_timestamp,temperature,calib_mag,calib_accel,calib_gyro,calib_sys,acc_x,acc_y,acc_z,lacc_x,lacc_y,lacc_z,gyro_x,gyro_y,gyro_z,quat_w,quat_x,quat_y,quat_z,mag_x,mag_y,mag_z,gravity_x,gravity_y,gravity_z,label,person
0.48,0.425809815,25,3,3,3,0,-937.0,3.13,-3.23,-0.02,0.87,-1.34,2.07,-18.6875,25.75,650.125,0.16461181640625,0.7547607421875,0.014404296875,0.0077,14.5625,-19.75,-58.4375,2.26,-1.89,Walking,7
0.49,0.425809815,25,3,3,3,0,-942.0,3.06,-3.44,-0.08,0.76,-1.57,2.13,-16.6875,26.25,651.0,0.1671142578125,0.75347900390625,0.0147705078125,0.0077,14.5625,-19.75,-58.375,2.3,-1.87,Walking,7
0.5,0.439005372,25,3,3,3,0,-934.0,2.95,-3.75,0.0,0.61,-1.89,2.24,-15.5,26.25,651.75,0.16961669921875,0.75225830078125,0.01507568359375,0.0077,14.5625,-19.75,-58.375,2.33,-1.85,Walking,7
0.51,0.439005372,25,3,3,3,0,-923.0,2.85,-3.8,0.09,0.47,-1.96,2.43,-14.375,26.375,652.4375,0.1722412109375,0.7510986328125,0.01531982421875,0.0077,15.25,-21.6875,-58.3125,2.37,-1.83,Walking,7
0.52,0.454998821,25,3,3,3,0,-913.0,2.77,-3.71,0.19,0.35,-1.89,2.71,-13.625,26.4375,653.0625,0.1749267578125,0.74993896484375,0.01544189453125,0.0077,15.25,-21.6875,-58.25,2.41,-1.82,Walking,7
0.53,0.454998821,25,3,3,3,0,-904.0,2.68,-3.62,0.27,0.23,-1.81,3.08,-13.1875,26.3125,653.5625,0.177734375,0.74884033203125,0.01544189453125,0.0077,15.25,-21.6875,-58.25,2.45,-1.81,Walking,7
0.54,0.485063559,25,3,3,3,0,-880.0,2.53,-3.3,0.5,0.05,-1.5,3.49,-13.25,25.625,654.0625,0.1806640625,0.74774169921875,0.0152587890625,0.0077,15.25,-21.6875,-58.1875,2.48,-1.8,Walking,7
0.55,0.485063559,25,3,3,3,0,-861.0,2.61,-3.07,0.69,0.09,-1.28,3.72,-13.625,24.4375,654.5625,0.18359375,0.74664306640625,0.014892578125,0.0077,15.25,-21.6875,-58.125,2.51,-1.78,Walking,7
0.56,0.50072168,25,3,3,3,0,-846.0,2.61,-2.97,0.83,0.06,-1.2,3.43,-13.4375,23.0625,655.0625,0.186279296875,0.74560546875,0.01458740234375,0.0092,14.5625,-21.25,-58.125,2.55,-1.77,Walking,7
0.57,0.50072168,25,3,3,3,0,-806.0,2.38,-3.24,1.22,-0.19,-1.48,3.02,-15.125,21.75,655.6875,0.18878173828125,0.74444580078125,0.01434326171875,0.0092,14.5625,-21.25,-58.0625,2.58,-1.76,Walking,7
0.58,0.514603964,25,3,3,3,0,-790.0,2.39,-3.3,1.39,-0.21,-1.56,2.93,-18.9375,20.625,656.5625,0.191162109375,0.7430419921875,0.01397705078125,0.0092,14.5625,-21.25,-58.0625,2.6,-1.73,Walking,7
0.59,0.514603964,25,3,3,3,0,-783.0,2.43,-3.21,1.45,-0.19,-1.5,3.04,-21.5,19.5,657.625,0.19354248046875,0.7415771484375,0.01348876953125,0.0092,14.5625,-21.25,-58.0,2.63,-1.71,Walking,7
0.6,0.545837607,25,3,3,3,0,-774.0,2.43,-2.98,1.53,-0.22,-1.29,3.13,-21.1875,18.0625,658.625,0.19586181640625,0.7401123046875,0.01287841796875,0.0092,14.5625,-21.25,-58.0,2.65,-1.68,Walking,7
0.61,0.545837607,25,3,3,3,0,-766.0,2.4,-2.47,1.62,-0.27,-0.8,3.03,-18.3125,15.8125,659.5,0.19793701171875,0.73883056640625,0.01220703125,0.0098,15.25,-23.1875,-58.0,2.67,-1.66,Walking,7
0.62,0.560434246,25,3,3,3,0,-771.0,2.48,-2.4,1.56,-0.2,-0.75,2.64,-15.0625,13.3125,660.125,0.19976806640625,0.73779296875,0.01165771484375,0.0098,15.25,-23.1875,-58.0,2.69,-1.65,Walking,7
0.63,0.560434246,25,3,3,3,0,-790.0,2.46,-2.43,1.37,-0.24,-0.79,2.0,-14.1875,11.125,660.8125,0.20123291015625,0.73681640625,0.01123046875,0.0098,15.25,-23.1875,-58.0,2.7,-1.63,Walking,7
0.64,0.574513103,25,3,3,3,0,-813.0,2.42,-2.52,1.15,-0.29,-0.91,1.29,-15.375,8.9375,661.625,0.2022705078125,0.73583984375,0.01092529296875,0.0098,15.25,-23.1875,-58.0,2.72,-1.61,Walking,7
0.65,0.574513103,25,3,3,3,0,-841.0,2.44,-2.96,0.86,-0.28,-1.37,0.66,-16.8125,7.3125,662.625,0.2030029296875,0.73480224609375,0.01080322265625,0.0098,15.25,-23.1875,-58.0,2.73,-1.59,Walking,7
0.66,0.60497282,25,3,3,3,0,-850.0,2.4,-3.12,0.78,-0.33,-1.55,0.23,-17.5625,5.25,663.75,0.20343017578125,0.73370361328125,0.01068115234375,0.0077,14.6875,-22.75,-58.0,2.74,-1.56,Walking,7
0.67,0.60497282,25,3,3,3,0,-854.0,2.38,-3.25,0.74,-0.35,-1.71,-0.11,-16.6875,3.0625,664.8125,0.20361328125,0.73272705078125,0.0106201171875,0.0077,14.6875,-22.75,-58.0,2.74,-1.53,Walking,7
0.68,0.619790691,25,3,3,3,0,-861.0,2.34,-3.32,0.67,-0.4,-1.81,-0.41,-15.375,0.8125,665.875,0.20355224609375,0.73187255859375,0.01055908203125,0.0077,14.6875,-22.75,-58.0625,2.74,-1.51,Walking,7
0.69,0.619790691,25,3,3,3,0,-875.0,2.39,-3.38,0.53,-0.35,-1.89,-0.74,-14.0,-1.1875,666.8125,0.2032470703125,0.73114013671875,0.01055908203125,0.0077,14.6875,-22.75,-58.0625,2.74,-1.48,Walking,7
0.7,0.634020671,25,3,3,3,0,-885.0,2.36,-3.41,0.44,-0.37,-1.95,-1.08,-13.625,-3.125,667.8125,0.20269775390625,0.73040771484375,0.01055908203125,0.0077,14.6875,-22.75,-58.125,2.74,-1.46,Walking,7
0.71,0.634020671,25,3,3,3,0,-890.0,2.41,-3.43,0.39,-0.32,-2.0,-1.35,-13.1875,-5.3125,668.8125,0.201904296875,0.72979736328125,0.01055908203125,0.0092,14.25,-23.1875,-58.125,2.73,-1.43,Walking,7
0.72,0.665640748,25,3,3,3,0,-890.0,2.41,-3.46,0.4,-0.3,-2.05,-1.64,-12.625,-7.375,669.8125,0.20086669921875,0.72918701171875,0.01055908203125,0.0092,14.25,-23.1875,-58.1875,2.72,-1.41,Walking,7
0.73,0.665640748,25,3,3,3,0,-881.0,2.6,-3.61,0.5,-0.11,-2.22,-1.86,-12.0625,-9.5625,670.75,0.1995849609375,0.72869873046875,0.01055908203125,0.0092,14.25,-23.1875,-58.25,2.71,-1.38,Walking,7
0.74,0.68057662,25,3,3,3,0,-880.0,2.68,-3.66,0.52,-0.01,-2.3,-1.93,-12.25,-11.125,671.75,0.1982421875,0.72821044921875,0.010498046875,0.0092,14.25,-23.1875,-58.25,2.69,-1.36,Walking,7
0.75,0.68057662,25,3,3,3,0,-882.0,2.81,-3.67,0.51,0.13,-2.33,-1.79,-12.25,-12.75,672.6875,0.19677734375,0.72772216796875,0.01025390625,0.0092,14.25,-23.1875,-58.3125,2.68,-1.33,Walking,7
0.76,0.694295126,25,3,3,3,0,-886.0,3.01,-3.67,0.48,0.35,-2.35,-1.64,-11.625,-14.1875,673.625,0.1953125,0.727294921875,0.0098876953125,0.0098,14.6875,-24.0,-58.375,2.66,-1.31,Walking,7
0.77,0.694295126,25,3,3,3,0,-884.0,3.08,-3.55,0.51,0.44,-2.25,-1.45,-10.0,-15.3125,674.4375,0.19384765625,0.72705078125,0.0093994140625,0.0098,14.6875,-24.0,-58.4375,2.63,-1.29,Walking,7
0.78,0.725716798,25,3,3,3,0,-876.0,3.1,-3.41,0.59,0.49,-2.13,-1.32,-8.9375,-16.125,675.125,0.19232177734375,0.726806640625,0.00885009765625,0.0098,14.6875,-24.0,-58.5,2.61,-1.27,Walking,7
0.79,0.725716798,25,3,3,3,0,-871.0,3.08,-3.21,0.66,0.49,-1.95,-1.31,-9.25,-17.0,675.8125,0.1907958984375,0.7265625,0.00823974609375,0.0098,14.6875,-24.0,-58.5625,2.58,-1.26,Walking,7
0.8,0.739197673,25,3,3,3,0,-886.0,2.97,-2.99,0.51,0.41,-1.75,-1.29,-11.625,-17.75,676.6875,0.18927001953125,0.72625732421875,0.007568359375,0.0098,14.6875,-24.0,-58.625,2.56,-1.24,Walking,7
0.81,0.739197673,25,3,3,3,0,-909.0,2.89,-3.05,0.29,0.36,-1.83,-1.19,-14.9375,-18.1875,677.75,0.18768310546875,0.7257080078125,0.0067138671875,0.0088,16.0625,-25.0625,-58.6875,2.53,-1.21,Walking,7
0.82,0.754478842,25,3,3,3,0,-948.0,2.85,-3.11,-0.07,0.35,-1.93,-1.01,-17.625,-18.5625,679.0,0.1861572265625,0.72503662109375,0.00579833984375,0.0088,16.0625,-25.0625,-58.75,2.5,-1.18,Walking,7
0.83,0.754478842,25,3,3,3,0,-985.0,2.84,-3.29,-0.43,0.36,-2.14,-0.85,-18.6875,-19.5,680.25,0.18463134765625,0.72430419921875,0.00469970703125,0.0088,16.0625,-25.0625,-58.8125,2.47,-1.15,Walking,7
0.84,0.784860759,25,3,3,3,0,-1041.0,3.0,-3.64,-0.98,0.56,-2.52,-0.84,-18.1875,-20.8125,681.5,0.18304443359375,0.72357177734375,0.0035400390625,0.0088,16.0625,-25.0625,-58.9375,2.43,-1.11,Walking,7
0.85,0.784860759,25,3,3,3,0,-1058.0,3.08,-3.85,-1.13,0.67,-2.76,-0.98,-16.1875,-22.3125,682.5625,0.1812744140625,0.7230224609375,0.00238037109375,0.0088,16.0625,-25.0625,-59.0,2.4,-1.09,Walking,7
0.86,0.800183228,25,3,3,3,0,-1072.0,3.18,-4.04,-1.26,0.82,-2.98,-1.17,-13.875,-24.0,683.5625,0.17938232421875,0.72265625,0.001220703125,0.0077,15.375,-28.1875,-59.0625,2.36,-1.06,Walking,7
0.87,0.800183228,25,3,3,3,0,-1098.0,3.31,-4.2,-1.51,0.98,-3.15,-1.33,-11.875,-24.625,684.4375,0.17730712890625,0.72235107421875,0.0001220703125,0.0077,15.375,-28.1875,-59.125,2.32,-1.04,Walking,7
0.88,0.814319337,25,3,3,3,0,-1153.0,3.64,-4.39,-2.05,1.35,-3.36,-1.52,-9.0,-25.6875,685.125,0.1751708984375,0.7222900390625,-0.00091552734375,0.0077,15.375,-28.1875,-59.25,2.28,-1.02,Walking,7
0.89,0.814319337,25,3,3,3,0,-1174.0,3.81,-4.39,-2.25,1.56,-3.37,-1.76,-4.6875,-26.375,685.5625,0.17291259765625,0.722412109375,-0.0018310546875,0.0077,15.375,-28.1875,-59.3125,2.24,-1.01,Walking,7
0.9,0.829922934,25,3,3,3,0,-1174.0,3.81,-4.39,-2.25,1.56,-3.37,-1.76,-4.6875,-26.375,685.5625,0.17291259765625,0.722412109375,-0.0018310546875,0.0077,15.375,-28.1875,-59.3125,2.24,-1.01,Walking,7
0.9,0.829922934,25,3,3,3,0,-1218.0,3.99,-4.18,-2.68,1.78,-3.16,-1.84,1.9375,-27.25,685.5,0.1705322265625,0.7230224609375,-0.00262451171875,0.0077,15.375,-28.1875,-59.375,2.2,-1.01,Walking,7
0.91,0.844174561,25,3,3,3,0,-1404.0,4.26,-2.86,-4.53,2.1,-1.82,-1.47,12.3125,-27.9375,684.8125,0.168212890625,0.72418212890625,-0.00347900390625,0.0085,15.375,-29.6875,-59.4375,2.15,-1.03,Walking,7
0.92,0.844174561,25,3,3,3,0,-1503.0,4.28,-2.11,-5.51,2.17,-1.03,-0.68,26.75,-28.8125,683.0625,0.16619873046875,0.7261962890625,-0.0045166015625,0.0085,15.375,-29.6875,-59.4375,2.1,-1.07,Walking,7
0.93,0.874326824,25,3,3,3,0,-1548.0,4.11,-1.66,-5.96,2.05,-0.51,0.06,41.25,-29.375,680.3125,0.16436767578125,0.72906494140625,-0.005615234375,0.0085,15.375,-29.6875,-59.4375,2.06,-1.14,Walking,7
0.94,0.874326824,25,3,3,3,0,-1527.0,3.87,-1.62,-5.75,1.85,-0.39,0.48,48.3125,-28.0,677.0625,0.16278076171875,0.7322998046875,-0.0067138671875,0.0085,15.375,-29.6875,-59.4375,2.01,-1.23,Walking,7
0.95,0.889626222,25,3,3,3,0,-1342.0,3.37,-2.12,-3.91,1.4,-0.81,0.66,43.625,-24.625,674.0625,0.1614990234375,0.7352294921875,-0.0078125,0.0085,15.375,-29.6875,-59.4375,1.97,-1.3,Walking,7
0.96,0.889626222,25,3,3,3,0,-1253.0,2.94,-1.94,-3.02,1.0,-0.58,0.95,31.0,-19.3125,671.875,0.16064453125,0.7373046875,-0.00885009765625,0.0076,15.375,-30.5,-59.4375,1.93,-1.36,Walking,7
0.97,0.904422527,25,3,3,3,0,-1167.0,2.31,-1.43,-2.15,0.4,-0.04,1.22,19.3125,-14.375,670.4375,0.16015625,0.7386474609375,-0.0098876953125,0.0076,15.375,-30.5,-59.4375,1.91,-1.39,Walking,7
0.98,0.904422527,25,3,3,3,0,-1080.0,1.8,-0.9,-1.29,-0.08,0.51,1.04,13.3125,-10.5625,669.4375,0.159912109375,0.73956298828125,-0.01068115234375,0.0076,15.375,-30.5,-59.4375,1.89,-1.42,Walking,7
0.99,0.934269654,25,3,3,3,0,-935.0,0.69,0.67,0.15,-1.18,2.11,0.67,11.75,-9.6875,668.5,0.1595458984375,0.74041748046875,-0.0113525390625,0.0076,15.375,-30.5,-59.4375,1.87,-1.44,Walking,7
1.0,0.934269654,25,3,3,3,0,-882.0,0.04,1.59,0.69,-1.81,3.06,0.28,12.3125,-10.5,667.625,0.15899658203125,0.74127197265625,-0.01190185546875,0.0076,15.375,-30.5,-59.4375,1.86,-1.46,Walking,7
1.01,0.949813762,25,3,3,3,0,-856.0,-0.5,2.32,0.95,-2.34,3.81,-0.31,14.0,-12.0,666.6875,0.15814208984375,0.74224853515625,-0.01220703125,0.0072,16.0625,-30.0625,-59.4375,1.84,-1.49,Walking,7
1.02,0.949813762,25,3,3,3,0,-844.0,-0.98,2.82,1.06,-2.8,4.34,-1.51,18.625,-13.625,665.5,0.15673828125,0.7435302734375,-0.01214599609375,0.0072,16.0625,-30.0625,-59.4375,1.82,-1.51,Walking,7
1.03,0.965544272,25,3,3,3,0,-851.0,-1.2,2.83,0.99,-3.0,4.39,-3.35,24.8125,-16.0625,664.125,0.154541015625,0.7452392578125,-0.0113525390625,0.0072,16.0625,-30.0625,-59.4375,1.79,-1.55,Walking,7
1.04,0.965544272,25,3,3,3,0,-847.0,-0.85,2.56,1.03,-2.62,4.15,-5.16,27.5,-19.125,662.6875,0.1514892578125,0.7470703125,-0.00994873046875,0.0072,16.0625,-30.0625,-59.4375,1.77,-1.59,Walking,7
1.05,1.000433269,25,3,3,3,0,-849.0,-0.3,2.15,1.02,-2.06,3.76,-6.72,22.25,-21.8125,661.6875,0.147705078125,0.74871826171875,-0.0081787109375,0.0072,16.0625,-30.0625,-59.4375,1.75,-1.61,Walking,7
1.06,1.000433269,25,3,3,3,0,-887.0,0.78,1.09,0.64,-0.93,2.71,-8.05,11.375,-24.1875,661.5625,0.143310546875,0.74969482421875,-0.006103515625,0.0073,16.0625,-30.0625,-59.4375,1.72,-1.61,Walking,7
1.07,1.009539145,25,3,3,3,0,-918.0,1.23,0.54,0.33,-0.46,2.14,-9.22,1.0625,-26.5625,662.1875,0.1383056640625,0.7501220703125,-0.0037841796875,0.0073,16.0625,-30.0625,-59.5,1.69,-1.6,Walking,7
1.08,1.009539145,25,3,3,3,0,-925.0,1.44,-0.11,0.27,-0.22,1.46,-10.5,-4.25,-28.0625,663.25,0.13275146484375,0.750244140625,-0.00115966796875,0.0073,16.0625,-30.0625,-59.5625,1.67,-1.57,Walking,7
1.09,1.024508505,25,3,3,3,0,-911.0,1.68,-0.72,0.42,0.04,0.82,-11.31,-4.9375,-28.0625,664.375,0.126953125,0.75030517578125,0.0018310546875,0.0073,16.0625,-30.0625,-59.625,1.64,-1.55,Walking,7
1.1,1.024508505,25,3,3,3,0,-882.0,2.12,-1.72,0.72,0.5,-0.2,-11.59,-4.25,-27.0625,665.4375,0.12109375,0.75030517578125,0.0050048828125,0.0073,16.0625,-30.0625,-59.6875,1.61,-1.52,Walking,7
1.11,1.054646078,25,3,3,3,0,-861.0,2.24,-2.06,0.93,0.65,-0.56,-11.27,-2.8125,-25.6875,666.375,0.11541748046875,0.75042724609375,0.00811767578125,0.0077,15.375,-28.5,-59.6875,1.59,-1.49,Walking,7
1.12,1.054646078,25,3,3,3,0,-833.0,2.41,-2.15,1.22,0.84,-0.67,-10.41,-2.3125,-23.0,667.1875,0.11016845703125,0.75048828125,0.01104736328125,0.0077,15.375,-28.5,-59.75,1.57,-1.47,Walking,7
1.13,1.069562623,25,3,3,3,0,-811.0,2.55,-2.15,1.45,1.0,-0.69,-9.13,-0.5,-19.3125,667.75,0.10565185546875,0.7506103515625,0.013671875,0.0077,15.375,-28.5,-59.8125,1.55,-1.46,Walking,7
1.14,1.069562623,25,3,3,3,0,-770.0,2.23,-1.89,1.87,0.69,-0.44,-7.64,0.0,-14.6875,668.1875,0.10198974609375,0.75067138671875,0.0159912109375,0.0077,15.375,-28.5,-59.8125,1.54,-1.44,Walking,7
1.15,1.085523276,25,3,3,3,0,-745.0,1.96,-1.66,2.12,0.43,-0.22,-6.18,-1.0,-10.0,668.625,0.09918212890625,0.75067138671875,0.0179443359375,0.0077,15.375,-28.5,-59.8125,1.53,-1.43,Walking,7
1.16,1.085523276,25,3,3,3,0,-724.0,1.65,-1.37,2.33,0.12,0.05,-5.19,-1.625,-5.625,669.0,0.096923828125,0.75054931640625,0.01971435546875,0.0077,16.375,-26.875,-59.875,1.53,-1.42,Walking,7
1.17,1.100238893,25,3,3,3,0,-724.0,1.65,-1.37,2.33,0.12,0.05,-5.19,-1.625,-5.625,669.0,0.096923828125,0.75054931640625,0.01971435546875,0.0077,16.375,-26.875,-59.875,1.53,-1.42,Walking,7
1.18,1.100238893,25,3,3,3,0,-706.0,1.43,-1.07,2.51,-0.09,0.33,-4.95,-2.9375,-2.125,669.5,0.09503173828125,0.7503662109375,0.0216064453125,0.0077,16.375,-26.875,-59.875,1.53,-1.41,Walking,7
1.18,1.115081829,25,3,3,3,0,-696.0,1.03,-0.61,2.61,-0.51,0.78,-4.91,-5.0,0.125,670.0625,0.09332275390625,0.75006103515625,0.02362060546875,0.0077,16.375,-26.875,-59.875,1.54,-1.39,Walking,7
1.19,1.115081829,25,3,3,3,0,-695.0,1.03,-0.5,2.62,-0.52,0.87,-4.76,-8.0625,1.8125,670.8125,0.09173583984375,0.74951171875,0.02557373046875,0.0077,16.375,-26.875,-59.875,1.55,-1.37,Walking,7
1.2,1.145549317,25,3,3,3,0,-697.0,1.08,-0.56,2.61,-0.47,0.78,-4.57,-12.0,2.9375,671.8125,0.09033203125,0.74871826171875,0.02752685546875,0.0077,16.375,-26.875,-59.875,1.56,-1.34,Walking,7
1.21,1.145549317,25,3,3,3,0,-698.0,1.09,-0.76,2.6,-0.48,0.55,-4.31,-15.0625,4.25,673.0625,0.089111328125,0.747802734375,0.0294189453125,0.0077,15.25,-24.875,-59.875,1.58,-1.31,Walking,7
1.22,1.160661337,25,3,3,3,0,-725.0,0.96,-1.36,2.33,-0.63,-0.07,-3.95,-16.75,5.5625,674.3125,0.088134765625,0.7467041015625,0.03125,0.0077,15.25,-24.875,-59.9375,1.59,-1.28,Walking,7
1.23,1.160661337,25,3,3,3,0,-742.0,1.0,-1.56,2.16,-0.6,-0.31,-3.46,-16.6875,6.5,675.5625,0.08734130859375,0.74566650390625,0.03289794921875,0.0077,15.25,-24.875,-59.9375,1.61,-1.24,Walking,7
1.24,1.174039796,25,3,3,3,0,-761.0,1.06,-1.69,1.97,-0.56,-0.47,-2.71,-14.3125,6.5,676.625,0.08685302734375,0.7447509765625,0.03424072265625,0.0077,15.25,-24.875,-59.9375,1.62,-1.21,Walking,7
1.25,1.174039796,25,3,3,3,0,-783.0,0.99,-1.95,1.75,-0.64,-0.75,-1.91,-9.75,5.875,677.375,0.0865478515625,0.744140625,0.03533935546875,0.0077,15.25,-24.875,-59.9375,1.63,-1.2,Walking,7
1.26,1.220168987,25,3,3,3,0,-790.0,0.97,-2.15,1.69,-0.67,-0.96,-1.43,-5.625,5.4375,677.75,0.08642578125,0.74371337890625,0.03619384765625,0.0077,14.5625,-23.75,-59.9375,1.64,-1.18,Walking,7
1.27,1.220168987,25,3,3,3,0,-793.0,0.9,-2.33,1.66,-0.75,-1.15,-1.28,-4.1875,5.4375,678.0625,0.08636474609375,0.743408203125,0.0369873046875,0.0077,14.5625,-23.75,-59.9375,1.66,-1.17,Walking,7
1.28,1.223228679,25,3,3,3,0,-788.0,0.94,-2.48,1.7,-0.72,-1.31,-1.21,-6.75,6.0625,678.5625,0.0863037109375,0.74298095703125,0.03778076171875,0.0077,14.5625,-23.75,-59.9375,1.67,-1.16,Walking,7
1.29,1.223228679,25,3,3,3,0,-777.0,1.07,-2.5,1.81,-0.6,-1.35,-0.98,-11.0,7.125,679.3125,0.08648681640625,0.7423095703125,0.03851318359375,0.0077,14.5625,-23.75,-59.9375,1.68,-1.14,Walking,7
1.3,1.234364869,25,3,3,3,0,-777.0,1.15,-2.48,1.82,-0.54,-1.36,-0.52,-13.625,7.9375,680.1875,0.08685302734375,0.741455078125,0.0390625,0.0077,14.5625,-23.75,-59.9375,1.69,-1.12,Walking,7
1.31,1.234364869,25,3,3,3,0,-785.0,1.2,-2.44,1.73,-0.51,-1.34,0.01,-14.0625,8.8125,681.0625,0.08746337890625,0.74053955078125,0.03948974609375,0.0077,15.5625,-23.0,-59.9375,1.71,-1.1,Walking,7
1.32,1.264575441,25,3,3,3,0,-802.0,1.28,-2.34,1.57,-0.44,-1.26,0.57,-12.875,9.6875,681.8125,0.08831787109375,0.73974609375,0.03973388671875,0.0077,15.5625,-23.0,-59.9375,1.73,-1.07,Walking,7
1.33,1.264575441,25,3,3,3,0,-840.0,1.29,-2.25,1.18,-0.44,-1.19,1.0,-9.9375,10.875,682.375,0.0894775390625,0.7391357421875,0.03985595703125,0.0077,15.5625,-23.0,-59.9375,1.74,-1.06,Walking,7
1.34,1.279383017,25,3,3,3,0,-877.0,1.15,-2.17,0.81,-0.61,-1.11,1.52,-4.3125,11.625,682.5,0.09075927734375,0.73883056640625,0.0399169921875,0.0077,15.5625,-23.0,-59.875,1.76,-1.06,Walking,7
1.35,1.279383017,25,3,3,3,0,-905.0,1.1,-2.21,0.52,-0.68,-1.14,2.14,2.0625,12.625,682.1875,0.09234619140625,0.73895263671875,0.039794921875,0.0077,15.5625,-23.0,-59.875,1.78,-1.07,Walking,7
1.36,1.296006593,25,3,3,3,0,-937.0,0.97,-2.31,0.2,-0.82,-1.23,2.7,6.4375,13.875,681.5625,0.09423828125,0.7392578125,0.03955078125,0.0087,14.875,-22.1875,-59.8125,1.8,-1.08,Walking,7
1.37,1.296006593,25,3,3,3,0,-1049.0,0.82,-2.62,-0.92,-1.0,-1.52,3.02,6.8125,15.625,680.875,0.0963134765625,0.7396240234375,0.039306640625,0.0087,14.875,-22.1875,-59.8125,1.82,-1.1,Walking,7
1.38,1.324298341,25,3,3,3,0,-1102.0,0.73,-2.78,-1.46,-1.11,-1.66,3.06,5.125,17.25,680.3125,0.0985107421875,0.7398681640625,0.03912353515625,0.0087,14.875,-22.1875,-59.75,1.85,-1.11,Walking,7
1.39,1.324298341,25,3,3,3,0,-1122.0,0.66,-3.06,-1.67,-1.21,-1.93,2.61,4.1875,18.6875,679.8125,0.10064697265625,0.739990234375,0.0391845703125,0.0087,14.875,-22.1875,-59.6875,1.87,-1.13,Walking,7
1.4,1.339180136,25,3,3,3,0,-1134.0,0.75,-3.57,-1.79,-1.15,-2.43,1.79,4.8125,20.0625,679.25,0.10260009765625,0.74017333984375,0.03961181640625,0.0087,14.875,-22.1875,-59.6875,1.91,-1.14,Walking,7
1.41,1.339180136,25,3,3,3,0,-1131.0,0.75,-3.74,-1.77,-1.19,-2.58,0.88,5.5,21.0,678.75,0.104248046875,0.7403564453125,0.04052734375,0.0083,14.875,-23.375,-59.625,1.94,-1.15,Walking,7
1.42,1.354902223,25,3,3,3,0,-1151.0,0.72,-3.85,-1.98,-1.26,-2.68,0.03,6.3125,21.8125,678.25,0.10565185546875,0.74053955078125,0.0418701171875,0.0083,14.875,-23.375,-59.5625,1.98,-1.16,Walking,7
1.43,1.354902223,25,3,3,3,0,-1194.0,0.56,-3.98,-2.42,-1.45,-2.81,-0.76,5.4375,23.4375,677.8125,0.10687255859375,0.74066162109375,0.0435791015625,0.0083,14.875,-23.375,-59.5,2.02,-1.17,Walking,7
1.44,1.369405356,25,3,3,3,0,-1194.0,0.56,-3.98,-2.42,-1.45,-2.81,-0.76,5.4375,23.4375,677.8125,0.10687255859375,0.74066162109375,0.0435791015625,0.0083,14.875,-23.375,-59.5,2.02,-1.17,Walking,7
1.44,1.369405356,25,3,3,3,0,-1358.0,0.97,-3.78,-4.07,-1.08,-2.6,-1.24,4.25,25.625,677.4375,0.1080322265625,0.74066162109375,0.04559326171875,0.0083,14.875,-23.375,-59.4375,2.06,-1.18,Walking,7
1.45,1.38460018,25,3,3,3,0,-1472.0,1.78,-3.29,-5.22,-0.32,-2.1,-1.1,6.9375,27.5625,676.9375,0.109375,0.74078369140625,0.04766845703125,0.0083,14.875,-23.375,-59.375,2.11,-1.19,Walking,7
1.46,1.38460018,25,3,3,3,0,-1562.0,2.51,-2.81,-6.13,0.35,-1.59,-0.15,17.9375,28.6875,675.5625,0.11114501953125,0.7415771484375,0.049560546875,0.0093,14.1875,-23.25,-59.25,2.15,-1.22,Walking,7
1.47,1.414806845,25,3,3,3,0,-1596.0,2.99,-2.58,-6.49,0.79,-1.3,1.29,33.875,28.5625,673.125,0.11328125,0.7432861328125,0.05096435546875,0.0093,14.1875,-23.25,-59.125,2.2,-1.28,Walking,7
1.48,1.414806845,25,3,3,3,0,-1504.0,2.95,-2.8,-5.59,0.7,-1.44,1.77,44.25,27.625,669.875,0.11553955078125,0.74560546875,0.05224609375,0.0093,14.1875,-23.25,-59.0,2.24,-1.35,Walking,7
1.49,1.429534913,25,3,3,3,0,-1414.0,3.08,-2.51,-4.71,0.79,-1.08,0.72,41.3125,26.6875,666.9375,0.1173095703125,0.74774169921875,0.05389404296875,0.0093,14.1875,-23.25,-58.875,2.28,-1.43,Walking,7
1.5,1.429534913,25,3,3,3,0,-1338.0,3.38,-1.88,-3.97,1.04,-0.4,-0.78,30.125,26.25,664.8125,0.11859130859375,0.74920654296875,0.0560302734375,0.0093,14.1875,-23.25,-58.75,2.33,-1.47,Walking,7
1.51,1.44551644,25,3,3,3,0,-1278.0,3.73,-1.15,-3.39,1.35,0.34,-1.85,19.4375,25.5625,663.4375,0.1195068359375,0.75,0.05841064453125,0.009,13.0625,-21.75,-58.6875,2.37,-1.5,Walking,7
1.52,1.44551644,25,3,3,3,0,-1144.0,4.31,0.38,-2.05,1.89,1.9,-1.73,11.5625,23.9375,662.625,0.12042236328125,0.7503662109375,0.060546875,0.009,13.0625,-21.75,-58.625,2.41,-1.52,Walking,7
1.53,1.474987306,25,3,3,3,0,-1063.0,4.66,0.92,-1.26,2.21,2.46,-0.27,9.3125,21.375,661.875,0.12164306640625,0.75067138671875,0.06195068359375,0.009,13.0625,-21.75,-58.5,2.45,-1.53,Walking,7
1.54,1.474987306,25,3,3,3,0,-992.0,5.15,1.48,-0.56,2.67,3.04,2.11,10.4375,20.0625,660.9375,0.1236572265625,0.75115966796875,0.06231689453125,0.009,13.0625,-21.75,-58.4375,2.48,-1.56,Walking,7
1.55,1.489166505,25,3,3,3,0,-934.0,5.64,2.02,0.0,3.13,3.62,4.69,10.5,20.3125,659.75,0.1265869140625,0.751708984375,0.0616455078125,0.009,13.0625,-21.75,-58.375,2.5,-1.59,Walking,7
1.56,1.489166505,25,3,3,3,0,-822.0,6.46,2.56,1.11,3.93,4.18,6.71,7.9375,20.6875,658.625,0.1302490234375,0.75213623046875,0.0601806640625,0.0098,13.5,-19.0,-58.3125,2.53,-1.62,Walking,7
1.57,1.504617758,25,3,3,3,0,-794.0,6.26,2.31,1.37,3.71,3.96,7.45,5.125,20.75,657.5625,0.13421630859375,0.75244140625,0.058349609375,0.0098,13.5,-19.0,-58.25,2.55,-1.65,Walking,7
1.58,1.504617758,25,3,3,3,0,-801.0,5.51,1.77,1.29,2.94,3.44,6.84,4.4375,19.8125,656.625,0.13787841796875,0.752685546875,0.05670166015625,0.0098,13.5,-19.0,-58.1875,2.57,-1.67,Walking,7
1.59,1.534437705,25,3,3,3,0,-895.0,3.99,0.87,0.34,1.39,2.58,5.69,6.25,18.6875,655.6875,0.14105224609375,0.75299072265625,0.05548095703125,0.0098,13.5,-19.0,-58.125,2.59,-1.7,Walking,7
1.6,1.534437705,25,3,3,3,0,-929.0,3.49,0.43,0.0,0.88,2.16,4.84,6.875,17.5,654.75,0.14385986328125,0.7532958984375,0.0545654296875,0.0098,13.5,-19.0,-58.0625,2.61,-1.72,Walking,7
1.61,1.550898764,25,3,3,3,0,-957.0,3.08,0.08,-0.29,0.45,1.83,4.43,6.3125,15.8125,653.875,0.14642333984375,0.75360107421875,0.0537109375,0.0104,12.375,-17.5,-58.0,2.62,-1.75,Walking,7
1.62,1.550898764,25,3,3,3,0,-942.0,2.75,-0.34,-0.15,0.1,1.42,3.84,5.0625,13.625,653.125,0.148681640625,0.75384521484375,0.052978515625,0.0104,12.375,-17.5,-57.9375,2.64,-1.77,Walking,7
1.63,1.565207073,25,3,3,3,0,-897.0,2.37,-1.01,0.29,-0.28,0.77,3.4,4.1875,11.1875,652.5,0.15057373046875,0.7540283203125,0.05224609375,0.0104,12.375,-17.5,-57.875,2.65,-1.78,Walking,7
1.64,1.565207073,25,3,3,3,0,-866.0,2.12,-1.16,0.59,-0.53,0.63,3.27,1.3125,8.9375,652.125,0.15228271484375,0.75408935546875,0.05145263671875,0.0104,12.375,-17.5,-57.875,2.66,-1.8,Walking,7
1.65,1.610813071,25,3,3,3,0,-829.0,1.69,-1.32,0.96,-0.97,0.48,2.74,-3.5625,6.375,652.125,0.1536865234375,0.75384521484375,0.05059814453125,0.0104,12.375,-17.5,-57.875,2.66,-1.8,Walking,7
1.66,1.610813071,25,3,3,3,0,-806.0,1.3,-1.47,1.19,-1.36,0.32,1.79,-9.125,3.25,652.5625,0.154541015625,0.75335693359375,0.0499267578125,0.0123,12.875,-17.0625,-57.875,2.66,-1.79,Walking,7
1.67,1.613975872,25,3,3,3,0,-743.0,0.89,-1.6,1.83,-1.77,0.16,0.95,-14.5,0.0,653.4375,0.15496826171875,0.7525634765625,0.04937744140625,0.0123,12.875,-17.0625,-57.875,2.66,-1.77,Walking,7
1.68,1.613975872,25,3,3,3,0,-709.0,1.08,-1.51,2.18,-1.57,0.23,0.54,-18.625,-3.5,654.625,0.155029296875,0.7515869140625,0.0487060546875,0.0123,12.875,-17.0625,-57.9375,2.66,-1.74,Walking,7
1.69,1.62453825,25,3,3,3,0,-709.0,1.08,-1.51,2.18,-1.57,0.23,0.54,-18.625,-3.5,654.625,0.155029296875,0.7515869140625,0.0487060546875,0.0123,12.875,-17.0625,-57.9375,2.66,-1.74,Walking,7
1.7,1.62453825,25,3,3,3,0,-667.0,1.26,-1.41,2.6,-1.38,0.29,0.35,-19.8125,-6.75,656.0,0.15478515625,0.7506103515625,0.04791259765625,0.0123,12.875,-17.0625,-58.0,2.64,-1.71,Walking,7
1.7,1.639389161,25,3,3,3,0,-646.0,1.31,-1.24,2.83,-1.31,0.43,0.04,-19.9375,-9.875,657.375,0.15423583984375,0.74957275390625,0.04705810546875,0.0123,12.875,-17.0625,-58.0625,2.63,-1.68,Walking,7
1.71,1.639389161,25,3,3,3,0,-582.0,1.87,-1.3,3.48,-0.73,0.34,-0.23,-18.6875,-12.4375,658.6875,0.15338134765625,0.74871826171875,0.04620361328125,0.0123,12.0625,-16.0,-58.125,2.61,-1.64,Walking,7
1.72,1.654439902,25,3,3,3,0,-545.0,2.15,-1.34,3.86,-0.43,0.28,-0.42,-14.4375,-13.625,659.75,0.15240478515625,0.748046875,0.04541015625,0.0123,12.0625,-16.0,-58.1875,2.59,-1.62,Walking,7
1.73,1.654439902,25,3,3,3,0,-511.0,2.32,-1.43,4.2,-0.24,0.17,-0.28,-9.0,-14.4375,660.4375,0.15142822265625,0.74774169921875,0.04461669921875,0.0123,12.0625,-16.0,-58.25,2.56,-1.6,Walking,7
1.74,1.685416627,25,3,3,3,0,-491.0,2.73,-1.41,4.41,0.19,0.18,0.35,-2.625,-14.5,660.625,0.15057373046875,0.747802734375,0.04364013671875,0.0123,12.0625,-16.0,-58.3125,2.54,-1.6,Walking,7
1.75,1.685416627,25,3,3,3,0,-501.0,2.8,-1.31,4.31,0.28,0.3,1.35,2.9375,-14.0,660.375,0.150146484375,0.7481689453125,0.04229736328125,0.0123,12.0625,-16.0,-58.3125,2.52,-1.61,Walking,7
1.76,1.699580242,25,3,3,3,0,-516.0,2.79,-1.12,4.17,0.29,0.5,2.3,7.875,-13.625,659.6875,0.1500244140625,0.74884033203125,0.04071044921875,0.0127,12.0625,-16.25,-58.375,2.49,-1.63,Walking,7
1.77,1.699580242,25,3,3,3,0,-539.0,2.77,-0.94,3.95,0.31,0.71,2.88,11.0,-13.3125,658.75,0.150146484375,0.74969482421875,0.0389404296875,0.0127,12.0625,-16.25,-58.375,2.46,-1.65,Walking,7
1.78,1.714546103,25,3,3,3,0,-607.0,2.71,-0.69,3.26,0.27,0.99,3.24,12.5625,-13.5625,657.6875,0.15032958984375,0.75067138671875,0.03704833984375,0.0127,12.0625,-16.25,-58.375,2.43,-1.68,Walking,7
1.79,1.714546103,25,3,3,3,0,-640.0,2.79,-0.58,2.94,0.38,1.13,3.46,12.25,-14.1875,656.625,0.15057373046875,0.7515869140625,0.03497314453125,0.0127,12.0625,-16.25,-58.375,2.4,-1.71,Walking,7
1.8,1.745472129,25,3,3,3,0,-675.0,2.76,-0.59,2.6,0.38,1.14,3.4,9.75,-14.5625,655.75,0.15081787109375,0.75238037109375,0.03289794921875,0.0127,12.0625,-16.25,-58.4375,2.37,-1.74,Walking,7
1.81,1.745472129,25,3,3,3,0,-705.0,2.79,-0.8,2.3,0.44,0.94,2.89,5.75,-14.5,655.125,0.15087890625,0.75299072265625,0.031005859375,0.0124,12.5,-16.25,-58.4375,2.35,-1.75,Walking,7
1.82,1.759754233,25,3,3,3,0,-755.0,2.73,-1.58,1.81,0.4,0.17,1.92,-0.5625,-14.5,655.0625,0.15057373046875,0.753173828125,0.02935791015625,0.0124,12.5,-16.25,-58.5,2.32,-1.76,Walking,7
1.83,1.759754233,25,3,3,3,0,-781.0,2.68,-2.08,1.56,0.38,-0.33,0.9,-7.9375,-14.1875,655.5625,0.14996337890625,0.7529296875,0.02813720703125,0.0124,12.5,-16.25,-58.5625,2.29,-1.75,Walking,7
1.84,1.774095949,25,3,3,3,0,-806.0,2.6,-2.51,1.31,0.33,-0.78,0.03,-14.3125,-14.0625,656.5625,0.14910888671875,0.7523193359375,0.02716064453125,0.0124,12.5,-16.25,-58.625,2.27,-1.72,Walking,7
1.85,1.774095949,25,3,3,3,0,-829.0,2.56,-2.89,1.09,0.31,-1.2,-0.52,-19.375,-14.625,657.9375,0.14801025390625,0.75140380859375,0.02630615234375,0.0124,12.5,-16.25,-58.6875,2.25,-1.69,Walking,7
1.86,1.804516847,25,3,3,3,0,-838.0,2.61,-3.45,1.02,0.38,-1.8,-0.54,-22.9375,-16.0,659.5625,0.1468505859375,0.75030517578125,0.02532958984375,0.012,11.375,-16.0,-58.75,2.22,-1.65,Walking,7
1.87,1.804516847,25,3,3,3,0,-853.0,2.53,-3.62,0.88,0.33,-2.0,-0.37,-24.5625,-18.25,661.25,0.14556884765625,0.7491455078125,0.024169921875,0.012,11.375,-16.0,-58.8125,2.19,-1.61,Walking,7
1.88,1.820182944,25,3,3,3,0,-880.0,2.49,-3.76,0.62,0.33,-2.19,-0.17,-25.0625,-20.6875,663.0,0.14422607421875,0.74798583984375,0.02276611328125,0.012,11.375,-16.0,-58.9375,2.16,-1.57,Walking,7
1.89,1.820182944,25,3,3,3,0,-991.0,2.67,-4.13,-0.46,0.55,-2.6,0.22,-24.0,-23.125,664.625,0.142822265625,0.7469482421875,0.02105712890625,0.012,11.375,-16.0,-59.0,2.12,-1.53,Walking,7
1.9,1.850674643,25,3,3,3,0,-1068.0,2.68,-4.37,-1.21,0.6,-2.86,0.81,-20.1875,-25.4375,665.9375,0.14154052734375,0.74609375,0.01904296875,0.012,11.375,-16.0,-59.125,2.08,-1.5,Walking,7
1.91,1.850674643,25,3,3,3,0,-1124.0,2.57,-4.64,-1.76,0.54,-3.15,1.61,-13.3125,-27.125,666.75,0.140380859375,0.7457275390625,0.0167236328125,0.0127,12.5,-17.0625,-59.1875,2.03,-1.48,Walking,7
1.92,1.86514966,25,3,3,3,0,-1158.0,2.41,-4.92,-2.1,0.42,-3.43,2.75,-5.6875,-29.1875,666.9375,0.13946533203125,0.74578857421875,0.01385498046875,0.0127,12.5,-17.0625,-59.25,1.98,-1.48,Walking,7
1.93,1.86514966,25,3,3,3,0,-1201.0,2.22,-5.21,-2.51,0.3,-3.72,3.98,-0.75,-30.75,666.6875,0.13885498046875,0.74615478515625,0.010498046875,0.0127,12.5,-17.0625,-59.3125,1.92,-1.49,Walking,7
1.94,1.925449424,25,3,3,3,0,-1217.0,2.31,-5.03,-2.66,0.44,-3.53,5.05,0.25,-32.4375,666.3125,0.1385498046875,0.74658203125,0.00665283203125,0.0127,12.5,-17.0625,-59.375,1.86,-1.5,Walking,7
1.95,1.925449424,25,3,3,3,0,-1220.0,2.6,-4.78,-2.68,0.8,-3.27,5.75,-1.6875,-33.75,665.9375,0.138427734375,0.74688720703125,0.00238037109375,0.0127,12.5,-17.0625,-59.5,1.8,-1.51,Walking,7
1.96,1.928929282,25,3,3,3,0,-1220.0,2.6,-4.78,-2.68,0.8,-3.27,5.75,-1.6875,-33.75,665.9375,0.138427734375,0.74688720703125,0.00238037109375,0.0127,12.5,-17.0625,-59.5,1.8,-1.51,Walking,7
1.97,1.928929282,25,3,3,3,0,-1223.0,2.98,-4.67,-2.7,1.25,-3.16,5.85,-3.5625,-34.0625,665.75,0.1383056640625,0.74713134765625,-0.00201416015625,0.012,12.0625,-18.25,-59.5625,1.73,-1.51,Walking,7
1.97,1.93209249,25,3,3,3,0,-1306.0,3.78,-4.57,-3.52,2.11,-3.05,5.42,-2.6875,-33.0,665.4375,0.1380615234375,0.74737548828125,-0.006103515625,0.012,12.0625,-18.25,-59.625,1.67,-1.52,Walking,7
1.98,1.93209249,25,3,3,3,0,-1384.0,4.04,-4.13,-4.29,2.43,-2.6,4.89,1.5,-30.5625,664.9375,0.1378173828125,0.74786376953125,-0.009765625,0.012,12.0625,-18.25,-59.6875,1.61,-1.53,Walking,7
1.99,1.935007895,25,3,3,3,0,-1438.0,4.08,-3.42,-4.83,2.52,-1.86,5.06,11.6875,-28.0625,663.6875,0.1378173828125,0.74884033203125,-0.0133056640625,0.012,12.0625,-18.25,-59.6875,1.55,-1.56,Walking,7
2.0,1.935007895,25,3,3,3,0,-1448.0,3.98,-2.61,-4.93,2.48,-1.0,6.07,24.625,-24.875,661.5,0.13836669921875,0.75048828125,-0.016845703125,0.012,12.0625,-18.25,-59.6875,1.5,-1.61,Walking,7
2.01,1.954477825,25,3,3,3,0,-1431.0,3.37,-1.13,-4.76,1.91,0.54,7.13,32.6875,-20.5,658.6875,0.13958740234375,0.75250244140625,-0.02056884765625,0.012,10.6875,-18.5625,-59.6875,1.45,-1.68,Walking,7
2.02,1.954477825,25,3,3,3,0,-1406.0,3.17,-0.43,-4.51,1.75,1.3,7.56,29.6875,-15.25,656.0625,0.14129638671875,0.7542724609375,-0.02410888671875,0.012,10.6875,-18.5625,-59.625,1.41,-1.74,Walking,7
2.04,1.969265626,25,3,3,3,0,-1369.0,2.83,0.19,-4.14,1.44,1.97,7.37,14.8125,-9.375,654.4375,0.143310546875,0.755126953125,-0.0274658203125,0.012,10.6875,-18.5625,-59.625,1.38,-1.78,Walking,7
2.04,1.969265626,25,3,3,3,0,-1325.0,2.29,0.83,-3.71,0.92,2.62,6.47,-4.4375,-2.8125,654.1875,0.1453857421875,0.7548828125,-0.03033447265625,0.012,10.6875,-18.5625,-59.625,1.37,-1.78,Walking,7
2.05,2.00110014,25,3,3,3,0,-1214.0,0.81,1.56,-2.59,-0.55,3.32,5.41,-16.4375,3.8125,654.875,0.14752197265625,0.7537841796875,-0.03253173828125,0.012,10.6875,-18.5625,-59.625,1.36,-1.76,Walking,7
2.06,2.00110014,25,3,3,3,0,-1164.0,0.28,2.01,-2.08,-1.08,3.75,4.31,-16.5,7.5625,655.625,0.14947509765625,0.752685546875,-0.03411865234375,0.0129,12.875,-17.875,-59.6875,1.37,-1.74,Walking,7
2.07,2.015163372,25,3,3,3,0,-1123.0,-0.26,2.41,-1.68,-1.64,4.14,2.78,-7.75,7.125,655.9375,0.15087890625,0.75213623046875,-0.034912109375,0.0129,12.875,-17.875,-59.6875,1.38,-1.73,Walking,7
2.08,2.015163372,25,3,3,3,0,-1009.0,-1.81,2.79,-0.54,-3.19,4.54,1.07,5.3125,3.375,655.5,0.1514892578125,0.75238037109375,-0.03509521484375,0.0129,12.875,-17.875,-59.6875,1.38,-1.74,Walking,7
2.09,2.030329388,25,3,3,3,0,-967.0,-2.34,2.79,-0.13,-3.72,4.56,-0.63,19.25,-2.0625,654.1875,0.1512451171875,0.75347900390625,-0.03472900390625,0.0129,12.875,-17.875,-59.625,1.38,-1.77,Walking,7
2.1,2.030329388,25,3,3,3,0,-972.0,-2.45,2.63,-0.18,-3.82,4.46,-2.39,30.75,-8.25,652.3125,0.14996337890625,0.75537109375,-0.03375244140625,0.0129,12.875,-17.875,-59.5625,1.37,-1.82,Walking,7
2.12,2.059906089,25,3,3,3,0,-1015.0,-2.13,2.41,-0.62,-3.49,4.29,-4.25,34.6875,-13.875,650.3125,0.14764404296875,0.757568359375,-0.0323486328125,0.0129,12.5,-16.6875,-59.5,1.35,-1.87,Walking,7
2.12,2.059906089,25,3,3,3,0,-1087.0,-0.78,1.7,-1.34,-2.12,3.61,-6.28,28.625,-18.875,648.8125,0.144287109375,0.75946044921875,-0.0303955078125,0.0129,12.5,-16.6875,-59.5,1.34,-1.91,Walking,7
2.13,2.074578289,25,3,3,3,0,-1080.0,0.03,1.21,-1.28,-1.28,3.14,-8.25,15.0625,-22.3125,648.375,0.1400146484375,0.76068115234375,-0.028076171875,0.0129,12.5,-16.6875,-59.5,1.32,-1.92,Walking,7
2.14,2.074578289,25,3,3,3,0,-1048.0,0.64,0.6,-0.95,-0.65,2.51,-10.41,2.1875,-25.25,649.0,0.13470458984375,0.76129150390625,-0.02508544921875,0.0129,12.5,-16.6875,-59.5,1.3,-1.91,Walking,7
2.15,2.089420534,25,3,3,3,0,-1020.0,1.15,0.0,-0.66,-0.13,1.89,-12.47,-5.75,-26.625,650.25,0.128662109375,0.76141357421875,-0.021484375,0.0129,12.5,-16.6875,-59.5625,1.28,-1.88,Walking,7
2.16,2.089420534,25,3,3,3,0,-945.0,2.18,-1.32,0.09,0.91,0.52,-14.23,-11.875,-25.5625,652.0625,0.1219482421875,0.76116943359375,-0.01708984375,0.0123,12.0,-14.375,-59.625,1.26,-1.84,Walking,7
2.17,2.119826295,25,3,3,3,0,-929.0,2.46,-2.27,0.26,1.19,-0.47,-16.29,-16.0,-22.125,654.1875,0.11480712890625,0.7606201171875,-0.01177978515625,0.0123,12.0,-14.375,-59.6875,1.26,-1.79,Walking,7
2.18,2.119826295,25,3,3,3,0,-912.0,2.59,-2.94,0.43,1.32,-1.19,-19.12,-16.6875,-17.5,656.5,0.10693359375,0.75994873046875,-0.0050048828125,0.0123,12.0,-14.375,-59.75,1.27,-1.74,Walking,7
2.19,2.135635744,25,3,3,3,0,-881.0,2.62,-3.08,0.76,1.33,-1.39,-20.25,-16.0,-12.875,658.75,0.0989990234375,0.7591552734375,0.0025634765625,0.0123,12.0,-14.375,-59.8125,1.28,-1.68,Walking,7
2.21,2.135635744,25,3,3,3,0,-758.0,2.93,-2.52,1.99,1.62,-0.89,-18.52,-16.0625,-7.875,660.875,0.09197998046875,0.75823974609375,0.0096435546875,0.0123,12.0,-14.375,-59.875,1.3,-1.63,Walking,7
2.21,2.14952824,25,3,3,3,0,-698.0,2.76,-1.96,2.6,1.43,-0.38,-15.75,-16.75,-2.6875,662.8125,0.0863037109375,0.7572021484375,0.015869140625,0.0129,11.0,-10.5,-59.875,1.33,-1.58,Walking,7
2.22,2.14952824,25,3,3,3,0,-653.0,2.37,-1.47,3.05,1.01,0.06,-13.46,-17.0625,2.5625,664.625,0.08172607421875,0.75604248046875,0.02142333984375,0.0129,11.0,-10.5,-59.875,1.35,-1.53,Walking,7
2.23,2.165222983,25,3,3,3,0,-574.0,1.51,-1.08,3.85,0.11,0.4,-11.73,-16.8125,7.75,666.25,0.078125,0.7548828125,0.02655029296875,0.0129,11.0,-10.5,-59.9375,1.39,-1.48,Walking,7
2.24,2.165222983,25,3,3,3,0,-574.0,1.51,-1.08,3.85,0.11,0.4,-11.73,-16.8125,7.75,666.25,0.078125,0.7548828125,0.02655029296875,0.0129,11.0,-10.5,-59.9375,1.39,-1.48,Walking,7
2.25,2.180062624,25,3,3,3,0,-550.0,1.16,-1.13,4.09,-0.26,0.31,-10.47,-14.625,12.0625,667.6875,0.0751953125,0.7537841796875,0.031494140625,0.0129,11.0,-10.5,-59.9375,1.42,-1.44,Walking,7
2.25,2.180062624,25,3,3,3,0,-530.0,0.94,-1.15,4.28,-0.52,0.25,-9.23,-9.875,15.0,668.6875,0.07293701171875,0.75299072265625,0.03607177734375,0.0129,11.0,-10.5,-59.9375,1.46,-1.41,Walking,7
2.26,2.209459067,25,3,3,3,0,-527.0,0.81,-1.11,4.31,-0.69,0.27,-8.07,-5.125,16.25,669.3125,0.0711669921875,0.75238037109375,0.040283203125,0.0132,12.0,-6.25,-59.875,1.5,-1.39,Walking,7
2.27,2.209459067,25,3,3,3,0,-515.0,0.34,-0.88,4.42,-1.2,0.49,-7.14,-1.5,15.625,669.625,0.06964111328125,0.75201416015625,0.0440673828125,0.0132,12.0,-6.25,-59.875,1.54,-1.38,Walking,7
2.28,2.224750693,25,3,3,3,0,-512.0,0.21,-0.84,4.45,-1.35,0.52,-6.44,0.125,13.4375,669.8125,0.0682373046875,0.75177001953125,0.0474853515625,0.0132,12.0,-6.25,-59.875,1.57,-1.36,Walking,7
2.29,2.224750693,25,3,3,3,0,-516.0,0.25,-0.79,4.41,-1.35,0.57,-5.82,1.125,10.8125,669.9375,0.06689453125,0.75164794921875,0.050537109375,0.0132,12.0,-6.25,-59.8125,1.6,-1.36,Walking,7
2.3,2.239351239,25,3,3,3,0,-535.0,0.31,-0.8,4.21,-1.3,0.55,-5.13,2.5625,8.625,669.9375,0.06561279296875,0.7515869140625,0.0531005859375,0.0132,12.0,-6.25,-59.8125,1.62,-1.35,Walking,7
2.31,2.239351239,25,3,3,3,0,-590.0,0.47,-1.03,3.66,-1.16,0.31,-4.32,5.4375,5.5625,669.6875,0.06439208984375,0.751708984375,0.05523681640625,0.0132,10.5625,-0.875,-59.8125,1.64,-1.35,Walking,7
2.32,2.25427527,25,3,3,3,0,-627.0,0.51,-1.18,3.29,-1.13,0.18,-3.75,7.875,3.0,669.3125,0.063232421875,0.75201416015625,0.0570068359375,0.0132,10.5625,-0.875,-59.75,1.65,-1.36,Walking,7
2.33,2.25427527,25,3,3,3,0,-663.0,0.54,-1.33,2.93,-1.11,0.03,-3.49,9.125,1.9375,668.8125,0.06207275390625,0.75244140625,0.05859375,0.0132,10.5625,-0.875,-59.75,1.65,-1.37,Walking,7
2.34,2.332847943,25,3,3,3,0,-699.0,0.67,-1.59,2.56,-0.99,-0.21,-3.4,8.0625,1.625,668.375,0.0609130859375,0.75274658203125,0.06011962890625,0.0132,10.5625,-0.875,-59.75,1.66,-1.38,Walking,7
2.35,2.332847943,25,3,3,3,0,-784.0,1.01,-2.25,1.71,-0.65,-0.87,-3.37,4.5,2.5625,668.1875,0.05987548828125,0.7529296875,0.06170654296875,0.0132,10.5625,-0.875,-59.75,1.67,-1.38,Walking,7
2.37,2.336060915,25,3,3,3,0,-840.0,1.32,-2.77,1.15,-0.36,-1.4,-3.21,0.6875,3.625,668.1875,0.0589599609375,0.7528076171875,0.063232421875,0.0139,11.5,2.875,-59.75,1.68,-1.37,Walking,7
2.37,2.336060915,25,3,3,3,0,-909.0,1.65,-3.41,0.46,-0.04,-2.05,-2.88,-2.625,5.3125,668.4375,0.05828857421875,0.75250244140625,0.064697265625,0.0139,11.5,2.875,-59.75,1.7,-1.36,Walking,7
2.38,2.33921863,25,3,3,3,0,-964.0,1.96,-4.05,-0.08,0.25,-2.69,-2.48,-3.375,6.75,668.75,0.057861328125,0.752197265625,0.06610107421875,0.0139,11.5,2.875,-59.6875,1.71,-1.35,Walking,7
2.39,2.33921863,25,3,3,3,0,-1071.0,2.52,-4.96,-1.16,0.78,-3.61,-1.76,0.625,7.875,668.6875,0.0577392578125,0.75213623046875,0.0672607421875,0.0139,11.5,2.875,-59.6875,1.73,-1.35,Walking,7
2.4,2.344949017,25,3,3,3,0,-1087.0,2.83,-5.08,-1.32,1.08,-3.71,-0.75,9.0,9.0625,668.0625,0.05804443359375,0.7525634765625,0.068115234375,0.0139,11.5,2.875,-59.6875,1.74,-1.36,Walking,7
2.41,2.344949017,25,3,3,3,0,-1073.0,2.99,-4.9,-1.19,1.23,-3.5,0.42,18.8125,10.25,666.6875,0.0587158203125,0.75360107421875,0.068603515625,0.0142,11.1875,4.0625,-59.625,1.76,-1.4,Walking,7
2.43,2.389778078,25,3,3,3,0,-1099.0,2.61,-3.82,-1.46,0.83,-2.37,1.7,23.8125,11.9375,664.9375,0.05999755859375,0.7550048828125,0.0687255859375,0.0142,11.1875,4.0625,-59.5625,1.78,-1.44,Walking,7
2.44,2.389778078,25,3,3,3,0,-1146.0,2.19,-3.34,-1.93,0.39,-1.86,2.95,20.1875,14.4375,663.375,0.06182861328125,0.75616455078125,0.06842041015625,0.0142,11.1875,4.0625,-59.5,1.8,-1.48,Walking,7
2.45,2.39294214,25,3,3,3,0,-1192.0,1.57,-3.15,-2.4,-0.24,-1.64,3.86,10.875,17.375,662.375,0.0643310546875,0.7568359375,0.06787109375,0.0142,11.1875,4.0625,-59.4375,1.82,-1.5,Walking,7
2.46,2.39294214,25,3,3,3,0,-1214.0,0.98,-3.29,-2.63,-0.86,-1.78,4.36,0.125,20.75,662.125,0.06719970703125,0.75689697265625,0.0672607421875,0.0142,11.1875,4.0625,-59.375,1.85,-1.51,Walking,7
2.46,2.419662681,25,3,3,3,0,-1264.0,0.31,-3.91,-3.13,-1.56,-2.4,4.6,-8.4375,23.125,662.3125,0.0704345703125,0.7564697265625,0.06658935546875,0.0145,10.6875,6.375,-59.375,1.88,-1.51,Walking,7
2.47,2.419662681,25,3,3,3,0,-1317.0,0.51,-3.97,-3.67,-1.39,-2.47,4.75,-13.1875,24.25,662.875,0.07379150390625,0.7557373046875,0.06591796875,0.0145,10.6875,6.375,-59.375,1.91,-1.5,Walking,7
2.48,2.450941082,25,3,3,3,0,-1396.0,1.2,-3.52,-4.46,-0.73,-2.03,4.87,-11.0625,23.75,663.25,0.0771484375,0.755126953125,0.065185546875,0.0145,10.6875,6.375,-59.3125,1.94,-1.49,Walking,7
2.49,2.450941082,25,3,3,3,0,-1462.0,2.08,-2.63,-5.14,0.11,-1.12,5.23,0.6875,22.25,662.875,0.0804443359375,0.7552490234375,0.06427001953125,0.0145,10.6875,6.375,-59.25,1.97,-1.5,Walking,7
2.5,2.454010866,25,3,3,3,0,-1462.0,2.08,-2.63,-5.14,0.11,-1.12,5.23,0.6875,22.25,662.875,0.0804443359375,0.7552490234375,0.06427001953125,0.0145,10.6875,6.375,-59.25,1.97,-1.5,Walking,7
2.51,2.454010866,25,3,3,3,0,-1445.0,3.17,-1.37,-4.98,1.17,0.17,5.98,21.1875,21.8125,661.0,0.0838623046875,0.7564697265625,0.06317138671875,0.0145,10.6875,6.375,-59.1875,1.99,-1.55,Walking,7
2.52,2.456893963,25,3,3,3,0,-1404.0,3.11,-1.16,-4.58,1.08,0.46,6.22,38.25,22.6875,658.0,0.08734130859375,0.75872802734375,0.06219482421875,0.0153,10.0,7.5625,-59.0625,2.02,-1.63,Walking,7
2.53,2.456893963,25,3,3,3,0,-1349.0,2.93,-0.94,-4.06,0.87,0.76,5.15,39.625,22.5,654.875,0.09039306640625,0.76092529296875,0.06158447265625,0.0153,10.0,7.5625,-58.9375,2.05,-1.7,Walking,7
2.54,2.480234621,25,3,3,3,0,-1330.0,2.83,-0.47,-3.88,0.75,1.28,3.52,26.6875,21.0,652.75,0.0928955078125,0.76239013671875,0.0615234375,0.0153,10.0,7.5625,-58.8125,2.08,-1.76,Walking,7
2.54,2.480234621,25,3,3,3,0,-1379.0,2.96,0.62,-4.38,0.85,2.4,2.52,11.6875,19.25,651.75,0.094970703125,0.762939453125,0.0616455078125,0.0153,10.0,7.5625,-58.75,2.1,-1.78,Walking,7
2.55,2.494968508,25,3,3,3,0,-1346.0,3.63,1.07,-4.05,1.5,2.87,2.59,6.1875,16.25,651.0625,0.096923828125,0.76324462890625,0.06146240234375,0.0153,10.0,7.5625,-58.75,2.12,-1.8,Walking,7
2.56,2.494968508,25,3,3,3,0,-1275.0,4.36,1.34,-3.35,2.22,3.17,3.91,11.8125,12.4375,650.0,0.09906005859375,0.76397705078125,0.0606689453125,0.0153,10.875,9.875,-58.6875,2.14,-1.83,Walking,7
2.57,2.510056154,25,3,3,3,0,-1114.0,5.62,1.54,-1.76,3.48,3.41,5.53,15.4375,9.875,648.5625,0.1015625,0.764892578125,0.05902099609375,0.0153,10.875,9.875,-58.625,2.14,-1.87,Walking,7
2.58,2.510056154,25,3,3,3,0,-1041.0,5.99,1.42,-1.04,3.84,3.33,6.58,16.1875,9.5625,647.0,0.1043701171875,0.76593017578125,0.05694580078125,0.0153,10.875,9.875,-58.5625,2.14,-1.91,Walking,7
2.59,2.540751833,25,3,3,3,0,-1032.0,6.06,1.32,-0.95,3.91,3.27,7.11,15.1875,10.75,645.5,0.10748291015625,0.766845703125,0.0546875,0.0153,10.875,9.875,-58.5,2.15,-1.95,Walking,7
2.61,2.540751833,25,3,3,3,0,-1038.0,5.81,1.26,-1.02,3.66,3.25,7.18,12.4375,11.5625,644.1875,0.11065673828125,0.76763916015625,0.052490234375,0.0153,10.875,9.875,-58.4375,2.15,-1.99,Walking,7
2.62,2.554461468,25,3,3,3,0,-1043.0,4.09,0.68,-1.08,1.93,2.7,6.28,8.0,11.6875,643.1875,0.113525390625,0.76812744140625,0.050537109375,0.0149,10.1875,10.6875,-58.4375,2.16,-2.01,Walking,7
2.62,2.554461468,25,3,3,3,0,-1040.0,3.21,0.2,-1.06,1.04,2.24,4.7,3.9375,11.375,642.5625,0.11590576171875,0.76837158203125,0.04925537109375,0.0149,10.1875,10.6875,-58.375,2.16,-2.03,Walking,7
2.63,2.569645062,25,3,3,3,0,-1010.0,2.38,-0.29,-0.76,0.2,1.74,3.67,1.4375,10.6875,642.1875,0.11785888671875,0.7684326171875,0.04833984375,0.0149,10.1875,10.6875,-58.3125,2.17,-2.04,Walking,7
2.64,2.569645062,25,3,3,3,0,-983.0,1.75,-0.81,-0.49,-0.42,1.23,3.48,0.3125,10.0625,641.9375,0.1197509765625,0.76837158203125,0.04742431640625,0.0149,10.1875,10.6875,-58.3125,2.18,-2.05,Walking,7
2.65,2.584189984,25,3,3,3,0,-924.0,1.03,-1.54,0.08,-1.15,0.51,4.06,-3.875,10.125,641.875,0.121826171875,0.7681884765625,0.0462646484375,0.0149,10.1875,10.6875,-58.3125,2.19,-2.05,Walking,7
2.66,2.584189984,25,3,3,3,0,-876.0,0.71,-1.79,0.56,-1.48,0.26,4.74,-10.375,9.3125,642.25,0.1241455078125,0.767578125,0.044677734375,0.0151,11.0,9.875,-58.3125,2.19,-2.05,Walking,7
2.68,2.615495119,25,3,3,3,0,-827.0,0.38,-1.82,1.05,-1.82,0.2,5.07,-17.375,7.25,643.0625,0.12640380859375,0.76666259765625,0.04278564453125,0.0151,11.0,9.875,-58.3125,2.2,-2.03,Walking,7
2.69,2.615495119,25,3,3,3,0,-771.0,0.22,-1.81,1.62,-1.96,0.19,4.88,-23.4375,4.0625,644.3125,0.12847900390625,0.76544189453125,0.04071044921875,0.0151,11.0,9.875,-58.375,2.19,-2.0,Walking,7
2.7,2.63048751,25,3,3,3,0,-654.0,0.17,-1.75,2.8,-2.0,0.22,4.24,-25.0,0.3125,645.75,0.1300048828125,0.76416015625,0.03863525390625,0.0151,11.0,9.875,-58.4375,2.18,-1.97,Walking,7
2.71,2.63048751,25,3,3,3,0,-593.0,0.35,-1.7,3.42,-1.81,0.24,3.39,-22.625,-3.125,647.0625,0.13104248046875,0.76300048828125,0.03680419921875,0.0151,11.0,9.875,-58.5,2.17,-1.94,Walking,7
2.71,2.661423545,25,3,3,3,0,-535.0,0.61,-1.58,4.01,-1.54,0.33,2.46,-17.875,-5.625,648.125,0.131591796875,0.7620849609375,0.0352783203125,0.0155,11.375,9.5,-58.5625,2.16,-1.92,Walking,7
2.72,2.661423545,25,3,3,3,0,-496.0,0.78,-1.41,4.41,-1.35,0.49,1.79,-12.25,-7.125,648.875,0.13177490234375,0.76153564453125,0.03399658203125,0.0155,11.375,9.5,-58.5625,2.14,-1.9,Walking,7
2.73,2.674605389,25,3,3,3,0,-440.0,1.27,-1.17,4.97,-0.85,0.72,1.69,-7.5,-8.0,649.3125,0.1318359375,0.76123046875,0.03277587890625,0.0155,11.375,9.5,-58.625,2.12,-1.89,Walking,7
2.74,2.674605389,25,3,3,3,0,-406.0,1.4,-1.0,5.32,-0.7,0.89,2.13,-2.3125,-8.125,649.375,0.13201904296875,0.76123046875,0.0313720703125,0.0155,11.375,9.5,-58.625,2.11,-1.9,Walking,7
2.76,2.689850669,25,3,3,3,0,-389.0,1.39,-0.73,5.49,-0.69,1.17,2.92,2.6875,-8.8125,649.0,0.1324462890625,0.76153564453125,0.02972412109375,0.0155,11.375,9.5,-58.625,2.09,-1.91,Walking,7
2.76,2.689850669,25,3,3,3,0,-389.0,1.39,-0.73,5.49,-0.69,1.17,2.92,2.6875,-8.8125,649.0,0.1324462890625,0.76153564453125,0.02972412109375,0.0155,11.375,9.5,-58.625,2.09,-1.91,Walking,7
2.77,2.704407432,25,3,3,3,0,-442.0,1.52,-0.32,4.96,-0.54,1.6,3.54,6.8125,-10.25,648.3125,0.1329345703125,0.7620849609375,0.02777099609375,0.0153,10.5625,8.6875,-58.6875,2.06,-1.93,Walking,7
2.78,2.704407432,25,3,3,3,0,-467.0,1.7,-0.25,4.71,-0.33,1.69,3.61,9.875,-11.875,647.375,0.1334228515625,0.7628173828125,0.02569580078125,0.0153,10.5625,8.6875,-58.6875,2.03,-1.95,Walking,7
2.79,2.719489341,25,3,3,3,0,-489.0,1.95,-0.23,4.49,-0.05,1.74,3.25,11.875,-13.3125,646.375,0.13360595703125,0.76361083984375,0.0238037109375,0.0153,10.5625,8.6875,-58.6875,2.01,-1.98,Walking,7
2.79,2.719489341,25,3,3,3,0,-514.0,2.0,-0.23,4.24,0.02,1.77,2.54,11.8125,-14.6875,645.4375,0.13348388671875,0.76446533203125,0.02203369140625,0.0153,10.5625,8.6875,-58.6875,1.98,-2.0,Walking,7
2.8,2.75032475,25,3,3,3,0,-575.0,2.11,-0.48,3.64,0.16,1.53,1.84,9.4375,-15.875,644.6875,0.133056640625,0.76519775390625,0.0205078125,0.0153,10.5625,8.6875,-58.6875,1.95,-2.02,Walking,7
2.82,2.75032475,25,3,3,3,0,-613.0,2.1,-0.79,3.26,0.18,1.23,0.9,4.1875,-16.375,644.375,0.13226318359375,0.765625,0.019287109375,0.0153,11.75,8.375,-58.6875,1.92,-2.03,Walking,7
2.83,2.764667645,25,3,3,3,0,-657.0,2.18,-1.25,2.82,0.28,0.77,-0.11,-1.375,-16.125,644.5,0.131103515625,0.76568603515625,0.0184326171875,0.0153,11.75,8.375,-58.75,1.89,-2.03,Walking,7
2.84,2.764667645,25,3,3,3,0,-704.0,2.19,-1.68,2.36,0.32,0.33,-0.94,-5.875,-16.0625,645.0,0.1297607421875,0.76556396484375,0.01788330078125,0.0153,11.75,8.375,-58.8125,1.87,-2.01,Walking,7
2.85,2.7799303,25,3,3,3,0,-772.0,2.17,-2.7,1.69,0.32,-0.7,-1.69,-9.375,-15.8125,645.8125,0.12811279296875,0.76519775390625,0.01763916015625,0.0153,11.75,8.375,-58.875,1.84,-1.99,Walking,7
2.86,2.7799303,25,3,3,3,0,-796.0,2.1,-3.19,1.46,0.27,-1.21,-2.52,-11.0625,-15.25,646.8125,0.126220703125,0.76470947265625,0.0177001953125,0.0153,11.75,8.375,-58.875,1.82,-1.97,Walking,7
2.87,2.810547609,25,3,3,3,0,-824.0,2.05,-3.63,1.19,0.24,-1.68,-3.41,-12.625,-14.0625,647.9375,0.1241455078125,0.76409912109375,0.01824951171875,0.0161,11.25,7.5,-58.9375,1.81,-1.94,Walking,7
2.87,2.810547609,25,3,3,3,0,-847.0,1.94,-4.0,0.97,0.14,-2.08,-4.09,-15.0625,-13.0625,649.25,0.12188720703125,0.76336669921875,0.01904296875,0.0161,11.25,7.5,-59.0,1.8,-1.91,Walking,7
2.88,2.824513267,25,3,3,3,0,-906.0,2.2,-4.48,0.39,0.41,-2.6,-4.39,-16.8125,-12.0625,650.75,0.11962890625,0.76251220703125,0.02008056640625,0.0161,11.25,7.5,-59.0625,1.79,-1.87,Walking,7
2.89,2.824513267,25,3,3,3,0,-960.0,2.31,-4.54,-0.13,0.53,-2.7,-4.25,-17.375,-11.875,652.25,0.11737060546875,0.76165771484375,0.02099609375,0.0161,11.25,7.5,-59.125,1.77,-1.84,Walking,7
2.91,2.854526613,25,3,3,3,0,-1018.0,2.36,-4.5,-0.7,0.6,-2.69,-3.51,-14.125,-12.625,653.4375,0.1153564453125,0.76092529296875,0.0216064453125,0.0161,11.25,7.5,-59.1875,1.76,-1.81,Walking,7
2.92,2.854526613,25,3,3,3,0,-1124.0,1.98,-4.56,-1.76,0.24,-2.77,-2.28,-6.4375,-13.8125,654.0625,0.1136474609375,0.76068115234375,0.021728515625,0.0154,10.875,6.6875,-59.25,1.74,-1.79,Walking,7
2.93,2.858002321,25,3,3,3,0,-1157.0,1.85,-4.76,-2.09,0.13,-2.96,-0.88,2.625,-15.875,654.0,0.1123046875,0.760986328125,0.021240234375,0.0154,10.875,6.6875,-59.25,1.72,-1.79,Walking,7
2.94,2.858002321,25,3,3,3,0,-1179.0,1.96,-4.96,-2.3,0.26,-3.15,0.27,9.125,-18.0,653.375,0.1112060546875,0.76165771484375,0.02020263671875,0.0154,10.875,6.6875,-59.25,1.69,-1.81,Walking,7
2.95,2.886776328,25,3,3,3,0,-1201.0,2.27,-4.98,-2.52,0.61,-3.15,1.3,10.8125,-20.4375,652.5625,0.11029052734375,0.762451171875,0.0186767578125,0.0154,10.875,6.6875,-59.25,1.65,-1.83,Walking,7
2.96,2.886776328,25,3,3,3,0,-1223.0,3.41,-4.69,-2.74,1.79,-2.84,2.24,8.4375,-21.8125,651.875,0.10955810546875,0.76318359375,0.0166015625,0.0154,10.875,6.6875,-59.3125,1.61,-1.85,Walking,7
2.96,2.900043337,25,3,3,3,0,-1233.0,3.77,-4.79,-2.83,2.2,-2.93,2.84,4.25,-21.9375,651.4375,0.109130859375,0.763671875,0.01422119140625,0.015,10.875,8.25,-59.3125,1.57,-1.86,Walking,7
2.97,2.900043337,25,3,3,3,0,-1275.0,3.85,-5.11,-3.25,2.31,-3.25,2.9,-1.0,-21.0625,651.3125,0.10870361328125,0.76385498046875,0.0118408203125,0.015,10.875,8.25,-59.375,1.53,-1.86,Walking,7
2.98,2.930844484,25,3,3,3,0,-1361.0,3.62,-5.34,-4.1,2.13,-3.48,2.88,-5.375,-20.1875,651.5625,0.1083984375,0.76373291015625,0.009521484375,0.015,10.875,8.25,-59.4375,1.49,-1.86,Walking,7
3.0,2.930844484,25,3,3,3,0,-1557.0,2.66,-3.94,-6.05,1.21,-2.07,3.6,-3.0625,-20.25,651.5625,0.1082763671875,0.7637939453125,0.0068359375,0.015,10.875,8.25,-59.4375,1.45,-1.86,Walking,7
3.01,2.944447959,25,3,3,3,0,-1604.0,2.01,-2.81,-6.52,0.6,-0.91,5.46,12.1875,-20.6875,650.375,0.10882568359375,0.76470947265625,0.0035400390625,0.015,10.875,8.25,-59.4375,1.4,-1.89,Walking,7
3.02,2.944447959,25,3,3,3,0,-1565.0,1.34,-1.93,-6.14,-0.01,0.02,7.53,32.3125,-21.875,647.6875,0.1099853515625,0.7667236328125,-0.00048828125,0.015,11.25,6.6875,-59.4375,1.35,-1.96,Walking,7
3.02,2.975405072,25,3,3,3,0,-1565.0,1.34,-1.93,-6.14,-0.01,0.02,7.53,32.3125,-21.875,647.6875,0.1099853515625,0.7667236328125,-0.00048828125,0.015,11.25,6.6875,-59.4375,1.35,-1.96,Walking,7
3.03,2.975405072,25,3,3,3,0,-1523.0,0.89,-1.24,-5.72,-0.4,0.8,8.18,43.0625,-23.125,644.1875,0.11126708984375,0.769287109375,-0.0047607421875,0.015,11.25,6.6875,-59.375,1.3,-2.04,Walking,7
3.04,2.978812176,25,3,3,3,0,-1438.0,1.22,-0.42,-4.88,-0.02,1.69,7.57,39.125,-22.8125,641.0,0.1123046875,0.77166748046875,-0.0087890625,0.015,11.25,6.6875,-59.3125,1.24,-2.11,Walking,7
3.04,2.978812176,25,3,3,3,0,-1366.0,1.56,-0.11,-4.17,0.36,2.05,6.31,24.375,-20.125,638.875,0.1131591796875,0.77313232421875,-0.0123291015625,0.015,11.25,6.6875,-59.25,1.19,-2.16,Walking,7
3.06,2.989339602,25,3,3,3,0,-1305.0,1.55,0.1,-3.57,0.39,2.29,4.65,8.5625,-14.75,638.0,0.11376953125,0.77374267578125,-0.01495361328125,0.015,11.25,6.6875,-59.25,1.16,-2.18,Walking,7
3.07,2.989339602,25,3,3,3,0,-1231.0,1.32,0.36,-2.82,0.18,2.56,3.13,4.0625,-7.8125,637.5,0.11431884765625,0.77398681640625,-0.01666259765625,0.0137,12.25,4.375,-59.25,1.14,-2.19,Walking,7
3.08,3.019851971,25,3,3,3,0,-1060.0,0.38,1.4,-1.11,-0.74,3.62,2.12,10.8125,-2.375,636.625,0.1148681640625,0.77459716796875,-0.017578125,0.0137,12.25,4.375,-59.25,1.13,-2.22,Walking,7
3.09,3.019851971,25,3,3,3,0,-997.0,-0.3,2.02,-0.5,-1.43,4.28,1.74,21.5625,0.3125,635.0,0.11553955078125,0.7757568359375,-0.01812744140625,0.0137,12.25,4.375,-59.1875,1.12,-2.25,Walking,7
3.1,3.034436403,25,3,3,3,0,-950.0,-0.94,2.32,-0.03,-2.07,4.63,1.05,29.8125,1.1875,632.875,0.11602783203125,0.77734375,-0.0181884765625,0.0137,12.25,4.375,-59.125,1.12,-2.3,Walking,7
3.11,3.034436403,25,3,3,3,0,-940.0,-1.29,1.91,0.05,-2.42,4.27,-0.5,29.125,2.1875,630.875,0.11602783203125,0.77886962890625,-0.017578125,0.0137,12.25,4.375,-59.0625,1.13,-2.35,Walking,7
3.12,3.050991945,25,3,3,3,0,-974.0,-0.66,1.43,-0.3,-1.81,3.81,-2.92,18.3125,4.0625,629.8125,0.1153564453125,0.77984619140625,-0.01593017578125,0.0137,12.0,1.6875,-59.0,1.14,-2.38,Walking,7
3.13,3.050991945,25,3,3,3,0,-1020.0,0.1,0.88,-0.75,-1.07,3.26,-5.86,3.0,6.5,630.0,0.11383056640625,0.77996826171875,-0.01300048828125,0.0137,12.0,1.6875,-59.0,1.17,-2.37,Walking,7
3.14,3.080071698,25,3,3,3,0,-1048.0,0.75,0.17,-1.04,-0.45,2.52,-8.61,-6.6875,7.875,631.0,0.1114501953125,0.77960205078125,-0.009033203125,0.0137,12.0,1.6875,-59.0,1.2,-2.35,Walking,7
3.15,3.080071698,25,3,3,3,0,-991.0,1.57,-1.07,-0.47,0.32,1.25,-10.15,-8.6875,8.625,632.25,0.108642578125,0.779052734375,-0.00433349609375,0.0137,12.0,1.6875,-59.0,1.24,-2.32,Walking,7
3.16,3.094424115,25,3,3,3,0,-958.0,1.74,-1.48,-0.14,0.45,0.81,-10.84,-5.8125,9.5625,633.375,0.10565185546875,0.77862548828125,0.000732421875,0.0137,12.0,1.6875,-59.0,1.29,-2.3,Walking,7
3.17,3.094424115,25,3,3,3,0,-927.0,1.83,-1.7,0.17,0.49,0.57,-11.5,-2.125,10.25,634.1875,0.1024169921875,0.77838134765625,0.00616455078125,0.0129,11.5625,3.1875,-59.0,1.33,-2.28,Walking,7
3.18,3.109341636,25,3,3,3,0,-890.0,1.98,-1.81,0.53,0.6,0.44,-12.04,-0.125,10.9375,634.875,0.09912109375,0.77825927734375,0.0118408203125,0.0129,11.5625,3.1875,-59.0,1.38,-2.26,Walking,7
3.19,3.109341636,25,3,3,3,0,-811.0,2.17,-1.76,1.32,0.73,0.47,-12.25,-0.0625,12.0,635.5625,0.09576416015625,0.77801513671875,0.0177001953125,0.0129,11.5625,3.1875,-58.9375,1.43,-2.24,Walking,7
3.2,3.140135581,25,3,3,3,0,-773.0,2.28,-1.62,1.69,0.79,0.59,-12.12,-0.8125,13.3125,636.25,0.09259033203125,0.7777099609375,0.0235595703125,0.0129,11.5625,3.1875,-58.9375,1.48,-2.22,Walking,7
3.21,3.140135581,25,3,3,3,0,-731.0,2.32,-1.49,2.11,0.78,0.7,-11.79,-3.5625,14.5,637.0625,0.089599609375,0.7772216796875,0.02935791015625,0.0129,11.5625,3.1875,-58.9375,1.54,-2.19,Walking,7
3.22,3.154758791,25,3,3,3,0,-685.0,2.3,-1.37,2.57,0.7,0.79,-11.49,-7.6875,15.625,638.125,0.08673095703125,0.77642822265625,0.03497314453125,0.0129,11.1875,6.25,-58.9375,1.59,-2.16,Walking,7
3.23,3.154758791,25,3,3,3,0,-581.0,2.22,-1.21,3.61,0.57,0.9,-11.12,-11.875,17.125,639.4375,0.08416748046875,0.77545166015625,0.04052734375,0.0129,11.1875,6.25,-58.9375,1.64,-2.12,Walking,7
3.24,3.169439699,25,3,3,3,0,-540.0,2.15,-1.19,4.02,0.44,0.88,-10.69,-14.3125,18.75,640.875,0.08184814453125,0.77423095703125,0.04595947265625,0.0129,11.1875,6.25,-58.9375,1.7,-2.08,Walking,7
3.25,3.169439699,25,3,3,3,0,-514.0,2.07,-1.2,4.28,0.31,0.83,-10.06,-14.4375,20.3125,642.25,0.079833984375,0.77301025390625,0.05126953125,0.0129,11.1875,6.25,-58.875,1.75,-2.03,Walking,7
3.26,3.200967938,25,3,3,3,0,-486.0,1.88,-1.24,4.56,0.06,0.75,-9.41,-12.3125,22.3125,643.4375,0.07818603515625,0.77191162109375,0.05633544921875,0.0129,11.1875,6.25,-58.875,1.81,-1.99,Walking,7
3.27,3.200967938,25,3,3,3,0,-460.0,1.88,-1.19,4.81,0.0,0.76,-8.57,-9.0625,23.8125,644.375,0.076904296875,0.77099609375,0.06121826171875,0.0142,11.1875,10.1875,-58.875,1.87,-1.96,Walking,7
3.28,3.214447756,25,3,3,3,0,-450.0,1.83,-1.14,4.9,-0.1,0.8,-7.48,-5.625,24.5625,644.9375,0.07598876953125,0.77020263671875,0.065673828125,0.0142,11.1875,10.1875,-58.8125,1.93,-1.94,Walking,7
3.29,3.214447756,25,3,3,3,0,-459.0,1.51,-1.09,4.81,-0.46,0.82,-6.42,-3.4375,24.375,645.3125,0.07550048828125,0.76959228515625,0.0697021484375,0.0142,11.1875,10.1875,-58.75,1.98,-1.92,Walking,7
3.3,3.229709312,25,3,3,3,0,-506.0,0.64,-1.22,4.34,-1.38,0.68,-5.5,-1.8125,22.25,645.5625,0.0750732421875,0.7691650390625,0.0732421875,0.0142,11.1875,10.1875,-58.75,2.03,-1.9,Walking,7
3.3,3.229709312,25,3,3,3,0,-506.0,0.64,-1.22,4.34,-1.38,0.68,-5.5,-1.8125,22.25,645.5625,0.0750732421875,0.7691650390625,0.0732421875,0.0142,11.1875,10.1875,-58.75,2.03,-1.9,Walking,7
3.31,3.244601036,25,3,3,3,0,-530.0,0.65,-1.35,4.08,-1.41,0.53,-4.69,-0.6875,18.0625,645.6875,0.07470703125,0.768798828125,0.076171875,0.0142,11.1875,10.1875,-58.6875,2.07,-1.89,Walking,7
3.32,3.244601036,25,3,3,3,0,-577.0,0.82,-1.65,3.62,-1.27,0.22,-3.99,-1.4375,13.75,645.875,0.07427978515625,0.7684326171875,0.07861328125,0.0147,9.375,13.25,-58.6875,2.1,-1.88,Walking,7
3.33,3.259720013,25,3,3,3,0,-644.0,0.97,-2.03,2.94,-1.15,-0.16,-3.56,-4.25,11.5,646.25,0.0738525390625,0.7679443359375,0.0806884765625,0.0147,9.375,13.25,-58.625,2.12,-1.86,Walking,7
3.34,3.259720013,25,3,3,3,0,-747.0,1.23,-2.69,1.91,-0.92,-0.84,-3.03,-7.625,10.8125,646.8125,0.07354736328125,0.767333984375,0.08251953125,0.0147,9.375,13.25,-58.625,2.15,-1.84,Walking,7
3.35,3.28966618,25,3,3,3,0,-781.0,1.36,-2.91,1.57,-0.81,-1.08,-2.33,-10.0625,10.875,647.5625,0.0736083984375,0.7666015625,0.08404541015625,0.0147,9.375,13.25,-58.625,2.17,-1.82,Walking,7
3.36,3.28966618,25,3,3,3,0,-799.0,1.5,-3.13,1.39,-0.69,-1.33,-1.51,-11.125,11.5,648.3125,0.07391357421875,0.76580810546875,0.08526611328125,0.0147,9.375,13.25,-58.625,2.19,-1.8,Walking,7
3.37,3.304698977,25,3,3,3,0,-827.0,1.53,-3.29,1.1,-0.68,-1.51,-0.57,-11.9375,11.75,649.0625,0.0745849609375,0.7650146484375,0.0860595703125,0.0142,10.5,13.25,-58.625,2.21,-1.78,Walking,7
3.38,3.304698977,25,3,3,3,0,-911.0,1.63,-3.53,0.26,-0.6,-1.77,0.42,-11.9375,11.5,649.75,0.07562255859375,0.7642822265625,0.08648681640625,0.0142,10.5,13.25,-58.625,2.23,-1.76,Walking,7
3.39,3.319343833,25,3,3,3,0,-962.0,1.66,-3.58,-0.23,-0.58,-1.83,1.51,-9.5,11.3125,650.25,0.07696533203125,0.7637939453125,0.08642578125,0.0142,10.5,13.25,-58.625,2.25,-1.75,Walking,7
3.4,3.319343833,25,3,3,3,0,-997.0,1.75,-3.62,-0.6,-0.5,-1.87,2.38,-3.625,10.75,650.3125,0.0784912109375,0.76361083984375,0.08599853515625,0.0142,10.5,13.25,-58.5625,2.26,-1.75,Walking,7
3.41,3.367535118,25,3,3,3,0,-1009.0,1.69,-3.71,-0.72,-0.58,-1.95,2.53,3.125,10.875,649.9375,0.080078125,0.7637939453125,0.0855712890625,0.0142,10.5,13.25,-58.5625,2.27,-1.76,Walking,7
3.42,3.367535118,25,3,3,3,0,-1056.0,1.82,-3.92,-1.19,-0.47,-2.14,2.28,8.5625,11.3125,649.125,0.08160400390625,0.76434326171875,0.08526611328125,0.0145,8.6875,13.25,-58.5,2.29,-1.78,Walking,7
3.43,3.3955553,25,3,3,3,0,-1092.0,1.83,-4.0,-1.56,-0.47,-2.2,1.88,10.0625,13.4375,648.25,0.08306884765625,0.764892578125,0.0853271484375,0.0145,8.6875,13.25,-58.4375,2.31,-1.8,Walking,7
3.44,3.3955553,25,3,3,3,0,-1134.0,1.84,-4.04,-1.99,-0.49,-2.22,1.57,7.6875,16.1875,647.5625,0.0845947265625,0.7652587890625,0.08563232421875,0.0145,8.6875,13.25,-58.375,2.33,-1.81,Walking,7
3.45,3.399107546,25,3,3,3,0,-1196.0,2.26,-3.81,-2.62,-0.1,-1.98,1.17,5.375,18.625,647.0,0.08624267578125,0.76544189453125,0.086181640625,0.0145,8.6875,13.25,-58.3125,2.36,-1.83,Walking,7
3.46,3.399107546,25,3,3,3,0,-1204.0,2.41,-3.72,-2.71,0.02,-1.88,0.42,4.25,20.0,646.5,0.087646484375,0.76556396484375,0.087158203125,0.0145,8.6875,13.25,-58.3125,2.39,-1.83,Walking,7
3.47,3.402103192,25,3,3,3,0,-1202.0,2.37,-3.82,-2.7,-0.05,-1.98,-0.56,4.875,19.625,646.0625,0.0887451171875,0.76568603515625,0.0885009765625,0.0131,9.25,12.875,-58.25,2.42,-1.84,Walking,7
3.48,3.402103192,25,3,3,3,0,-1204.0,2.31,-4.15,-2.73,-0.14,-2.3,-1.65,4.0,18.875,645.6875,0.08941650390625,0.76568603515625,0.09027099609375,0.0131,9.25,12.875,-58.1875,2.46,-1.84,Walking,7
3.49,3.425817792,25,3,3,3,0,-1325.0,2.3,-4.72,-3.95,-0.19,-2.88,-2.17,0.0,19.0625,645.625,0.0899658203125,0.76544189453125,0.09222412109375,0.0131,9.25,12.875,-58.125,2.49,-1.84,Walking,7
3.5,3.425817792,25,3,3,3,0,-1410.0,2.65,-4.25,-4.81,0.12,-2.41,-1.9,-1.5,17.6875,645.6875,0.0904541015625,0.76507568359375,0.093994140625,0.0131,9.25,12.875,-58.0625,2.52,-1.83,Walking,7
3.51,3.439968386,25,3,3,3,0,-1423.0,3.3,-3.18,-4.94,0.75,-1.33,-0.5,7.6875,13.0625,645.0625,0.09112548828125,0.765380859375,0.094970703125,0.0131,9.25,12.875,-58.0,2.55,-1.84,Walking,7
3.52,3.439968386,25,3,3,3,0,-1332.0,3.91,-2.16,-4.04,1.35,-0.26,2.16,29.125,8.0,642.875,0.0921630859375,0.76708984375,0.0947265625,0.0134,8.5625,14.0625,-57.9375,2.55,-1.9,Walking,7
3.53,3.469889244,25,3,3,3,0,-1125.0,4.34,-1.0,-1.99,1.79,0.98,5.04,48.375,5.1875,639.25,0.09381103515625,0.76995849609375,0.09326171875,0.0134,8.5625,14.0625,-57.8125,2.55,-1.99,Walking,7
3.54,3.469889244,25,3,3,3,0,-1152.0,4.54,-0.25,-2.28,1.99,1.83,5.96,47.1875,4.3125,635.625,0.09576416015625,0.77276611328125,0.09136962890625,0.0134,8.5625,14.0625,-57.6875,2.55,-2.08,Walking,7
3.55,3.500498415,25,3,3,3,0,-1183.0,4.66,0.46,-2.6,2.12,2.61,5.76,33.0625,2.8125,633.0,0.09759521484375,0.77484130859375,0.08935546875,0.0134,8.5625,14.0625,-57.625,2.54,-2.15,Walking,7
3.56,3.500498415,25,3,3,3,0,-1181.0,4.77,0.95,-2.59,2.24,3.15,5.91,20.8125,-0.375,631.25,0.09942626953125,0.7762451171875,0.0870361328125,0.0134,8.5625,14.0625,-57.5625,2.52,-2.2,Walking,7
3.57,3.503610517,25,3,3,3,0,-1180.0,5.51,1.6,-2.59,3.0,3.85,6.01,16.4375,-4.25,629.8125,0.10107421875,0.77740478515625,0.08441162109375,0.0143,8.875,13.6875,-57.5625,2.5,-2.24,Walking,7
3.57,3.503610517,25,3,3,3,0,-1180.0,5.51,1.6,-2.59,3.0,3.85,6.01,16.4375,-4.25,629.8125,0.10107421875,0.77740478515625,0.08441162109375,0.0143,8.875,13.6875,-57.5625,2.5,-2.24,Walking,7
3.58,3.515427167,25,3,3,3,0,-1163.0,5.92,1.83,-2.42,3.45,4.13,6.38,17.625,-7.125,628.25,0.10260009765625,0.77874755859375,0.08148193359375,0.0143,8.875,13.6875,-57.5,2.47,-2.29,Walking,7
3.59,3.515427167,25,3,3,3,0,-1133.0,6.23,1.85,-2.13,3.78,4.19,7.04,16.8125,-7.75,626.75,0.10430908203125,0.77996826171875,0.0782470703125,0.0143,8.875,13.6875,-57.5,2.44,-2.33,Walking,7
3.6,3.530070559,25,3,3,3,0,-1124.0,6.83,1.32,-2.04,4.41,3.7,7.53,9.75,-6.125,625.6875,0.1063232421875,0.7808837890625,0.07476806640625,0.0143,8.875,13.6875,-57.5,2.41,-2.37,Walking,7
3.61,3.530070559,25,3,3,3,0,-1151.0,6.85,0.9,-2.3,4.46,3.3,7.6,-1.75,-2.375,625.375,0.10870361328125,0.7811279296875,0.0714111328125,0.0143,8.875,13.6875,-57.5,2.39,-2.39,Walking,7
3.62,3.575792523,25,3,3,3,0,-1176.0,6.27,0.24,-2.55,3.89,2.63,6.66,-14.375,3.0625,625.9375,0.1112060546875,0.780517578125,0.068603515625,0.0139,7.75,12.0625,-57.5,2.38,-2.38,Walking,7
3.63,3.575792523,25,3,3,3,0,-1183.0,5.08,-0.51,-2.61,2.69,1.83,4.92,-25.0625,7.375,627.375,0.113525390625,0.779296875,0.06671142578125,0.0139,7.75,12.0625,-57.5625,2.38,-2.35,Walking,7
3.64,3.579179201,25,3,3,3,0,-1132.0,3.17,-1.78,-2.1,0.78,0.54,3.95,-27.6875,9.75,629.0,0.11566162109375,0.77783203125,0.06524658203125,0.0139,7.75,12.0625,-57.625,2.38,-2.32,Walking,7
3.65,3.579179201,25,3,3,3,0,-1099.0,2.64,-2.17,-1.77,0.24,0.11,4.16,-23.8125,10.0,630.375,0.117919921875,0.776611328125,0.0638427734375,0.0139,7.75,12.0625,-57.625,2.39,-2.29,Walking,7
3.66,3.589402102,25,3,3,3,0,-1055.0,2.09,-2.46,-1.32,-0.3,-0.18,4.7,-19.375,9.125,631.375,0.12017822265625,0.77557373046875,0.0621337890625,0.0139,7.75,12.0625,-57.6875,2.39,-2.27,Walking,7
3.67,3.589402102,25,3,3,3,0,-1023.0,1.4,-2.61,-0.99,-0.99,-0.36,5.16,-18.4375,7.375,632.25,0.12255859375,0.774658203125,0.0601806640625,0.014,8.6875,8.5625,-57.6875,2.39,-2.25,Walking,7
3.68,3.620223147,25,3,3,3,0,-904.0,0.86,-2.99,0.2,-1.52,-0.75,5.39,-20.375,4.8125,633.3125,0.12481689453125,0.773681640625,0.05792236328125,0.014,8.6875,8.5625,-57.75,2.39,-2.23,Walking,7
3.69,3.620223147,25,3,3,3,0,-831.0,0.89,-2.83,0.93,-1.49,-0.61,5.32,-21.375,1.8125,634.375,0.1268310546875,0.77264404296875,0.05560302734375,0.014,8.6875,8.5625,-57.8125,2.38,-2.21,Walking,7
3.7,3.634349123,25,3,3,3,0,-761.0,0.8,-2.32,1.64,-1.56,-0.12,5.25,-19.0,-1.75,635.375,0.12860107421875,0.77178955078125,0.05303955078125,0.014,8.6875,8.5625,-57.8125,2.36,-2.2,Walking,7
3.71,3.634349123,25,3,3,3,0,-696.0,0.67,-1.72,2.3,-1.67,0.45,4.9,-15.6875,-5.3125,636.125,0.12994384765625,0.7711181640625,0.050537109375,0.014,8.6875,8.5625,-57.875,2.34,-2.18,Walking,7
3.72,3.649707115,25,3,3,3,0,-584.0,0.48,-1.06,3.42,-1.83,1.1,3.99,-12.375,-8.5625,636.75,0.13079833984375,0.7706298828125,0.04827880859375,0.014,7.875,7.5,-57.9375,2.32,-2.17,Walking,7
3.73,3.649707115,25,3,3,3,0,-525.0,0.52,-0.93,4.03,-1.77,1.23,2.94,-11.0,-11.0625,637.375,0.131103515625,0.770263671875,0.04632568359375,0.014,7.875,7.5,-58.0,2.3,-2.16,Walking,7
3.74,3.679636355,25,3,3,3,0,-468.0,0.45,-0.86,4.6,-1.81,1.29,2.19,-11.3125,-13.25,638.0625,0.1309814453125,0.76983642578125,0.0445556640625,0.014,7.875,7.5,-58.0625,2.27,-2.15,Walking,7
3.75,3.679636355,25,3,3,3,0,-439.0,0.41,-0.81,4.9,-1.83,1.31,1.79,-12.4375,-15.125,638.875,0.13067626953125,0.76934814453125,0.0428466796875,0.014,7.875,7.5,-58.125,2.24,-2.13,Walking,7
3.76,3.695141929,25,3,3,3,0,-358.0,0.5,-0.65,5.72,-1.71,1.46,1.46,-12.875,-16.375,639.6875,0.130126953125,0.76885986328125,0.04119873046875,0.014,7.875,7.5,-58.1875,2.21,-2.11,Walking,7
3.77,3.695141929,25,3,3,3,0,-326.0,0.6,-0.57,6.06,-1.58,1.53,1.31,-11.4375,-17.75,640.5,0.12939453125,0.7684326171875,0.03955078125,0.0142,9.0,5.5,-58.25,2.18,-2.1,Walking,7
3.78,3.710224001,25,3,3,3,0,-310.0,0.65,-0.5,6.23,-1.49,1.58,1.38,-8.75,-19.0625,641.0625,0.12860107421875,0.7681884765625,0.037841796875,0.0142,9.0,5.5,-58.3125,2.14,-2.09,Walking,7
3.79,3.710224001,25,3,3,3,0,-330.0,1.23,-0.26,6.04,-0.87,1.82,1.62,-5.6875,-20.9375,641.4375,0.1278076171875,0.76812744140625,0.03594970703125,0.0142,9.0,5.5,-58.375,2.11,-2.08,Walking,7
3.8,3.740386802,25,3,3,3,0,-354.0,1.54,-0.03,5.81,-0.52,2.04,1.6,-5.3125,-22.0,641.75,0.12689208984375,0.76806640625,0.03399658203125,0.0142,9.0,5.5,-58.4375,2.07,-2.08,Walking,7
3.81,3.740386802,25,3,3,3,0,-387.0,1.8,0.0,5.49,-0.22,2.07,1.26,-6.9375,-22.875,642.25,0.12579345703125,0.7679443359375,0.03216552734375,0.0142,9.0,5.5,-58.5,2.03,-2.07,Walking,7
3.82,3.754667768,25,3,3,3,0,-424.0,2.07,-0.12,5.13,0.08,1.93,0.66,-8.4375,-24.25,642.875,0.12445068359375,0.76776123046875,0.03045654296875,0.0127,9.0,4.0,-58.5625,1.99,-2.05,Walking,7
3.83,3.754667768,25,3,3,3,0,-505.0,2.5,-0.58,4.33,0.55,1.45,-0.12,-10.8125,-24.0,643.6875,0.122802734375,0.76739501953125,0.02911376953125,0.0127,9.0,4.0,-58.6875,1.95,-2.04,Walking,7
3.83,3.769490196,25,3,3,3,0,-505.0,2.5,-0.58,4.33,0.55,1.45,-0.12,-10.8125,-24.0,643.6875,0.122802734375,0.76739501953125,0.02911376953125,0.0127,9.0,4.0,-58.6875,1.95,-2.04,Walking,7
3.84,3.769490196,25,3,3,3,0,-552.0,2.66,-0.92,3.88,0.75,1.08,-1.07,-13.625,-22.9375,644.75,0.12091064453125,0.76690673828125,0.02813720703125,0.0127,9.0,4.0,-58.75,1.91,-2.01,Walking,7
3.85,3.785334556,25,3,3,3,0,-611.0,2.64,-1.34,3.3,0.75,0.64,-1.82,-16.3125,-21.375,646.0625,0.118896484375,0.76617431640625,0.027587890625,0.0127,9.0,4.0,-58.8125,1.88,-1.98,Walking,7
3.86,3.785334556,25,3,3,3,0,-670.0,2.63,-1.81,2.72,0.77,0.13,-1.98,-19.375,-20.5625,647.625,0.116943359375,0.7652587890625,0.027099609375,0.0127,9.0,4.0,-58.9375,1.85,-1.94,Walking,7
3.87,3.815145307,25,3,3,3,0,-788.0,2.83,-2.5,1.55,1.0,-0.59,-1.68,-21.6875,-20.5625,649.25,0.11505126953125,0.76422119140625,0.02642822265625,0.0109,8.25,2.5,-59.0,1.82,-1.9,Walking,7
3.88,3.815145307,25,3,3,3,0,-832.0,3.14,-2.73,1.13,1.34,-0.86,-1.25,-22.5625,-20.4375,650.9375,0.11328125,0.76318359375,0.025634765625,0.0109,8.25,2.5,-59.0625,1.79,-1.86,Walking,7
3.89,3.829465985,25,3,3,3,0,-855.0,3.3,-2.91,0.91,1.53,-1.08,-0.87,-22.5,-18.875,652.5625,0.11175537109375,0.7620849609375,0.02471923828125,0.0109,8.25,2.5,-59.1875,1.76,-1.82,Walking,7
3.9,3.829465985,25,3,3,3,0,-869.0,3.3,-3.08,0.79,1.56,-1.29,-0.88,-22.0,-17.5,654.1875,0.1103515625,0.760986328125,0.02392578125,0.0109,8.25,2.5,-59.25,1.73,-1.79,Walking,7
3.91,3.845444786,25,3,3,3,0,-961.0,3.0,-3.49,-0.12,1.29,-1.74,-1.15,-22.625,-15.8125,655.875,0.10894775390625,0.75982666015625,0.0233154296875,0.0109,8.25,2.5,-59.3125,1.71,-1.75,Walking,7
3.92,3.845444786,25,3,3,3,0,-1031.0,2.8,-3.64,-0.8,1.1,-1.94,-1.21,-26.375,-13.625,657.75,0.10772705078125,0.75848388671875,0.0228271484375,0.0127,8.6875,2.0625,-59.375,1.69,-1.7,Walking,7
3.93,3.876719241,25,3,3,3,0,-1095.0,2.57,-3.94,-1.43,0.89,-2.28,-0.63,-30.1875,-11.8125,659.875,0.10675048828125,0.75689697265625,0.02215576171875,0.0127,8.6875,2.0625,-59.4375,1.67,-1.65,Walking,7
3.94,3.876719241,25,3,3,3,0,-1273.0,2.19,-4.46,-3.2,0.52,-2.86,0.23,-31.0625,-10.625,662.0,0.106201171875,0.7552490234375,0.02117919921875,0.0127,8.6875,2.0625,-59.5625,1.66,-1.6,Walking,7
3.95,3.904773359,25,3,3,3,0,-1352.0,2.09,-4.63,-3.98,0.45,-3.08,1.11,-29.5625,-10.75,663.9375,0.10595703125,0.753662109375,0.01983642578125,0.0127,8.6875,2.0625,-59.625,1.64,-1.55,Walking,7
3.96,3.904773359,25,3,3,3,0,-1417.0,2.24,-4.77,-4.62,0.62,-3.26,1.92,-26.25,-12.75,665.625,0.10589599609375,0.7523193359375,0.01806640625,0.0127,8.6875,2.0625,-59.6875,1.61,-1.51,Walking,7
3.97,3.907878787,25,3,3,3,0,-1460.0,2.69,-4.84,-5.04,1.1,-3.36,2.35,-21.75,-15.0625,666.9375,0.10577392578125,0.751220703125,0.01611328125,0.0113,8.6875,2.5,-59.75,1.58,-1.48,Walking,7
3.98,3.907878787,25,3,3,3,0,-1483.0,3.45,-5.45,-5.26,1.9,-3.99,2.29,-16.4375,-17.0625,667.9375,0.10546875,0.75048828125,0.0140380859375,0.0113,8.6875,2.5,-59.8125,1.55,-1.45,Walking,7
3.99,3.919291913,25,3,3,3,0,-1483.0,3.15,-5.98,-5.25,1.62,-4.53,2.13,-11.3125,-18.125,668.5625,0.1051025390625,0.75,0.01202392578125,0.0113,8.6875,2.5,-59.8125,1.52,-1.44,Walking,7
4.0,3.919291913,25,3,3,3,0,-1552.0,2.66,-6.29,-5.93,1.17,-4.86,2.18,-8.6875,-18.625,669.0625,0.10467529296875,0.74969482421875,0.010009765625,0.0113,8.6875,2.5,-59.875,1.48,-1.43,Walking,7
4.01,3.950537885,25,3,3,3,0,-1663.0,2.34,-5.88,-7.03,0.89,-4.45,2.9,-5.1875,-19.25,669.25,0.10443115234375,0.74957275390625,0.0076904296875,0.0113,8.6875,2.5,-59.9375,1.45,-1.42,Walking,7
4.02,3.950537885,25,3,3,3,0,-1644.0,0.95,-3.18,-6.84,-0.45,-1.73,4.61,8.4375,-22.4375,668.4375,0.1046142578125,0.75030517578125,0.004638671875,0.012,9.375,1.25,-59.9375,1.4,-1.44,Walking,7
4.03,3.965194989,25,3,3,3,0,-1546.0,0.42,-1.82,-5.87,-0.92,-0.3,6.41,35.5,-29.375,665.625,0.10498046875,0.75262451171875,0.00067138671875,0.012,9.375,1.25,-59.9375,1.34,-1.51,Walking,7
4.04,3.965194989,25,3,3,3,0,-1508.0,0.67,-0.52,-5.49,-0.6,1.1,7.31,59.75,-34.3125,661.1875,0.1053466796875,0.75628662109375,-0.00372314453125,0.012,9.375,1.25,-59.875,1.27,-1.62,Walking,7
4.05,3.980152265,25,3,3,3,0,-1464.0,1.52,0.87,-5.07,0.32,2.62,7.44,64.8125,-35.0,656.3125,0.10565185546875,0.76025390625,-0.0081787109375,0.012,9.375,1.25,-59.8125,1.2,-1.74,Walking,7
4.06,3.980152265,25,3,3,3,0,-1254.0,2.46,1.86,-2.97,1.32,3.71,6.02,53.1875,-33.0625,652.3125,0.10565185546875,0.76348876953125,-0.01202392578125,0.012,9.375,1.25,-59.75,1.13,-1.84,Walking,7
4.07,4.025814211,25,3,3,3,1,-1197.0,2.49,2.01,-2.41,1.4,3.9,3.49,29.0625,-27.4375,650.0625,0.10504150390625,0.76531982421875,-0.01470947265625,0.0106,9.0,-1.0,-59.6875,1.08,-1.89,Walking,7
4.08,4.025814211,25,3,3,3,1,-1148.0,2.28,2.16,-1.92,1.23,4.08,1.61,6.9375,-20.875,649.4375,0.104248046875,0.765869140625,-0.0164794921875,0.0106,9.0,-1.0,-59.75,1.04,-1.91,Walking,7
4.09,4.029115115,25,3,3,3,1,-1148.0,2.28,2.16,-1.92,1.23,4.08,1.61,6.9375,-20.875,649.4375,0.104248046875,0.765869140625,-0.0164794921875,0.0106,9.0,-1.0,-59.75,1.04,-1.91,Walking,7
4.09,4.029115115,25,3,3,3,1,-1074.0,1.91,2.4,-1.18,0.89,4.31,0.53,1.125,-15.375,649.3125,0.1033935546875,0.76611328125,-0.01751708984375,0.0106,9.0,-1.0,-59.75,1.02,-1.91,Walking,7
4.1,4.040153933,25,3,3,3,1,-909.0,0.46,2.62,0.46,-0.53,4.54,-0.3,6.875,-11.125,648.875,0.10260009765625,0.7666015625,-0.0179443359375,0.0106,9.0,-1.0,-59.75,1.0,-1.92,Walking,7
4.11,4.040153933,25,3,3,3,1,-893.0,-0.45,2.42,0.62,-1.44,4.37,-0.53,14.5,-8.3125,647.875,0.10186767578125,0.7674560546875,-0.01800537109375,0.0106,9.0,-1.0,-59.6875,0.99,-1.94,Walking,7
4.12,4.055361453,25,3,3,3,2,-939.0,-1.25,2.21,0.16,-2.23,4.18,-0.43,16.3125,-7.5625,646.8125,0.10125732421875,0.7684326171875,-0.01812744140625,0.0103,9.0,-2.1875,-59.6875,0.98,-1.97,Walking,7
4.13,4.055361453,25,3,3,3,2,-1079.0,-1.68,1.52,-1.24,-2.65,3.51,-0.91,9.1875,-7.8125,646.1875,0.10040283203125,0.76898193359375,-0.01806640625,0.0103,9.0,-2.1875,-59.6875,0.97,-1.98,Walking,7
4.14,4.069361209,25,3,3,3,2,-1075.0,-0.82,0.98,-1.19,-1.78,2.97,-2.27,0.0,-8.125,646.375,0.09906005859375,0.76904296875,-0.017578125,0.0103,9.0,-2.1875,-59.6875,0.96,-1.98,Walking,7
4.15,4.069361209,25,3,3,3,2,-1008.0,0.48,0.32,-0.52,-0.47,2.28,-3.79,-7.3125,-6.75,647.0625,0.0972900390625,0.76873779296875,-0.01641845703125,0.0103,9.0,-2.1875,-59.6875,0.95,-1.96,Walking,7
4.16,4.100069705,25,3,3,3,2,-948.0,1.1,-0.14,0.07,0.14,1.79,-5.57,-11.9375,-5.625,648.1875,0.094970703125,0.76812744140625,-0.01446533203125,0.0103,9.0,-2.1875,-59.75,0.96,-1.94,Walking,7
4.17,4.100069705,25,3,3,3,2,-845.0,1.79,-0.97,1.11,0.82,0.93,-7.34,-16.75,-5.3125,649.75,0.09210205078125,0.767333984375,-0.0118408203125,0.0092,8.375,-3.0,-59.8125,0.96,-1.9,Walking,7
4.18,4.131710818,25,3,3,3,2,-817.0,2.11,-1.54,1.39,1.13,0.31,-8.7,-22.5,-4.125,651.75,0.0887451171875,0.76611328125,-0.00860595703125,0.0092,8.375,-3.0,-59.8125,0.97,-1.85,Walking,7
4.19,4.131710818,25,3,3,3,2,-790.0,2.28,-2.17,1.68,1.29,-0.37,-10.01,-25.5625,-2.4375,654.0,0.08514404296875,0.76470947265625,-0.0047607421875,0.0092,8.375,-3.0,-59.875,0.99,-1.8,Walking,7
4.2,4.13517908,25,3,3,3,2,-752.0,2.27,-2.66,2.06,1.25,-0.91,-11.02,-23.9375,0.0,656.1875,0.081298828125,0.76336669921875,-0.00030517578125,0.0092,8.375,-3.0,-59.9375,1.01,-1.75,Walking,7
4.21,4.13517908,25,3,3,3,2,-678.0,2.17,-2.74,2.81,1.12,-1.03,-11.21,-18.25,2.6875,657.9375,0.0775146484375,0.7623291015625,0.00439453125,0.0092,8.375,-3.0,-60.0,1.04,-1.7,Walking,7
4.22,4.161165082,25,3,3,3,2,-638.0,2.13,-2.39,3.21,1.06,-0.71,-10.29,-10.9375,4.8125,659.125,0.07427978515625,0.7615966796875,0.00885009765625,0.0106,8.375,-2.1875,-60.0,1.06,-1.67,Walking,7
4.23,4.161165082,25,3,3,3,2,-600.0,2.04,-1.99,3.59,0.94,-0.33,-8.82,-4.875,6.9375,659.8125,0.0716552734375,0.76123046875,0.01287841796875,0.0106,8.375,-2.1875,-60.0,1.09,-1.65,Walking,7
4.24,4.19015609,25,3,3,3,2,-576.0,1.99,-1.53,3.83,0.87,0.11,-7.1,-0.125,9.9375,660.125,0.06982421875,0.7611083984375,0.01641845703125,0.0106,8.375,-2.1875,-60.0,1.12,-1.65,Walking,7
4.25,4.19015609,25,3,3,3,2,-570.0,1.56,-0.57,3.89,0.4,1.07,-5.33,2.0625,12.8125,660.1875,0.06878662109375,0.7611083984375,0.01934814453125,0.0106,8.375,-2.1875,-59.9375,1.15,-1.64,Walking,7
4.26,4.204111371,25,3,3,3,2,-569.0,1.15,-0.17,3.89,-0.04,1.46,-3.98,2.25,15.25,660.1875,0.06842041015625,0.76104736328125,0.02191162109375,0.0106,8.375,-2.1875,-59.9375,1.19,-1.64,Walking,7
4.27,4.204111371,25,3,3,3,2,-567.0,0.85,0.16,3.91,-0.36,1.8,-2.87,-0.9375,16.0625,660.3125,0.0684814453125,0.7608642578125,0.02398681640625,0.0098,7.6875,-0.1875,-59.9375,1.22,-1.63,Walking,7
4.28,4.220020632,25,3,3,3,2,-567.0,0.67,0.32,3.91,-0.57,1.95,-2.08,-4.25,15.875,660.6875,0.06878662109375,0.760498046875,0.0257568359375,0.0098,7.6875,-0.1875,-59.875,1.25,-1.62,Walking,7
4.29,4.220020632,25,3,3,3,2,-584.0,0.71,0.17,3.74,-0.57,1.79,-1.96,-6.75,14.9375,661.1875,0.06915283203125,0.75994873046875,0.02734375,0.0098,7.6875,-0.1875,-59.875,1.28,-1.61,Walking,7
4.3,4.250847822,25,3,3,3,2,-593.0,0.86,-0.04,3.64,-0.44,1.54,-2.41,-10.875,14.3125,662.0,0.06927490234375,0.75921630859375,0.02911376953125,0.0098,7.6875,-0.1875,-59.875,1.31,-1.59,Walking,7
4.31,4.250847822,25,3,3,3,2,-620.0,1.05,-0.41,3.38,-0.28,1.14,-2.35,-18.0625,14.125,663.3125,0.06939697265625,0.758056640625,0.03082275390625,0.0098,7.6875,-0.1875,-59.875,1.33,-1.55,Walking,7
4.32,4.254018923,25,3,3,3,2,-694.0,1.08,-1.46,2.64,-0.27,0.04,-1.74,-24.125,14.3125,665.0,0.06982421875,0.75653076171875,0.03216552734375,0.0105,7.25,0.5,-59.9375,1.36,-1.51,Walking,7
4.33,4.254018923,25,3,3,3,2,-726.0,1.05,-1.87,2.32,-0.34,-0.41,-0.92,-27.4375,14.0,666.875,0.07049560546875,0.7548828125,0.033203125,0.0105,7.25,0.5,-59.9375,1.39,-1.46,Walking,7
4.34,4.280217898,25,3,3,3,2,-746.0,1.06,-2.21,2.13,-0.34,-0.79,0.05,-27.625,13.3125,668.6875,0.07147216796875,0.753173828125,0.0338134765625,0.0105,7.25,0.5,-59.9375,1.41,-1.42,Walking,7
4.35,4.280217898,25,3,3,3,2,-746.0,1.06,-2.21,2.13,-0.34,-0.79,0.05,-27.625,13.3125,668.6875,0.07147216796875,0.753173828125,0.0338134765625,0.0105,7.25,0.5,-59.9375,1.41,-1.42,Walking,7
4.35,4.284458336,25,3,3,3,2,-766.0,0.9,-2.43,1.94,-0.53,-1.05,1.0,-25.75,13.125,670.375,0.07275390625,0.75164794921875,0.03399658203125,0.0105,7.25,0.5,-60.0,1.43,-1.37,Walking,7
4.36,4.284458336,25,3,3,3,2,-833.0,0.66,-2.73,1.26,-0.79,-1.39,1.56,-22.9375,12.625,671.8125,0.07421875,0.750244140625,0.033935546875,0.0105,7.25,0.5,-60.0,1.45,-1.34,Walking,7
4.37,4.34198393,25,3,3,3,2,-861.0,0.67,-2.86,0.99,-0.8,-1.55,1.74,-19.4375,12.4375,673.0,0.07574462890625,0.74908447265625,0.0338134765625,0.0108,6.5625,0.5,-60.0,1.47,-1.31,Walking,7
4.38,4.34198393,25,3,3,3,2,-886.0,0.74,-2.88,0.73,-0.74,-1.6,1.71,-16.5625,13.0,674.0,0.0772705078125,0.74810791015625,0.03375244140625,0.0108,6.5625,0.5,-60.0,1.49,-1.28,Walking,7
4.39,4.347627647,25,3,3,3,2,-911.0,0.78,-2.94,0.48,-0.72,-1.68,1.55,-15.125,13.625,674.9375,0.0787353515625,0.74713134765625,0.0338134765625,0.0108,6.5625,0.5,-60.0,1.51,-1.26,Walking,7
4.4,4.347627647,25,3,3,3,2,-952.0,0.83,-2.98,0.07,-0.7,-1.74,1.4,-13.9375,14.25,675.75,0.0802001953125,0.74627685546875,0.03399658203125,0.0108,6.5625,0.5,-60.0,1.53,-1.24,Walking,7
4.41,4.352778282,25,3,3,3,2,-977.0,0.81,-2.97,-0.16,-0.74,-1.75,1.34,-12.125,14.3125,676.5,0.0816650390625,0.7454833984375,0.0341796875,0.0108,6.5625,0.5,-60.0,1.55,-1.22,Walking,7
4.42,4.352778282,25,3,3,3,2,-1005.0,0.86,-2.9,-0.45,-0.71,-1.69,1.37,-8.25,14.25,676.9375,0.0831298828125,0.74493408203125,0.03436279296875,0.0098,7.0,-1.0,-60.0,1.58,-1.21,Walking,7
4.43,4.370516482,25,3,3,3,2,-1077.0,0.96,-2.68,-1.17,-0.63,-1.47,1.34,-1.5625,13.625,676.9375,0.08453369140625,0.7447509765625,0.03460693359375,0.0098,7.0,-1.0,-59.9375,1.6,-1.21,Walking,7
4.44,4.370516482,25,3,3,3,2,-1132.0,1.01,-2.68,-1.72,-0.61,-1.46,1.15,6.5,13.1875,676.4375,0.08575439453125,0.74505615234375,0.03497314453125,0.0098,7.0,-1.0,-59.9375,1.62,-1.22,Walking,7
4.45,4.386027265,25,3,3,3,2,-1191.0,1.06,-2.79,-2.32,-0.57,-1.54,0.89,13.25,13.1875,675.4375,0.0869140625,0.7457275390625,0.03546142578125,0.0098,7.0,-1.0,-59.875,1.64,-1.24,Walking,7
4.46,4.386027265,25,3,3,3,2,-1240.0,1.1,-3.02,-2.82,-0.55,-1.74,0.77,18.25,13.4375,674.125,0.0880126953125,0.7467041015625,0.03607177734375,0.0098,7.0,-1.0,-59.8125,1.66,-1.28,Walking,7
4.47,4.41859241,25,3,3,3,2,-1315.0,1.06,-3.61,-3.58,-0.61,-2.29,0.46,21.1875,13.9375,672.6875,0.08905029296875,0.747802734375,0.03680419921875,0.0098,6.5625,-0.1875,-59.8125,1.68,-1.31,Walking,7
4.48,4.41859241,25,3,3,3,2,-1346.0,0.9,-3.83,-3.9,-0.8,-2.47,-0.26,22.0,14.125,671.1875,0.08978271484375,0.74896240234375,0.03790283203125,0.0098,6.5625,-0.1875,-59.75,1.71,-1.35,Walking,7
4.49,4.445729739,25,3,3,3,2,-1389.0,0.83,-3.88,-4.34,-0.89,-2.5,-1.48,22.5625,13.8125,669.6875,0.090087890625,0.7501220703125,0.03948974609375,0.0098,6.5625,-0.1875,-59.6875,1.73,-1.38,Walking,7
4.5,4.445729739,25,3,3,3,2,-1409.0,0.87,-4.02,-4.55,-0.88,-2.6,-2.63,23.0,13.375,668.1875,0.0899658203125,0.751220703125,0.04150390625,0.0098,6.5625,-0.1875,-59.625,1.76,-1.42,Walking,7
4.51,4.451375287,25,3,3,3,2,-1463.0,1.34,-5.12,-5.1,-0.44,-3.67,-3.92,23.9375,13.25,666.75,0.08935546875,0.75244140625,0.0440673828125,0.0098,6.5625,-0.1875,-59.5625,1.79,-1.45,Walking,7
4.52,4.451375287,25,3,3,3,2,-1542.0,2.01,-5.42,-5.9,0.19,-3.94,-5.54,25.3125,13.3125,665.25,0.088134765625,0.75360107421875,0.04730224609375,0.0101,6.5625,-0.5625,-59.5,1.82,-1.48,Walking,7
4.53,4.460790978,25,3,3,3,2,-1606.0,3.01,-4.9,-6.55,1.16,-3.38,-6.57,32.4375,13.3125,663.3125,0.0865478515625,0.75518798828125,0.05096435546875,0.0101,6.5625,-0.5625,-59.375,1.85,-1.52,Walking,7
4.54,4.460790978,25,3,3,3,2,-1533.0,4.02,-3.65,-5.84,2.13,-2.05,-5.58,52.375,13.3125,659.9375,0.085205078125,0.75787353515625,0.054443359375,0.0101,6.5625,-0.5625,-59.25,1.88,-1.6,Walking,7
4.55,4.489885867,25,3,3,3,2,-1035.0,4.36,-1.21,-0.89,2.45,0.51,-2.42,80.5,13.3125,654.5,0.0848388671875,0.76226806640625,0.0567626953125,0.0101,6.5625,-0.5625,-59.125,1.91,-1.73,Walking,7
4.56,4.489885867,25,3,3,3,2,-964.0,4.32,0.14,-0.21,2.38,2.03,0.7,94.5,12.625,647.9375,0.08544921875,0.7674560546875,0.057861328125,0.0101,6.5625,-0.5625,-58.875,1.93,-1.88,Walking,7
4.57,4.505466881,25,3,3,3,2,-1010.0,4.4,1.58,-0.7,2.45,3.61,1.57,84.375,11.625,642.0,0.08636474609375,0.77203369140625,0.0584716796875,0.0095,5.875,1.6875,-58.6875,1.94,-2.02,Walking,7
4.58,4.505466881,25,3,3,3,2,-1033.0,4.11,2.47,-0.96,2.15,4.61,1.72,59.5,10.625,637.75,0.08734130859375,0.7752685546875,0.05877685546875,0.0095,5.875,1.6875,-58.5,1.96,-2.13,Walking,7
4.59,4.53555408,25,3,3,3,2,-1029.0,3.43,2.63,-0.94,1.46,4.83,1.96,35.125,6.9375,635.1875,0.08831787109375,0.77716064453125,0.05859375,0.0095,5.875,1.6875,-58.4375,1.96,-2.19,Walking,7
4.6,4.53555408,25,3,3,3,2,-1101.0,3.76,2.4,-1.66,1.79,4.63,2.22,21.625,2.5,633.5625,0.089111328125,0.77838134765625,0.0579833984375,0.0095,5.875,1.6875,-58.375,1.96,-2.23,Walking,7
4.61,4.541222537,25,3,3,3,2,-1157.0,4.45,2.02,-2.24,2.49,4.29,2.44,16.125,-0.625,632.3125,0.08984375,0.77935791015625,0.0570068359375,0.0095,5.875,1.6875,-58.3125,1.95,-2.26,Walking,7
4.61,4.541222537,25,3,3,3,2,-1157.0,4.45,2.02,-2.24,2.49,4.29,2.44,16.125,-0.625,632.3125,0.08984375,0.77935791015625,0.0570068359375,0.0095,5.875,1.6875,-58.3125,1.95,-2.26,Walking,7
4.62,4.550735639,25,3,3,3,2,-1081.0,5.45,1.26,-1.47,3.5,3.55,2.74,13.1875,-3.125,631.25,0.09051513671875,0.7801513671875,0.0557861328125,0.0095,5.875,1.25,-58.3125,1.94,-2.29,Walking,7
4.63,4.550735639,25,3,3,3,2,-1012.0,5.67,0.88,-0.79,3.73,3.19,3.61,9.875,-4.5625,630.4375,0.09136962890625,0.78082275390625,0.0540771484375,0.0095,5.875,1.25,-58.3125,1.93,-2.31,Walking,7
4.64,4.581408491,25,3,3,3,2,-974.0,5.47,0.42,-0.41,3.56,2.76,4.34,6.875,-4.1875,629.75,0.09246826171875,0.7813720703125,0.05206298828125,0.0095,5.875,1.25,-58.3125,1.91,-2.33,Walking,7
4.65,4.581408491,25,3,3,3,2,-987.0,4.61,-0.15,-0.54,2.71,2.18,4.23,-0.4375,-2.375,629.5625,0.09375,0.781494140625,0.0501708984375,0.0095,5.875,1.25,-58.3125,1.89,-2.34,Walking,7
4.66,4.610791873,25,3,3,3,2,-1008.0,2.44,-1.17,-0.74,0.55,1.15,3.53,-12.0,-0.25,630.25,0.09503173828125,0.7808837890625,0.048583984375,0.0095,5.875,1.25,-58.3125,1.89,-2.33,Walking,7
4.67,4.610791873,25,3,3,3,3,-992.0,1.53,-1.86,-0.57,-0.34,0.44,2.89,-18.625,0.625,631.375,0.09613037109375,0.77996826171875,0.0472412109375,0.0098,6.5625,0.875,-58.375,1.88,-2.3,Walking,7
4.68,4.615590579,25,3,3,3,3,-963.0,0.78,-2.5,-0.27,-1.09,-0.21,2.7,-18.5,0.4375,632.5625,0.09710693359375,0.77899169921875,0.04595947265625,0.0098,6.5625,0.875,-58.4375,1.87,-2.28,Walking,7
4.69,4.615590579,25,3,3,3,3,-934.0,0.2,-3.05,0.01,-1.66,-0.79,3.3,-18.9375,0.5625,633.6875,0.09832763671875,0.778076171875,0.04443359375,0.0098,6.5625,0.875,-58.4375,1.87,-2.25,Walking,7
4.7,4.641481896,25,3,3,3,3,-867.0,-0.63,-3.19,0.68,-2.49,-0.96,4.65,-24.125,1.1875,635.125,0.10009765625,0.77685546875,0.0423583984375,0.0098,6.5625,0.875,-58.5,1.86,-2.22,Walking,7
4.71,4.641481896,25,3,3,3,3,-832.0,-0.86,-2.69,1.05,-2.71,-0.5,6.25,-31.0,1.0,636.9375,0.1024169921875,0.7752685546875,0.03948974609375,0.0098,6.5625,0.875,-58.5625,1.84,-2.18,Walking,7
4.72,4.65568026,25,3,3,3,3,-799.0,-0.86,-2.11,1.39,-2.69,0.02,6.97,-33.1875,0.0,638.875,0.1048583984375,0.77362060546875,0.0362548828125,0.0095,5.875,-0.1875,-58.6875,1.83,-2.14,Walking,7
4.73,4.65568026,25,3,3,3,3,-763.0,-0.69,-1.62,1.76,-2.51,0.48,6.37,-26.125,-2.1875,640.3125,0.10699462890625,0.77227783203125,0.033203125,0.0095,5.875,-0.1875,-58.75,1.81,-2.11,Walking,7
4.74,4.671308027,25,3,3,3,3,-675.0,-0.15,-0.88,2.65,-1.95,1.22,5.01,-14.125,-5.25,641.0,0.1083984375,0.77166748046875,0.03070068359375,0.0095,5.875,-0.1875,-58.75,1.79,-2.1,Walking,7
4.75,4.671308027,25,3,3,3,3,-624.0,0.13,-0.59,3.16,-1.63,1.5,3.7,-2.75,-9.0,641.0,0.10906982421875,0.77166748046875,0.02862548828125,0.0095,5.875,-0.1875,-58.8125,1.77,-2.1,Walking,7
4.76,4.701764936,25,3,3,3,3,-572.0,0.42,-0.39,3.69,-1.32,1.72,2.62,4.8125,-11.5,640.5625,0.109130859375,0.77203369140625,0.02691650390625,0.0095,5.875,-0.1875,-58.8125,1.74,-2.11,Walking,7
4.77,4.701764936,25,3,3,3,3,-487.0,0.97,-0.27,4.54,-0.74,1.85,1.79,7.125,-12.75,640.0,0.10888671875,0.7725830078125,0.02557373046875,0.0095,6.1875,-0.0625,-58.8125,1.72,-2.13,Walking,7
4.78,4.715244998,25,3,3,3,3,-462.0,1.19,-0.26,4.79,-0.49,1.87,1.28,6.125,-12.6875,639.5625,0.10845947265625,0.77301025390625,0.02435302734375,0.0095,6.1875,-0.0625,-58.8125,1.69,-2.14,Walking,7
4.79,4.715244998,25,3,3,3,3,-448.0,1.34,-0.28,4.93,-0.33,1.86,0.85,4.25,-11.9375,639.25,0.10797119140625,0.77337646484375,0.0234375,0.0095,6.1875,-0.0625,-58.8125,1.67,-2.15,Walking,7
4.8,4.730607384,25,3,3,3,3,-447.0,1.57,-0.31,4.94,-0.08,1.84,0.49,2.0,-10.8125,639.125,0.10736083984375,0.7735595703125,0.02264404296875,0.0095,6.1875,-0.0625,-58.875,1.65,-2.15,Walking,7
4.81,4.730607384,25,3,3,3,3,-476.0,2.03,-0.37,4.65,0.39,1.78,0.16,-1.3125,-9.5,639.25,0.1068115234375,0.7735595703125,0.02203369140625,0.0095,6.1875,-0.0625,-58.875,1.64,-2.15,Walking,7
4.82,4.76380233,25,3,3,3,3,-504.0,2.15,-0.46,4.38,0.52,1.68,-0.25,-4.8125,-8.9375,639.625,0.10614013671875,0.77337646484375,0.0216064453125,0.0098,6.5625,-0.0625,-58.875,1.62,-2.14,Walking,7
4.83,4.76380233,25,3,3,3,3,-544.0,2.18,-0.51,3.98,0.56,1.61,-0.57,-8.4375,-8.0,640.25,0.10540771484375,0.77301025390625,0.0213623046875,0.0098,6.5625,-0.0625,-58.9375,1.61,-2.13,Walking,7
4.84,4.79283415,25,3,3,3,3,-595.0,2.06,-0.73,3.48,0.46,1.37,-0.42,-13.25,-7.5625,641.25,0.104736328125,0.7723388671875,0.02099609375,0.0098,6.5625,-0.0625,-59.0,1.6,-2.1,Walking,7
4.85,4.79283415,25,3,3,3,3,-677.0,2.03,-1.57,2.68,0.44,0.5,-0.03,-19.625,-7.8125,642.625,0.104248046875,0.77130126953125,0.0203857421875,0.0098,6.5625,-0.0625,-59.0625,1.59,-2.07,Walking,7
4.86,4.79818083,25,3,3,3,3,-713.0,2.0,-2.04,2.32,0.42,-0.01,0.46,-25.75,-8.0625,644.375,0.10394287109375,0.76995849609375,0.01953125,0.0098,6.5625,-0.0625,-59.125,1.57,-2.03,Walking,7
4.87,4.79818083,25,3,3,3,3,-752.0,1.96,-2.53,1.94,0.41,-0.55,1.52,-31.75,-9.125,646.5,0.1038818359375,0.768310546875,0.01812744140625,0.009,5.875,-0.875,-59.1875,1.55,-1.98,Walking,7
4.87,4.805560957,25,3,3,3,3,-752.0,1.96,-2.53,1.94,0.41,-0.55,1.52,-31.75,-9.125,646.5,0.1038818359375,0.768310546875,0.01812744140625,0.009,5.875,-0.875,-59.1875,1.55,-1.98,Walking,7
4.88,4.805560957,25,3,3,3,3,-791.0,2.07,-3.0,1.57,0.53,-1.07,1.52,-31.75,-9.125,648.625,0.1038818359375,0.7666015625,0.01666259765625,0.009,5.875,-0.875,-59.3125,1.54,-1.93,Walking,7
4.89,4.820412072,25,3,3,3,3,-864.0,2.31,-3.65,0.85,0.79,-1.77,1.94,-31.6875,-9.4375,650.6875,0.10394287109375,0.76495361328125,0.01507568359375,0.009,5.875,-0.875,-59.375,1.52,-1.88,Walking,7
4.9,4.820412072,25,3,3,3,3,-888.0,2.36,-3.79,0.62,0.86,-1.95,2.1,-29.25,-9.9375,652.625,0.10406494140625,0.763427734375,0.01336669921875,0.009,5.875,-0.875,-59.4375,1.5,-1.83,Walking,7
4.91,4.850748457,25,3,3,3,3,-904.0,2.38,-3.85,0.48,0.9,-2.05,2.04,-23.75,-10.3125,654.125,0.1041259765625,0.76220703125,0.01177978515625,0.009,5.875,-0.875,-59.5,1.48,-1.8,Walking,7
4.92,4.850748457,25,3,3,3,3,-923.0,2.29,-3.81,0.29,0.83,-2.03,1.87,-10.125,-10.9375,654.75,0.10406494140625,0.76171875,0.01025390625,0.0105,4.75,-1.25,-59.5625,1.45,-1.78,Walking,7
4.93,4.864759199,25,3,3,3,3,-995.0,2.19,-3.76,-0.41,0.75,-1.99,1.87,-10.125,-10.9375,655.3125,0.10400390625,0.76129150390625,0.0087890625,0.0105,4.75,-1.25,-59.5625,1.43,-1.77,Walking,7
4.94,4.864759199,25,3,3,3,3,-1024.0,2.0,-3.82,-0.7,0.58,-2.06,1.73,-5.9375,-11.0,655.625,0.1038818359375,0.76104736328125,0.0074462890625,0.0105,4.75,-1.25,-59.625,1.41,-1.76,Walking,7
4.95,4.880114098,25,3,3,3,3,-1065.0,1.73,-3.9,-1.11,0.33,-2.14,1.44,-3.9375,-11.5,655.8125,0.1036376953125,0.76092529296875,0.00616455078125,0.0105,4.75,-1.25,-59.625,1.39,-1.76,Walking,7
4.96,4.880114098,25,3,3,3,3,-1144.0,1.69,-3.91,-1.89,0.31,-2.15,1.16,-4.625,-11.75,656.0625,0.103271484375,0.76080322265625,0.0050048828125,0.0105,4.75,-1.25,-59.6875,1.37,-1.75,Walking,7
4.97,4.911017784,25,3,3,3,3,-1166.0,1.84,-3.85,-2.11,0.49,-2.1,1.3,-5.75,-13.1875,656.4375,0.10284423828125,0.76055908203125,0.003662109375,0.0087,5.5,-1.75,-59.6875,1.34,-1.74,Walking,7
4.98,4.911017784,25,3,3,3,3,-1179.0,2.17,-3.88,-2.23,0.84,-2.14,1.3,-5.75,-13.1875,656.75,0.10247802734375,0.7603759765625,0.0023193359375,0.0087,5.5,-1.75,-59.6875,1.32,-1.73,Walking,7
4.99,4.941147708,25,3,3,3,3,-1176.0,2.44,-3.96,-2.2,1.14,-2.22,1.21,-2.6875,-13.4375,656.875,0.10198974609375,0.7603759765625,0.0010986328125,0.0087,5.5,-1.75,-59.75,1.29,-1.73,Walking,7
5.0,4.941147708,25,3,3,3,3,-1201.0,3.16,-4.46,-2.44,1.88,-2.72,0.93,0.875,-12.9375,656.75,0.10150146484375,0.760498046875,0.0,0.0087,5.5,-1.75,-59.75,1.27,-1.73,Walking,7
5.01,4.946878706,25,3,3,3,3,-1233.0,3.24,-4.97,-2.76,1.99,-3.23,0.67,1.6875,-11.1875,656.5625,0.10101318359375,0.7607421875,-0.00091552734375,0.0087,5.5,-1.75,-59.75,1.25,-1.74,Walking,7
5.02,4.946878706,25,3,3,3,2,-1300.0,3.11,-5.42,-3.43,1.86,-3.68,0.42,-3.4375,-5.25,656.75,0.10076904296875,0.76055908203125,-0.00140380859375,0.0108,5.875,-2.1875,-59.8125,1.24,-1.73,Walking,7
5.03,4.970458133,25,3,3,3,2,-1422.0,2.98,-5.28,-4.65,1.75,-3.53,1.5,5.8125,-3.8125,656.25,0.10107421875,0.76092529296875,-0.00213623046875,0.0108,5.875,-2.1875,-59.75,1.23,-1.75,Walking,7
5.04,4.970458133,25,3,3,3,2,-1555.0,1.61,-3.07,-5.99,0.38,-1.27,3.56,29.375,-5.375,654.0625,0.10198974609375,0.76263427734375,-0.003662109375,0.0108,5.875,-2.1875,-59.75,1.22,-1.8,Walking,7
5.05,4.985673994,25,3,3,3,2,-1464.0,0.64,-1.77,-5.09,-0.54,0.12,5.2,53.1875,-8.8125,650.125,0.10321044921875,0.76568603515625,-0.005859375,0.0108,5.875,-2.1875,-59.625,1.19,-1.9,Walking,7
5.06,4.985673994,25,3,3,3,2,-1354.0,0.0,-0.79,-4.01,-1.17,1.21,4.95,59.75,-11.375,645.6875,0.104248046875,0.76904296875,-0.00799560546875,0.0108,5.875,-2.1875,-59.5,1.16,-2.0,Walking,7
5.07,5.018732425,25,3,3,3,2,-1280.0,-0.01,0.1,-3.29,-1.15,2.19,3.46,47.9375,-11.875,642.1875,0.10467529296875,0.77178955078125,-0.0096435546875,0.0105,5.875,-2.1875,-59.4375,1.14,-2.09,Walking,7
5.08,5.018732425,25,3,3,3,2,-1219.0,0.79,1.47,-2.69,-0.32,3.61,1.54,31.625,-10.125,639.9375,0.10455322265625,0.77362060546875,-0.01055908203125,0.0105,5.875,-2.1875,-59.375,1.12,-2.14,Walking,7
5.09,5.03148747,25,3,3,3,2,-1187.0,0.73,1.76,-2.37,-0.36,3.94,-0.2,21.0,-8.125,638.4375,0.10394287109375,0.77484130859375,-0.0107421875,0.0105,5.875,-2.1875,-59.3125,1.1,-2.17,Walking,7
5.1,5.03148747,25,3,3,3,2,-1165.0,0.6,2.0,-2.15,-0.49,4.21,-1.14,18.0625,-7.1875,637.25,0.10308837890625,0.77587890625,-0.01043701171875,0.0105,5.875,-2.1875,-59.3125,1.09,-2.2,Walking,7
5.11,5.060975508,25,3,3,3,2,-1134.0,0.11,2.51,-1.86,-0.97,4.75,-1.45,18.875,-6.75,636.0625,0.1021728515625,0.7769775390625,-0.010009765625,0.0105,5.875,-2.1875,-59.25,1.09,-2.23,Walking,7
5.12,5.060975508,25,3,3,3,1,-1114.0,-0.24,2.47,-1.66,-1.32,4.74,-1.48,16.125,-6.0625,635.0,0.10125732421875,0.77789306640625,-0.00958251953125,0.0101,4.75,-2.1875,-59.25,1.08,-2.26,Walking,7
5.13,5.064421308,25,3,3,3,1,-1121.0,-0.43,2.3,-1.73,-1.51,4.58,-1.44,8.3125,-5.125,634.5,0.1004638671875,0.77838134765625,-0.0091552734375,0.0101,4.75,-2.1875,-59.1875,1.08,-2.27,Walking,7
5.14,5.064421308,25,3,3,3,1,-1162.0,-0.36,2.01,-2.14,-1.44,4.28,-1.56,-1.5,-4.375,634.6875,0.099609375,0.7783203125,-0.00872802734375,0.0101,4.75,-2.1875,-59.1875,1.07,-2.26,Walking,7
5.14,5.074341352,25,3,3,3,1,-1162.0,-0.36,2.01,-2.14,-1.44,4.28,-1.56,-1.5,-4.375,634.6875,0.099609375,0.7783203125,-0.00872802734375,0.0101,4.75,-2.1875,-59.1875,1.07,-2.26,Walking,7
5.15,5.074341352,25,3,3,3,1,-1167.0,0.21,1.01,-2.19,-0.86,3.26,-2.68,-9.625,-4.0625,635.5625,0.09844970703125,0.77783203125,-0.0079345703125,0.0101,4.75,-2.1875,-59.25,1.07,-2.25,Walking,7
5.16,5.090608523,25,3,3,3,1,-1119.0,0.65,0.29,-1.7,-0.42,2.51,-4.54,-15.125,-3.5,636.875,0.09661865234375,0.77703857421875,-0.00628662109375,0.0101,4.75,-2.1875,-59.3125,1.08,-2.21,Walking,7
5.17,5.090608523,25,3,3,3,1,-1066.0,1.04,-0.4,-1.17,-0.05,1.77,-6.64,-17.6875,-2.0,638.4375,0.09423828125,0.776123046875,-0.00372314453125,0.0096,6.25,-1.0,-59.3125,1.09,-2.18,Walking,7
5.18,5.120174482,25,3,3,3,1,-1010.0,1.36,-0.96,-0.59,0.25,1.17,-8.64,-19.1875,0.0,640.25,0.09130859375,0.77508544921875,-0.000244140625,0.0096,6.25,-1.0,-59.375,1.11,-2.13,Walking,7
5.19,5.120174482,25,3,3,3,1,-918.0,1.87,-1.73,0.32,0.73,0.35,-10.32,-21.375,2.4375,642.25,0.08795166015625,0.77386474609375,0.00408935546875,0.0096,6.25,-1.0,-59.4375,1.14,-2.09,Walking,7
5.2,5.136038537,25,3,3,3,1,-896.0,1.97,-1.99,0.55,0.8,0.03,-11.24,-23.8125,4.6875,644.5,0.08441162109375,0.7724609375,0.0089111328125,0.0096,6.25,-1.0,-59.5,1.17,-2.03,Walking,7
5.21,5.136038537,25,3,3,3,1,-869.0,2.04,-2.25,0.83,0.82,-0.27,-11.36,-24.9375,6.75,646.75,0.08099365234375,0.77093505859375,0.01385498046875,0.0096,6.25,-1.0,-59.5,1.21,-1.97,Walking,7
5.22,5.181284264,25,3,3,3,1,-833.0,2.02,-2.49,1.2,0.77,-0.56,-10.93,-23.6875,8.375,648.875,0.07781982421875,0.76947021484375,0.018798828125,0.0104,6.25,-1.0,-59.5625,1.25,-1.92,Walking,7
5.23,5.181284264,25,3,3,3,1,-737.0,2.01,-2.43,2.16,0.72,-0.56,-10.16,-20.0625,9.75,650.6875,0.07501220703125,0.76812744140625,0.0234375,0.0104,6.25,-1.0,-59.5625,1.28,-1.87,Walking,7
5.24,5.186560021,25,3,3,3,1,-682.0,2.1,-2.12,2.71,0.77,-0.28,-9.15,-15.1875,11.4375,652.125,0.0726318359375,0.76708984375,0.02783203125,0.0104,6.25,-1.0,-59.625,1.32,-1.83,Walking,7
5.25,5.186560021,25,3,3,3,1,-629.0,2.19,-1.68,3.24,0.82,0.12,-8.01,-11.5,13.625,653.1875,0.07080078125,0.7662353515625,0.0318603515625,0.0104,6.25,-1.0,-59.625,1.36,-1.8,Walking,7
5.26,5.195154259,25,3,3,3,1,-588.0,2.15,-1.26,3.66,0.74,0.51,-6.84,-10.25,16.5,654.125,0.06951904296875,0.765380859375,0.03558349609375,0.0104,6.25,-1.0,-59.625,1.4,-1.77,Walking,7
5.27,5.195154259,25,3,3,3,1,-525.0,1.8,-0.6,4.28,0.35,1.14,-5.7,-11.625,19.3125,655.125,0.06890869140625,0.76446533203125,0.03900146484375,0.0114,6.0,-0.6875,-59.5625,1.44,-1.74,Walking,7
5.28,5.225363691,25,3,3,3,1,-521.0,1.64,-0.38,4.32,0.15,1.33,-4.79,-13.3125,21.3125,656.125,0.06866455078125,0.76348876953125,0.0421142578125,0.0114,6.0,-0.6875,-59.5625,1.49,-1.71,Walking,7
5.29,5.225363691,25,3,3,3,1,-519.0,1.51,-0.27,4.34,-0.01,1.4,-4.06,-14.9375,21.75,657.25,0.06878662109375,0.76239013671875,0.044921875,0.0114,6.0,-0.6875,-59.5625,1.53,-1.68,Walking,7
5.3,5.240730553,25,3,3,3,1,-487.0,1.22,-0.17,4.66,-0.35,1.48,-3.26,-15.1875,21.125,658.375,0.069091796875,0.7613525390625,0.04736328125,0.0114,6.0,-0.6875,-59.5625,1.57,-1.65,Walking,7
5.31,5.240730553,25,3,3,3,1,-490.0,1.25,-0.11,4.62,-0.36,1.51,-2.35,-16.375,19.9375,659.5,0.06964111328125,0.76019287109375,0.04937744140625,0.0114,6.0,-0.6875,-59.5625,1.61,-1.62,Walking,7
5.32,5.255293175,25,3,3,3,1,-492.0,1.2,-0.13,4.61,-0.44,1.45,-1.35,-19.25,18.5,660.8125,0.07049560546875,0.75897216796875,0.05084228515625,0.0111,4.0625,0.875,-59.5625,1.64,-1.58,Walking,7
5.33,5.255293175,25,3,3,3,1,-499.0,1.04,-0.24,4.54,-0.63,1.3,-0.5,-22.5,17.0,662.25,0.071533203125,0.757568359375,0.0518798828125,0.0111,4.0625,0.875,-59.5625,1.67,-1.54,Walking,7
5.34,5.299857222,25,3,3,3,1,-553.0,0.73,-0.66,4.0,-0.97,0.84,0.31,-25.0625,16.125,663.875,0.0728759765625,0.75604248046875,0.05255126953125,0.0111,4.0625,0.875,-59.5625,1.7,-1.5,Walking,7
5.35,5.299857222,25,3,3,3,1,-601.0,0.73,-0.89,3.53,-0.99,0.56,1.33,-27.5,15.625,665.625,0.074462890625,0.75439453125,0.052734375,0.0111,4.0625,0.875,-59.625,1.72,-1.46,Walking,7
5.36,5.30990251,25,3,3,3,1,-645.0,0.85,-1.1,3.09,-0.89,0.31,2.39,-28.9375,14.625,667.4375,0.076416015625,0.752685546875,0.0523681640625,0.0111,4.0625,0.875,-59.625,1.75,-1.42,Walking,7
5.37,5.30990251,25,3,3,3,1,-690.0,0.97,-1.32,2.64,-0.78,0.05,3.37,-29.375,13.5625,669.25,0.07867431640625,0.75103759765625,0.05157470703125,0.0114,4.5,1.25,-59.625,1.76,-1.37,Walking,7
5.38,5.33020382,25,3,3,3,1,-795.0,0.78,-1.75,1.59,-0.99,-0.42,4.13,-29.25,12.9375,670.9375,0.08111572265625,0.7493896484375,0.0504150390625,0.0114,4.5,1.25,-59.6875,1.78,-1.33,Walking,7
5.39,5.33020382,25,3,3,3,1,-849.0,0.53,-2.05,1.05,-1.25,-0.75,4.79,-29.1875,11.875,672.625,0.083740234375,0.74774169921875,0.0489501953125,0.0114,4.5,1.25,-59.6875,1.79,-1.29,Walking,7
5.4,5.344805382,25,3,3,3,1,-905.0,0.31,-2.38,0.5,-1.49,-1.12,5.28,-29.9375,10.75,674.375,0.08648681640625,0.74603271484375,0.04718017578125,0.0114,4.5,1.25,-59.6875,1.8,-1.25,Walking,7
5.41,5.344805382,25,3,3,3,1,-952.0,0.13,-2.71,0.03,-1.68,-1.49,5.22,-30.3125,9.625,676.125,0.089111328125,0.74432373046875,0.04541015625,0.0114,4.5,1.25,-59.6875,1.81,-1.21,Walking,7
5.42,5.349071943,25,3,3,3,1,-952.0,0.13,-2.71,0.03,-1.68,-1.49,5.22,-30.3125,9.625,676.125,0.089111328125,0.74432373046875,0.04541015625,0.0114,4.5,1.25,-59.6875,1.81,-1.21,Walking,7
5.42,5.349071943,25,3,3,3,1,-1017.0,-0.02,-3.29,-0.61,-1.85,-2.11,4.6,-30.875,8.6875,677.875,0.0914306640625,0.74261474609375,0.0438232421875,0.0122,4.5,0.5,-59.75,1.82,-1.17,Walking,7
5.43,5.374877404,25,3,3,3,1,-1046.0,0.01,-3.4,-0.9,-1.81,-2.27,3.78,-30.8125,8.0625,679.75,0.09344482421875,0.7408447265625,0.04248046875,0.0122,4.5,0.5,-59.75,1.83,-1.12,Walking,7
5.44,5.374877404,25,3,3,3,1,-1077.0,0.05,-3.32,-1.2,-1.78,-2.24,2.7,-27.5625,7.1875,681.375,0.094970703125,0.73919677734375,0.04156494140625,0.0122,4.5,0.5,-59.8125,1.84,-1.08,Walking,7
5.45,5.390728885,25,3,3,3,1,-1151.0,0.12,-3.07,-1.94,-1.72,-2.01,1.63,-19.5625,5.4375,682.5625,0.09600830078125,0.73809814453125,0.04107666015625,0.0122,4.5,0.5,-59.8125,1.85,-1.05,Walking,7
5.46,5.390728885,25,3,3,3,1,-1183.0,0.13,-3.06,-2.26,-1.71,-2.01,0.81,-6.75,2.875,683.0,0.09649658203125,0.7376708984375,0.0408935546875,0.0122,4.5,0.5,-59.8125,1.85,-1.04,Walking,7
5.47,5.42078109,25,3,3,3,1,-1223.0,0.47,-3.21,-2.66,-1.38,-2.15,0.2,8.0,0.8125,682.4375,0.09661865234375,0.73809814453125,0.0408935546875,0.0118,5.5625,-0.0625,-59.8125,1.85,-1.06,Walking,7
5.48,5.42078109,25,3,3,3,1,-1250.0,0.7,-3.49,-2.94,-1.14,-2.39,-0.53,22.5625,-0.9375,681.0,0.09625244140625,0.73944091796875,0.041259765625,0.0118,5.5625,-0.0625,-59.75,1.85,-1.09,Walking,7
5.49,5.426569543,25,3,3,3,1,-1339.0,0.62,-3.9,-3.83,-1.22,-2.75,-1.7,33.1875,-2.5,678.875,0.0953369140625,0.7413330078125,0.04205322265625,0.0118,5.5625,-0.0625,-59.75,1.85,-1.15,Walking,7
5.5,5.426569543,25,3,3,3,1,-1357.0,0.66,-3.9,-4.02,-1.18,-2.69,-2.98,38.875,-2.9375,676.5,0.09393310546875,0.7435302734375,0.04339599609375,0.0118,5.5625,-0.0625,-59.6875,1.85,-1.2,Walking,7
5.51,5.466411421,25,3,3,3,1,-1366.0,0.6,-3.75,-4.12,-1.23,-2.48,-3.8,44.1875,-4.1875,673.75,0.09210205078125,0.74603271484375,0.0450439453125,0.0118,5.5625,-0.0625,-59.625,1.84,-1.27,Walking,7
5.52,5.466411421,25,3,3,3,2,-1360.0,0.35,-3.7,-4.07,-1.49,-2.35,-4.57,48.375,-6.5,670.75,0.08984375,0.74871826171875,0.04693603515625,0.0125,5.25,0.5625,-59.5625,1.84,-1.34,Walking,7
5.53,5.471529097,25,3,3,3,2,-1522.0,0.87,-3.61,-5.69,-0.95,-2.19,-5.61,50.6875,-8.125,667.6875,0.08709716796875,0.7515869140625,0.04913330078125,0.0125,5.25,0.5625,-59.5,1.83,-1.42,Walking,7
5.54,5.471529097,25,3,3,3,2,-1640.0,2.05,-3.29,-6.88,0.21,-1.79,-6.59,56.375,-9.1875,664.25,0.0838623046875,0.754638671875,0.05169677734375,0.0125,5.25,0.5625,-59.4375,1.83,-1.5,Walking,7
5.55,5.495780561,25,3,3,3,2,-1634.0,3.21,-2.84,-6.84,1.38,-1.23,-6.04,67.9375,-8.0,659.9375,0.08087158203125,0.75836181640625,0.05419921875,0.0125,5.25,0.5625,-59.375,1.82,-1.6,Walking,7
5.56,5.495780561,25,3,3,3,2,-1481.0,3.89,-2.61,-5.33,2.06,-0.89,-4.28,74.25,-4.625,655.125,0.0787353515625,0.762451171875,0.05621337890625,0.0125,5.25,0.5625,-59.25,1.82,-1.71,Walking,7
5.57,5.509868004,25,3,3,3,2,-1226.0,4.08,-1.69,-2.8,2.25,0.12,-3.38,69.0,-3.25,650.5625,0.07696533203125,0.7662353515625,0.05792236328125,0.0107,6.0,1.0,-59.125,1.82,-1.82,Walking,7
5.58,5.509868004,25,3,3,3,2,-1189.0,3.84,-0.66,-2.45,2.01,1.25,-3.66,58.4375,-4.5625,646.75,0.0750732421875,0.76934814453125,0.0595703125,0.0107,6.0,1.0,-59.0,1.82,-1.91,Walking,7
5.59,5.525910363,25,3,3,3,2,-1180.0,3.89,0.56,-2.37,2.06,2.55,-3.86,46.3125,-6.4375,643.75,0.07305908203125,0.7718505859375,0.0611572265625,0.0107,6.0,1.0,-58.875,1.82,-1.98,Walking,7
5.6,5.525910363,25,3,3,3,2,-1156.0,3.97,1.67,-2.15,2.15,3.71,-2.94,37.375,-8.75,641.3125,0.0712890625,0.7738037109375,0.0621337890625,0.0107,6.0,1.0,-58.8125,1.81,-2.03,Walking,7
5.61,5.602233646,25,3,3,3,2,-1038.0,4.18,2.56,-0.97,2.37,4.65,-1.18,32.625,-9.25,639.1875,0.070068359375,0.775634765625,0.06231689453125,0.0107,6.0,1.0,-58.75,1.8,-2.08,Walking,7
5.62,5.602233646,25,3,3,3,2,-981.0,4.69,2.42,-0.41,2.9,4.56,0.4,28.5625,-6.25,637.1875,0.069580078125,0.7772216796875,0.06195068359375,0.0122,5.5625,4.0625,-58.75,1.79,-2.13,Walking,7
5.63,5.607513228,25,3,3,3,2,-958.0,5.53,2.16,-0.18,3.74,4.34,2.04,21.9375,-0.125,635.625,0.0701904296875,0.77850341796875,0.06121826171875,0.0122,5.5625,4.0625,-58.6875,1.78,-2.17,Walking,7
5.64,5.607513228,25,3,3,3,2,-907.0,6.6,1.67,0.31,4.81,3.87,4.12,13.6875,5.8125,634.4375,0.0718994140625,0.779296875,0.05987548828125,0.0122,5.5625,4.0625,-58.625,1.78,-2.2,Walking,7
5.65,5.61234119,25,3,3,3,2,-925.0,6.25,1.25,0.12,4.45,3.48,5.84,2.75,10.4375,634.0,0.0745849609375,0.77960205078125,0.0579833984375,0.0122,5.5625,4.0625,-58.625,1.79,-2.22,Walking,7
5.66,5.61234119,25,3,3,3,2,-985.0,5.38,0.85,-0.46,3.59,3.07,6.66,-10.3125,12.125,634.375,0.07769775390625,0.77911376953125,0.05572509765625,0.0122,5.5625,4.0625,-58.625,1.79,-2.21,Walking,7
5.67,5.616812096,25,3,3,3,2,-1029.0,4.35,0.33,-0.9,2.56,2.54,6.58,-17.1875,11.4375,635.25,0.080810546875,0.7783203125,0.053466796875,0.0122,4.875,4.5,-58.625,1.79,-2.2,Walking,7
5.68,5.616812096,25,3,3,3,2,-1029.0,4.35,0.33,-0.9,2.56,2.54,6.58,-17.1875,11.4375,635.25,0.080810546875,0.7783203125,0.053466796875,0.0122,4.875,4.5,-58.625,1.79,-2.2,Walking,7
5.68,5.622109175,25,3,3,3,2,-1038.0,2.41,-0.67,-0.99,0.61,1.5,6.3,-17.8125,10.0,636.1875,0.08367919921875,0.7774658203125,0.05120849609375,0.0122,4.875,4.5,-58.625,1.8,-2.18,Walking,7
5.69,5.622109175,25,3,3,3,2,-1023.0,1.72,-1.12,-0.84,-0.07,1.04,6.44,-19.0625,8.6875,637.1875,0.0865478515625,0.7764892578125,0.048828125,0.0122,4.875,4.5,-58.6875,1.79,-2.16,Walking,7
5.7,5.629628055,25,3,3,3,2,-1010.0,1.22,-1.69,-0.7,-0.57,0.44,6.99,-25.625,7.9375,638.5625,0.089599609375,0.77520751953125,0.046142578125,0.0122,4.875,4.5,-58.75,1.79,-2.13,Walking,7
5.71,5.629628055,25,3,3,3,2,-1000.0,0.87,-2.29,-0.59,-0.91,-0.2,7.78,-37.9375,7.0625,640.8125,0.09283447265625,0.77325439453125,0.04290771484375,0.0122,4.875,4.5,-58.8125,1.79,-2.08,Walking,7
5.72,5.677123416,25,3,3,3,2,-940.0,0.42,-2.73,0.02,-1.35,-0.7,8.31,-47.25,5.625,643.625,0.09625244140625,0.77081298828125,0.03936767578125,0.0118,5.25,5.1875,-58.875,1.78,-2.02,Walking,7
5.73,5.677123416,25,3,3,3,2,-892.0,0.11,-2.64,0.52,-1.65,-0.68,8.4,-47.375,2.9375,646.4375,0.0994873046875,0.768310546875,0.03558349609375,0.0118,5.25,5.1875,-59.0,1.76,-1.96,Walking,7
5.74,5.681993981,25,3,3,3,2,-845.0,-0.1,-2.53,1.0,-1.86,-0.62,8.05,-41.1875,-0.5,648.8125,0.1024169921875,0.76617431640625,0.0318603515625,0.0118,5.25,5.1875,-59.0625,1.75,-1.91,Walking,7
5.75,5.681993981,25,3,3,3,2,-797.0,-0.26,-2.27,1.49,-1.99,-0.4,7.35,-31.75,-3.9375,650.625,0.10479736328125,0.7645263671875,0.0283203125,0.0118,5.25,5.1875,-59.125,1.73,-1.87,Walking,7
5.76,5.690390832,25,3,3,3,2,-693.0,-0.15,-1.54,2.53,-1.86,0.3,6.2,-23.5625,-7.125,651.875,0.10650634765625,0.76336669921875,0.025146484375,0.0118,5.25,5.1875,-59.1875,1.7,-1.84,Walking,7
5.77,5.690390832,25,3,3,3,2,-638.0,0.0,-1.22,3.09,-1.68,0.59,4.8,-17.3125,-9.3125,652.8125,0.10760498046875,0.7625732421875,0.0224609375,0.0119,5.5625,4.875,-59.25,1.68,-1.82,Walking,7
5.78,5.736645877,25,3,3,3,2,-587.0,0.05,-0.95,3.62,-1.6,0.85,3.79,-12.625,-10.5625,653.5,0.10821533203125,0.761962890625,0.0201416015625,0.0119,5.5625,4.875,-59.3125,1.65,-1.81,Walking,7
5.79,5.736645877,25,3,3,3,2,-506.0,0.38,-0.61,4.43,-1.25,1.18,3.1,-10.5,-11.4375,654.0625,0.10858154296875,0.76153564453125,0.01812744140625,0.0119,5.5625,4.875,-59.375,1.63,-1.79,Walking,7
5.8,5.742395104,25,3,3,3,2,-477.0,0.57,-0.61,4.72,-1.03,1.17,2.49,-7.625,-12.625,654.4375,0.10858154296875,0.76123046875,0.016357421875,0.0119,5.5625,4.875,-59.375,1.6,-1.79,Walking,7
5.81,5.742395104,25,3,3,3,2,-458.0,0.67,-0.5,4.92,-0.9,1.28,1.8,-4.6875,-14.125,654.6875,0.1082763671875,0.7611083984375,0.0147705078125,0.0119,5.5625,4.875,-59.4375,1.57,-1.78,Walking,7
5.82,5.781610477,25,3,3,3,2,-457.0,0.99,-0.37,4.93,-0.55,1.4,0.9,-3.25,-14.9375,654.875,0.10760498046875,0.76104736328125,0.01348876953125,0.0123,6.0,4.875,-59.4375,1.55,-1.78,Walking,7
5.83,5.781610477,25,3,3,3,2,-455.0,1.54,-0.27,4.96,0.01,1.49,-0.05,-3.625,-14.4375,655.1875,0.106689453125,0.760986328125,0.0126953125,0.0123,6.0,4.875,-59.5,1.52,-1.77,Walking,7
5.84,5.786785037,25,3,3,3,2,-476.0,1.5,-0.24,4.76,0.0,1.52,-0.79,-4.875,-14.5625,655.5625,0.10540771484375,0.76080322265625,0.01214599609375,0.0123,6.0,4.875,-59.5,1.5,-1.76,Walking,7
5.85,5.786785037,25,3,3,3,2,-519.0,1.46,-0.3,4.34,-0.01,1.44,-1.27,-7.1875,-14.375,656.1875,0.10406494140625,0.76055908203125,0.01177978515625,0.0123,6.0,4.875,-59.5625,1.48,-1.75,Walking,7
5.86,5.810706058,25,3,3,3,2,-562.0,1.51,-0.42,3.91,0.05,1.3,-1.62,-10.875,-14.3125,657.0625,0.1025390625,0.760009765625,0.0115966796875,0.0123,6.0,4.875,-59.625,1.46,-1.72,Walking,7
5.87,5.810706058,25,3,3,3,2,-641.0,1.57,-0.94,3.13,0.13,0.75,-1.58,-14.6875,-14.625,658.1875,0.10101318359375,0.75933837890625,0.01129150390625,0.0126,5.5625,3.5625,-59.625,1.44,-1.7,Walking,7
5.88,5.815488244,25,3,3,3,2,-669.0,1.65,-1.22,2.86,0.23,0.44,-1.07,-18.25,-14.5625,659.5,0.0997314453125,0.75836181640625,0.0107421875,0.0126,5.5625,3.5625,-59.6875,1.41,-1.66,Walking,7
5.89,5.815488244,25,3,3,3,2,-701.0,1.92,-1.54,2.55,0.52,0.08,-0.4,-20.3125,-14.4375,660.9375,0.0986328125,0.75738525390625,0.00994873046875,0.0126,5.5625,3.5625,-59.75,1.39,-1.63,Walking,7
5.9,5.84050277,25,3,3,3,2,-745.0,2.11,-1.86,2.12,0.74,-0.27,0.04,-21.8125,-13.3125,662.4375,0.0977783203125,0.7562255859375,0.00897216796875,0.0126,5.5625,3.5625,-59.8125,1.37,-1.59,Walking,7
5.91,5.84050277,25,3,3,3,2,-816.0,2.39,-2.55,1.42,1.03,-0.99,0.11,-23.125,-10.5,664.0,0.09716796875,0.7550048828125,0.0081787109375,0.0126,5.5625,3.5625,-59.875,1.35,-1.55,Walking,7
5.92,5.855378665,25,3,3,3,1,-832.0,2.49,-2.82,1.26,1.15,-1.3,0.0,-23.6875,-6.125,665.625,0.09674072265625,0.75372314453125,0.00762939453125,0.0126,4.875,6.0,-59.9375,1.34,-1.51,Walking,7
5.93,5.855378665,25,3,3,3,1,-847.0,2.47,-3.08,1.12,1.13,-1.6,0.14,-22.375,-2.0,667.125,0.0966796875,0.75244140625,0.00726318359375,0.0126,4.875,6.0,-60.0,1.34,-1.48,Walking,7
5.94,5.885680667,25,3,3,3,1,-847.0,2.47,-3.08,1.12,1.13,-1.6,0.14,-22.375,-2.0,667.125,0.0966796875,0.75244140625,0.00726318359375,0.0126,4.875,6.0,-60.0,1.34,-1.48,Walking,7
5.94,5.885680667,25,3,3,3,1,-861.0,2.35,-3.29,0.99,1.0,-1.84,0.57,-19.875,1.125,668.4375,0.09698486328125,0.75128173828125,0.0069580078125,0.0126,4.875,6.0,-60.0,1.34,-1.44,Walking,7
5.95,5.891098677,25,3,3,3,1,-914.0,1.96,-3.47,0.46,0.62,-2.05,0.68,-16.875,2.5625,669.5625,0.097412109375,0.75030517578125,0.00665283203125,0.0126,4.875,6.0,-60.0,1.34,-1.42,Walking,7
5.96,5.891098677,25,3,3,3,1,-963.0,1.67,-3.58,-0.02,0.32,-2.18,0.32,-13.1875,2.875,670.4375,0.09771728515625,0.74951171875,0.006591796875,0.0126,4.875,6.0,-60.0625,1.35,-1.39,Walking,7
5.97,5.915202193,25,3,3,3,1,-1053.0,1.48,-3.68,-0.91,0.12,-2.29,0.0,-8.125,2.9375,671.0,0.09796142578125,0.7490234375,0.0067138671875,0.0129,6.0,4.75,-60.0625,1.35,-1.38,Walking,7
5.98,5.915202193,25,3,3,3,1,-1230.0,0.69,-3.64,-2.68,-0.66,-2.26,-0.38,-0.9375,1.75,671.0625,0.09796142578125,0.74896240234375,0.0069580078125,0.0129,6.0,4.75,-60.0625,1.36,-1.38,Walking,7
5.99,5.930233402,25,3,3,3,1,-1326.0,0.23,-3.3,-3.65,-1.12,-1.91,-0.59,7.375,-0.9375,670.625,0.09765625,0.74932861328125,0.0072021484375,0.0129,6.0,4.75,-60.0625,1.36,-1.39,Walking,7
6.0,5.930233402,25,3,3,3,1,-1388.0,0.12,-2.85,-4.27,-1.22,-1.43,-0.69,16.0625,-5.1875,669.5625,0.0970458984375,0.75030517578125,0.00738525390625,0.0129,6.0,4.75,-60.0,1.35,-1.41,Walking,7
6.01,5.945149336,25,3,3,3,1,-1396.0,0.54,-2.59,-4.35,-0.79,-1.13,-1.22,24.625,-9.75,668.0,0.09600830078125,0.75177001953125,0.00750732421875,0.0129,6.0,4.75,-60.0,1.33,-1.45,Walking,7
6.02,5.945149336,25,3,3,3,0,-1339.0,2.41,-3.24,-3.79,1.09,-1.73,-2.47,28.375,-11.9375,666.1875,0.09429931640625,0.75347900390625,0.00811767578125,0.0125,6.0,6.25,-59.9375,1.32,-1.5,Walking,7
6.03,5.976632979,25,3,3,3,0,-1338.0,3.06,-3.82,-3.78,1.75,-2.28,-3.85,24.4375,-11.5,664.75,0.0921630859375,0.75494384765625,0.00921630859375,0.0125,6.0,6.25,-59.9375,1.31,-1.53,Walking,7
6.04,5.976632979,25,3,3,3,0,-1342.0,3.38,-4.49,-3.82,2.08,-2.93,-4.69,15.1875,-9.6875,664.0,0.08984375,0.755859375,0.0107421875,0.0125,6.0,6.25,-59.9375,1.3,-1.55,Walking,7
6.05,5.99074565,25,3,3,3,0,-1375.0,3.39,-5.05,-4.15,2.09,-3.49,-5.02,7.9375,-7.0625,663.6875,0.08758544921875,0.75634765625,0.012451171875,0.0125,6.0,6.25,-59.9375,1.29,-1.56,Walking,7
6.06,5.99074565,25,3,3,3,0,-1575.0,3.03,-4.71,-6.16,1.74,-3.14,-4.44,11.3125,-5.8125,663.125,0.08563232421875,0.75701904296875,0.01409912109375,0.0125,6.0,6.25,-59.9375,1.29,-1.57,Walking,7
6.07,6.017005252,25,3,3,3,0,-1611.0,2.3,-3.63,-6.52,1.01,-2.0,-2.8,31.125,-8.0,661.1875,0.0841064453125,0.7587890625,0.0150146484375,0.0122,5.25,7.0625,-59.875,1.28,-1.62,Walking,7
6.08,6.017005252,25,3,3,3,0,-1529.0,1.21,-2.36,-5.71,-0.05,-0.64,-1.25,55.8125,-13.5,657.4375,0.08270263671875,0.76202392578125,0.01519775390625,0.0122,5.25,7.0625,-59.8125,1.26,-1.71,Walking,7
6.09,6.036983443,25,3,3,3,0,-1429.0,0.57,-1.08,-4.74,-0.66,0.73,-0.74,66.0625,-18.6875,653.0,0.08111572265625,0.765869140625,0.01495361328125,0.0122,5.25,7.0625,-59.6875,1.23,-1.82,Walking,7
6.1,6.036983443,25,3,3,3,0,-1228.0,1.46,0.77,-2.74,0.25,2.69,-1.24,59.5,-20.125,649.0,0.07928466796875,0.769287109375,0.0147705078125,0.0122,5.25,7.0625,-59.5625,1.2,-1.92,Walking,7
6.11,6.05104875,25,3,3,3,0,-1142.0,1.86,1.18,-1.89,0.68,3.17,-2.38,45.6875,-17.625,645.9375,0.07720947265625,0.77191162109375,0.01507568359375,0.0122,5.25,7.0625,-59.5,1.18,-1.99,Walking,7
6.12,6.05104875,25,3,3,3,0,-1088.0,1.97,1.3,-1.37,0.8,3.35,-2.91,35.9375,-13.5,643.625,0.07525634765625,0.77398681640625,0.01580810546875,0.0122,5.5625,7.875,-59.4375,1.16,-2.05,Walking,7
6.13,6.065363976,25,3,3,3,0,-1025.0,1.71,1.91,-0.74,0.55,4.02,-2.48,33.9375,-9.875,641.375,0.07366943359375,0.77587890625,0.01654052734375,0.0122,5.5625,7.875,-59.375,1.15,-2.1,Walking,7
6.14,6.065363976,25,3,3,3,0,-991.0,1.35,2.22,-0.42,0.2,4.38,-1.67,35.4375,-6.1875,639.0,0.0726318359375,0.77783203125,0.01715087890625,0.0122,5.5625,7.875,-59.3125,1.15,-2.16,Walking,7
6.15,6.095757613,25,3,3,3,0,-983.0,0.67,2.24,-0.34,-0.47,4.46,-1.11,33.25,-2.75,636.75,0.072021484375,0.77960205078125,0.0177001953125,0.0122,5.5625,7.875,-59.25,1.14,-2.21,Walking,7
6.16,6.095757613,25,3,3,3,0,-1013.0,-0.02,2.11,-0.66,-1.17,4.37,-1.07,25.75,-0.8125,635.0,0.07159423828125,0.781005859375,0.01824951171875,0.0122,5.5625,7.875,-59.1875,1.15,-2.25,Walking,7
6.17,6.110796512,25,3,3,3,0,-1097.0,-0.77,1.45,-1.5,-1.92,3.73,-1.78,14.25,-0.8125,634.125,0.07086181640625,0.78173828125,0.01910400390625,0.0107,5.25,9.0,-59.125,1.15,-2.27,Walking,7
6.18,6.110796512,25,3,3,3,0,-1101.0,-0.28,1.04,-1.54,-1.44,3.32,-3.24,0.6875,-1.9375,634.1875,0.06964111328125,0.78173828125,0.0203857421875,0.0107,5.25,9.0,-59.125,1.15,-2.27,Walking,7
6.19,6.124808801,25,3,3,3,0,-1083.0,0.4,0.41,-1.36,-0.75,2.66,-5.32,-11.5,-3.375,635.25,0.067626953125,0.78106689453125,0.02239990234375,0.0107,5.25,9.0,-59.1875,1.16,-2.24,Walking,7
6.2,6.124808801,25,3,3,3,0,-1083.0,0.4,0.41,-1.36,-0.75,2.66,-5.32,-11.5,-3.375,635.25,0.067626953125,0.78106689453125,0.02239990234375,0.0107,5.25,9.0,-59.1875,1.16,-2.24,Walking,7
6.21,6.140400069,25,3,3,3,0,-1042.0,1.1,-0.09,-0.94,-0.06,2.11,-7.06,-18.9375,-4.5,636.875,0.06500244140625,0.77996826171875,0.0250244140625,0.0107,5.25,9.0,-59.25,1.17,-2.2,Walking,7
6.21,6.140400069,25,3,3,3,0,-932.0,1.7,-1.18,0.16,0.51,0.97,-8.05,-22.25,-5.1875,638.75,0.06195068359375,0.77862548828125,0.028076171875,0.0107,5.25,9.0,-59.3125,1.18,-2.16,Walking,7
6.22,6.15528752,25,3,3,3,0,-886.0,1.91,-1.91,0.63,0.71,0.19,-8.34,-26.8125,-5.125,640.9375,0.058837890625,0.77703857421875,0.03118896484375,0.0111,5.5625,10.5625,-59.375,1.19,-2.1,Walking,7
6.23,6.15528752,25,3,3,3,0,-856.0,2.16,-2.54,0.94,0.95,-0.5,-8.23,-32.0625,-3.625,643.4375,0.05584716796875,0.775146484375,0.0343017578125,0.0111,5.5625,10.5625,-59.4375,1.21,-2.03,Walking,7
6.24,6.216834354,25,3,3,3,0,-834.0,2.32,-2.96,1.18,1.1,-0.99,-7.99,-35.25,-1.375,646.125,0.0531005859375,0.7730712890625,0.03741455078125,0.0111,5.5625,10.5625,-59.5,1.22,-1.96,Walking,7
6.25,6.216834354,25,3,3,3,0,-758.0,2.48,-2.77,1.95,1.24,-0.87,-7.4,-34.75,1.5625,648.75,0.05078125,0.77093505859375,0.04046630859375,0.0111,5.5625,10.5625,-59.5625,1.24,-1.9,Walking,7
6.26,6.222453576,25,3,3,3,0,-714.0,2.47,-2.31,2.4,1.21,-0.48,-6.48,-32.5,5.3125,651.1875,0.04901123046875,0.76898193359375,0.04339599609375,0.0111,5.5625,10.5625,-59.625,1.26,-1.83,Walking,7
6.27,6.222453576,25,3,3,3,0,-668.0,2.32,-1.85,2.87,1.03,-0.08,-5.75,-30.75,9.3125,653.4375,0.04779052734375,0.76702880859375,0.04620361328125,0.0119,6.0,12.0625,-59.6875,1.29,-1.77,Walking,7
6.28,6.227911991,25,3,3,3,0,-628.0,2.15,-1.53,3.27,0.83,0.18,-5.23,-29.9375,13.0625,655.625,0.0469970703125,0.76519775390625,0.0489501953125,0.0119,6.0,12.0625,-59.75,1.32,-1.72,Walking,7
6.29,6.227911991,25,3,3,3,0,-560.0,1.85,-1.2,3.96,0.48,0.46,-4.66,-28.9375,16.5625,657.625,0.04656982421875,0.76336669921875,0.0517578125,0.0119,6.0,12.0625,-59.75,1.36,-1.66,Walking,7
6.3,6.246850183,25,3,3,3,0,-524.0,1.66,-1.04,4.32,0.26,0.56,-3.95,-25.5,19.4375,659.375,0.046630859375,0.76171875,0.05438232421875,0.0119,6.0,12.0625,-59.8125,1.4,-1.61,Walking,7
6.31,6.246850183,25,3,3,3,0,-506.0,1.52,-0.87,4.5,0.08,0.69,-3.02,-20.6875,21.5,660.8125,0.04705810546875,0.7603759765625,0.0567626953125,0.0119,6.0,12.0625,-59.8125,1.44,-1.57,Walking,7
6.32,6.291198164,25,3,3,3,0,-487.0,1.16,-0.38,4.69,-0.32,1.16,-1.98,-16.3125,22.25,661.875,0.0479736328125,0.75927734375,0.05877685546875,0.0115,5.5625,11.25,-59.75,1.48,-1.54,Walking,7
6.33,6.291198164,25,3,3,3,0,-510.0,0.9,-0.25,4.45,-0.62,1.26,-1.27,-13.6875,22.0625,662.75,0.04901123046875,0.75836181640625,0.060546875,0.0115,5.5625,11.25,-59.75,1.52,-1.51,Walking,7
6.34,6.297226688,25,3,3,3,0,-533.0,0.51,-0.16,4.23,-1.04,1.33,-0.85,-13.8125,20.75,663.5625,0.0501708984375,0.7574462890625,0.06201171875,0.0115,5.5625,11.25,-59.75,1.55,-1.49,Walking,7
6.35,6.297226688,25,3,3,3,0,-560.0,0.26,-0.15,3.96,-1.32,1.3,-0.23,-15.25,18.3125,664.5625,0.0513916015625,0.7564697265625,0.06304931640625,0.0115,5.5625,11.25,-59.75,1.58,-1.46,Walking,7
6.36,6.302397627,25,3,3,3,0,-609.0,0.12,-0.51,3.46,-1.48,0.92,0.85,-18.5,14.8125,665.6875,0.05279541015625,0.75537109375,0.0634765625,0.0115,5.5625,11.25,-59.75,1.61,-1.43,Walking,7
6.37,6.302397627,25,3,3,3,0,-644.0,0.27,-0.81,3.12,-1.34,0.59,2.14,-21.875,11.3125,667.0625,0.054443359375,0.75408935546875,0.0631103515625,0.0112,5.25,12.875,-59.75,1.62,-1.4,Walking,7
6.38,6.321715946,25,3,3,3,0,-680.0,0.44,-1.15,2.76,-1.19,0.21,3.06,-24.25,8.6875,668.5625,0.05621337890625,0.7528076171875,0.062255859375,0.0112,5.25,12.875,-59.8125,1.63,-1.36,Walking,7
6.39,6.321715946,25,3,3,3,0,-716.0,0.54,-1.5,2.4,-1.09,-0.17,3.34,-27.125,7.4375,670.25,0.05804443359375,0.75128173828125,0.06121826171875,0.0112,5.25,12.875,-59.8125,1.64,-1.33,Walking,7
6.4,6.351133996,25,3,3,3,0,-795.0,0.62,-2.02,1.62,-1.03,-0.74,3.05,-29.75,7.25,672.125,0.059814453125,0.7496337890625,0.0601806640625,0.0112,5.25,12.875,-59.875,1.65,-1.28,Walking,7
6.41,6.351133996,25,3,3,3,0,-829.0,0.68,-2.25,1.29,-0.98,-1.01,2.84,-32.125,6.875,674.1875,0.06146240234375,0.74786376953125,0.05926513671875,0.0112,5.25,12.875,-59.875,1.66,-1.23,Walking,7
6.42,6.356490075,25,3,3,3,0,-862.0,0.64,-2.5,0.96,-1.02,-1.31,2.71,-32.25,5.6875,676.1875,0.06292724609375,0.74603271484375,0.058349609375,0.0112,5.5625,13.6875,-59.9375,1.66,-1.18,Walking,7
6.43,6.356490075,25,3,3,3,0,-908.0,0.62,-2.82,0.5,-1.04,-1.67,2.65,-29.8125,4.8125,678.0625,0.06439208984375,0.74432373046875,0.057373046875,0.0112,5.5625,13.6875,-59.9375,1.67,-1.14,Walking,7
6.44,6.410778812,25,3,3,3,0,-1000.0,0.71,-3.01,-0.4,-0.96,-1.91,2.4,-25.75,4.4375,679.6875,0.065673828125,0.742919921875,0.0565185546875,0.0112,5.5625,13.6875,-59.9375,1.67,-1.1,Walking,7
6.45,6.410778812,25,3,3,3,0,-1043.0,0.85,-2.96,-0.83,-0.82,-1.89,1.85,-20.9375,5.3125,681.0,0.0667724609375,0.74169921875,0.05596923828125,0.0112,5.5625,13.6875,-60.0,1.68,-1.07,Walking,7
6.46,6.415799523,25,3,3,3,0,-1053.0,0.51,-2.92,-0.93,-1.18,-1.87,1.0,-14.8125,6.3125,681.9375,0.067626953125,0.7408447265625,0.05584716796875,0.0112,5.5625,13.6875,-60.0,1.69,-1.04,Walking,7
6.47,6.415799523,25,3,3,3,0,-1138.0,0.33,-2.94,-1.78,-1.36,-1.9,0.39,-5.6875,6.75,682.25,0.0682373046875,0.740478515625,0.0560302734375,0.0125,5.375,13.6875,-60.0,1.7,-1.03,Walking,7
6.48,6.420420332,25,3,3,3,0,-1138.0,0.33,-2.94,-1.78,-1.36,-1.9,0.39,-5.6875,6.75,682.25,0.0682373046875,0.740478515625,0.0560302734375,0.0125,5.375,13.6875,-60.0,1.7,-1.03,Walking,7
6.48,6.420420332,25,3,3,3,0,-1152.0,0.31,-3.03,-1.92,-1.39,-1.98,-0.05,4.125,6.625,681.9375,0.06866455078125,0.74066162109375,0.05645751953125,0.0125,5.375,13.6875,-59.9375,1.71,-1.04,Walking,7
6.49,6.440485681,25,3,3,3,0,-1169.0,0.34,-2.93,-2.1,-1.37,-1.85,0.42,15.1875,4.75,680.9375,0.06903076171875,0.74151611328125,0.056640625,0.0125,5.375,13.6875,-59.9375,1.72,-1.07,Walking,7
6.5,6.440485681,25,3,3,3,0,-1191.0,0.48,-2.89,-2.33,-1.24,-1.77,0.55,24.5625,2.8125,679.25,0.06927490234375,0.74298095703125,0.05670166015625,0.0125,5.375,13.6875,-59.875,1.72,-1.11,Walking,7
6.51,6.48716427,25,3,3,3,0,-1240.0,0.22,-3.17,-2.82,-1.5,-2.0,-0.35,28.75,2.1875,677.3125,0.06915283203125,0.74456787109375,0.05712890625,0.0125,5.375,13.6875,-59.875,1.73,-1.16,Walking,7
6.52,6.48716427,25,3,3,3,0,-1268.0,0.05,-3.22,-3.11,-1.67,-2.02,-1.82,26.4375,3.0,675.625,0.06854248046875,0.74603271484375,0.0582275390625,0.0122,5.6875,14.0625,-59.8125,1.73,-1.2,Walking,7
6.53,6.492085778,25,3,3,3,0,-1281.0,0.11,-3.26,-3.24,-1.63,-2.03,-3.3,20.3125,4.5,674.375,0.06756591796875,0.7470703125,0.0599365234375,0.0122,5.6875,14.0625,-59.8125,1.75,-1.22,Walking,7
6.54,6.492085778,25,3,3,3,0,-1296.0,0.49,-3.3,-3.4,-1.27,-2.05,-4.37,16.6875,5.3125,673.375,0.06622314453125,0.74786376953125,0.0621337890625,0.0122,5.6875,14.0625,-59.75,1.76,-1.24,Walking,7
6.55,6.497239099,25,3,3,3,0,-1324.0,1.41,-4.06,-3.68,-0.36,-2.79,-4.94,18.375,6.3125,672.3125,0.06475830078125,0.74871826171875,0.0645751953125,0.0122,5.6875,14.0625,-59.6875,1.78,-1.27,Walking,7
6.56,6.497239099,25,3,3,3,0,-1387.0,2.13,-4.33,-4.32,0.32,-3.03,-4.81,23.5625,9.5,670.8125,0.06353759765625,0.7498779296875,0.06719970703125,0.0122,5.6875,14.0625,-59.6875,1.8,-1.3,Walking,7
6.57,6.515573042,25,3,3,3,0,-1457.0,3.18,-3.98,-5.03,1.35,-2.63,-3.75,35.0,13.25,668.5,0.0628662109375,0.75164794921875,0.0697021484375,0.0116,5.0,14.6875,-59.5625,1.83,-1.35,Walking,7
6.58,6.515573042,25,3,3,3,0,-1448.0,4.31,-3.07,-4.96,2.44,-1.63,-1.24,55.4375,17.9375,664.6875,0.063232421875,0.754638671875,0.071533203125,0.0116,5.0,14.6875,-59.4375,1.86,-1.44,Walking,7
6.59,6.561761193,25,3,3,3,0,-1159.0,4.66,-1.25,-2.1,2.76,0.3,1.96,71.5,23.0625,659.625,0.06500244140625,0.7586669921875,0.0723876953125,0.0116,5.0,14.6875,-59.3125,1.89,-1.56,Walking,7
6.6,6.561761193,25,3,3,3,0,-1115.0,4.26,-0.23,-1.68,2.33,1.45,3.64,69.4375,26.0625,654.625,0.06756591796875,0.76251220703125,0.07275390625,0.0116,5.0,14.6875,-59.125,1.93,-1.68,Walking,7
6.61,6.567491703,25,3,3,3,0,-1167.0,3.91,0.77,-2.24,1.94,2.56,3.63,55.0,26.3125,650.5625,0.0701904296875,0.76556396484375,0.072998046875,0.0116,5.0,14.6875,-58.9375,1.97,-1.78,Walking,7
6.62,6.567491703,25,3,3,3,0,-1193.0,3.58,1.44,-2.51,1.58,3.29,3.42,39.125,22.75,647.5625,0.0726318359375,0.76776123046875,0.07305908203125,0.0109,5.6875,14.375,-58.8125,2.0,-1.85,Walking,7
6.63,6.572809004,25,3,3,3,0,-1197.0,4.03,2.16,-2.56,2.01,4.07,3.21,26.875,19.0,645.5,0.07489013671875,0.76922607421875,0.07293701171875,0.0109,5.6875,14.375,-58.75,2.02,-1.9,Walking,7
6.64,6.572809004,25,3,3,3,0,-1216.0,4.62,2.2,-2.77,2.57,4.14,2.88,16.9375,17.625,644.0625,0.076904296875,0.77020263671875,0.07281494140625,0.0109,5.6875,14.375,-58.6875,2.04,-1.94,Walking,7
6.65,6.590077437,25,3,3,3,0,-1223.0,5.32,2.16,-2.85,3.24,4.12,3.08,7.0,18.4375,643.3125,0.07916259765625,0.77056884765625,0.07257080078125,0.0109,5.6875,14.375,-58.625,2.07,-1.96,Walking,7
6.66,6.590077437,25,3,3,3,0,-1158.0,6.44,1.97,-2.21,4.34,3.94,4.06,-1.5625,20.5,643.125,0.08197021484375,0.7705078125,0.07196044921875,0.0109,5.6875,14.375,-58.5625,2.09,-1.96,Walking,7
