timestamp,android_nano_timestamp,temperature,calib_mag,calib_accel,calib_gyro,calib_sys,acc_x,acc_y,acc_z,lacc_x,lacc_y,lacc_z,gyro_x,gyro_y,gyro_z,quat_w,quat_x,quat_y,quat_z,mag_x,mag_y,mag_z,gravity_x,gravity_y,gravity_z,label,person
0.55,0.499622071,26,3,3,3,2,-900.0,2.43,-1.33,0.34,-0.28,-0.19,0.62,-7.1875,12.375,658.0625,0.01885986328125,0.74688720703125,0.169677734375,0.0148,12.6875,3.5,-58.4375,2.72,-1.14,Walking,7
0.56,0.499622071,26,3,3,3,2,-896.0,2.5,-1.24,0.38,-0.23,-0.1,0.63,-6.0,11.5625,658.1875,0.0198974609375,0.7467041015625,0.16998291015625,0.0148,12.6875,3.5,-58.375,2.74,-1.13,Walking,7
0.57,0.501555136,26,3,3,3,2,-894.0,2.62,-1.12,0.39,-0.13,0.0,0.43,-4.5625,11.0,658.3125,0.02081298828125,0.7464599609375,0.17041015625,0.0148,12.6875,3.5,-58.375,2.75,-1.13,Walking,7
0.58,0.501555136,26,3,3,3,2,-897.0,2.77,-1.08,0.35,0.0,0.04,0.3,-3.25,10.9375,658.375,0.02166748046875,0.746337890625,0.1708984375,0.0148,12.6875,3.5,-58.3125,2.77,-1.12,Walking,7
0.58,0.529175294,26,3,3,3,2,-924.0,3.16,-1.24,0.08,0.36,-0.11,0.4,-2.5625,11.6875,658.3125,0.02264404296875,0.7462158203125,0.17138671875,0.0148,12.6875,3.5,-58.3125,2.79,-1.12,Walking,7
0.59,0.529175294,26,3,3,3,2,-931.0,3.22,-1.39,0.0,0.41,-0.27,0.6,-2.6875,12.4375,658.3125,0.023681640625,0.74609375,0.17181396484375,0.0145,13.5,2.6875,-58.25,2.81,-1.12,Walking,7
0.61,0.543542074,26,3,3,3,2,-932.0,3.22,-1.5,0.0,0.39,-0.38,0.77,-4.0,13.1875,658.375,0.02490234375,0.74591064453125,0.1722412109375,0.0145,13.5,2.6875,-58.25,2.83,-1.11,Walking,7
0.62,0.543542074,26,3,3,3,2,-931.0,3.25,-1.55,0.0,0.39,-0.44,0.83,-5.6875,13.75,658.5,0.02618408203125,0.74560546875,0.172607421875,0.0145,13.5,2.6875,-58.1875,2.85,-1.11,Walking,7
0.63,0.55787793,26,3,3,3,2,-919.0,3.37,-1.41,0.11,0.49,-0.31,0.88,-8.0,14.3125,658.8125,0.02752685546875,0.7452392578125,0.17303466796875,0.0145,13.5,2.6875,-58.1875,2.87,-1.1,Walking,7
0.64,0.55787793,26,3,3,3,2,-910.0,3.4,-1.4,0.19,0.5,-0.32,1.05,-11.0,14.875,659.3125,0.02899169921875,0.74468994140625,0.1734619140625,0.0145,13.5,2.6875,-58.125,2.89,-1.08,Walking,7
0.65,0.572467977,26,3,3,3,3,-898.0,3.41,-1.51,0.31,0.48,-0.44,1.33,-14.4375,15.5625,660.0,0.03070068359375,0.74395751953125,0.1737060546875,0.0142,13.5,3.0625,-58.0625,2.92,-1.06,Walking,7
0.66,0.572467977,26,3,3,3,3,-888.0,3.41,-1.61,0.4,0.46,-0.57,1.63,-16.875,16.125,660.8125,0.0325927734375,0.74310302734375,0.1739501953125,0.0142,13.5,3.0625,-58.0625,2.94,-1.04,Walking,7
0.66,0.604054322,26,3,3,3,3,-874.0,3.46,-1.77,0.54,0.49,-0.75,1.88,-18.625,16.9375,661.75,0.03466796875,0.7421875,0.174072265625,0.0142,13.5,3.0625,-58.0,2.97,-1.02,Walking,7
0.68,0.604054322,26,3,3,3,3,-866.0,3.52,-1.73,0.62,0.52,-0.74,2.14,-19.0,17.5,662.6875,0.03680419921875,0.74127197265625,0.17413330078125,0.0142,13.5,3.0625,-58.0,2.99,-0.99,Walking,7
0.69,0.617871786,26,3,3,3,3,-856.0,3.59,-1.7,0.71,0.56,-0.72,2.41,-18.625,17.875,663.625,0.03912353515625,0.74041748046875,0.174072265625,0.0142,13.5,3.0625,-57.9375,3.02,-0.97,Walking,7
0.7,0.617871786,26,3,3,3,3,-838.0,3.78,-1.57,0.88,0.73,-0.61,2.65,-17.875,18.625,664.4375,0.04150390625,0.73956298828125,0.17401123046875,0.0155,13.5,3.875,-57.9375,3.05,-0.95,Walking,7
0.71,0.63391683,26,3,3,3,3,-843.0,3.86,-1.52,0.82,0.78,-0.58,2.86,-16.8125,19.3125,665.1875,0.0440673828125,0.73883056640625,0.17388916015625,0.0155,13.5,3.875,-57.875,3.08,-0.93,Walking,7
0.72,0.63391683,26,3,3,3,3,-865.0,3.93,-1.49,0.6,0.82,-0.57,3.06,-15.5625,20.3125,665.8125,0.04669189453125,0.7381591796875,0.17376708984375,0.0155,13.5,3.875,-57.8125,3.11,-0.92,Walking,7
0.73,0.664656861,26,3,3,3,3,-891.0,3.89,-1.52,0.32,0.74,-0.61,3.2,-13.5,20.75,666.25,0.04937744140625,0.73760986328125,0.173583984375,0.0155,13.5,3.875,-57.75,3.14,-0.91,Walking,7
0.74,0.664656861,26,3,3,3,3,-931.0,3.45,-1.73,-0.07,0.28,-0.82,3.1,-11.0625,20.375,666.5625,0.05194091796875,0.7371826171875,0.1734619140625,0.0155,13.5,3.875,-57.6875,3.17,-0.9,Walking,7
0.74,0.678725302,26,3,3,3,3,-944.0,3.28,-1.81,-0.22,0.08,-0.91,2.84,-8.75,19.0625,666.75,0.0543212890625,0.73687744140625,0.17333984375,0.0148,13.0625,2.25,-57.625,3.19,-0.9,Walking,7
0.76,0.678725302,26,3,3,3,3,-955.0,3.17,-1.89,-0.34,-0.04,-0.99,2.57,-7.25,17.1875,666.875,0.05645751953125,0.73663330078125,0.17327880859375,0.0148,13.0625,2.25,-57.5625,3.22,-0.89,Walking,7
0.77,0.693284018,26,3,3,3,3,-958.0,3.1,-1.97,-0.37,-0.14,-1.08,2.39,-6.125,15.0625,667.0,0.058349609375,0.7364501953125,0.173095703125,0.0148,13.0625,2.25,-57.5625,3.24,-0.89,Walking,7
0.78,0.693284018,26,3,3,3,3,-944.0,3.19,-2.15,-0.24,-0.07,-1.25,2.29,-5.25,13.3125,667.0625,0.06011962890625,0.736328125,0.17291259765625,0.0148,13.0625,2.25,-57.5,3.26,-0.89,Walking,7
0.79,0.72415442,26,3,3,3,3,-930.0,3.33,-2.26,-0.1,0.04,-1.36,2.19,-4.125,11.875,667.0625,0.061767578125,0.7362060546875,0.17266845703125,0.0148,13.0625,2.25,-57.4375,3.28,-0.89,Walking,7
0.8,0.72415442,26,3,3,3,3,-921.0,3.39,-2.29,-0.02,0.09,-1.39,2.06,-3.1875,11.0,667.0,0.063232421875,0.7362060546875,0.1724853515625,0.0151,12.6875,1.875,-57.4375,3.29,-0.9,Walking,7
0.81,0.741137981,26,3,3,3,3,-910.0,3.39,-2.28,0.07,0.08,-1.37,1.89,-1.9375,9.75,666.875,0.0645751953125,0.7362060546875,0.1722412109375,0.0151,12.6875,1.875,-57.375,3.31,-0.9,Walking,7
0.82,0.741137981,26,3,3,3,3,-886.0,3.48,-2.05,0.31,0.15,-1.14,1.75,-1.125,8.625,666.75,0.0657958984375,0.73626708984375,0.17205810546875,0.0151,12.6875,1.875,-57.375,3.32,-0.91,Walking,7
0.83,0.754229696,26,3,3,3,3,-878.0,3.57,-1.96,0.38,0.24,-1.04,1.56,-0.75,7.5625,666.625,0.06683349609375,0.736328125,0.17181396484375,0.0151,12.6875,1.875,-57.3125,3.33,-0.91,Walking,7
0.84,0.754229696,26,3,3,3,3,-871.0,3.66,-1.9,0.46,0.32,-0.98,1.41,-1.375,6.6875,666.5625,0.06781005859375,0.73638916015625,0.171630859375,0.0151,12.6875,1.875,-57.3125,3.34,-0.91,Walking,7
0.85,0.784119182,26,3,3,3,3,-865.0,3.74,-1.84,0.51,0.39,-0.92,1.38,-2.125,5.875,666.5625,0.06866455078125,0.736328125,0.17138671875,0.0147,13.0625,0.25,-57.25,3.35,-0.92,Walking,7
0.86,0.784119182,26,3,3,3,3,-869.0,3.93,-1.8,0.47,0.57,-0.87,1.34,-2.9375,5.0,666.5625,0.06951904296875,0.73626708984375,0.171142578125,0.0147,13.0625,0.25,-57.25,3.35,-0.92,Walking,7
0.87,0.797959677,26,3,3,3,3,-874.0,3.97,-1.78,0.42,0.61,-0.86,1.28,-3.375,4.3125,666.6875,0.0703125,0.7362060546875,0.17083740234375,0.0147,13.0625,0.25,-57.25,3.36,-0.92,Walking,7
0.88,0.797959677,26,3,3,3,3,-879.0,3.95,-1.77,0.36,0.58,-0.85,1.27,-3.8125,3.75,666.8125,0.07110595703125,0.736083984375,0.1705322265625,0.0147,13.0625,0.25,-57.25,3.36,-0.91,Walking,7
0.89,0.813855469,26,3,3,3,3,-888.0,3.82,-1.74,0.27,0.45,-0.83,1.22,-4.0625,2.75,667.0,0.07177734375,0.7359619140625,0.170166015625,0.0147,13.0625,0.25,-57.25,3.37,-0.91,Walking,7
0.9,0.813855469,26,3,3,3,3,-884.0,3.7,-1.78,0.31,0.32,-0.87,1.1,-5.125,1.6875,667.25,0.07232666015625,0.73577880859375,0.1697998046875,0.0147,12.375,0.6875,-57.25,3.37,-0.91,Walking,7
0.91,0.844340048,26,3,3,3,3,-885.0,3.56,-1.81,0.3,0.18,-0.88,0.9,-6.4375,0.3125,666.4375,0.07330322265625,0.73638916015625,0.1695556640625,0.0147,12.375,0.6875,-57.1875,3.38,-0.93,Walking,7
0.92,0.844340048,26,3,3,3,3,-882.0,3.47,-1.87,0.33,0.09,-0.95,0.66,-7.125,-0.875,666.875,0.07354736328125,0.736083984375,0.169189453125,0.0147,12.375,0.6875,-57.1875,3.38,-0.92,Walking,7
0.93,0.857950237,26,3,3,3,3,-895.0,3.27,-2.0,0.2,-0.1,-1.08,0.42,-7.0,-2.5,667.375,0.07366943359375,0.73577880859375,0.16888427734375,0.0147,12.375,0.6875,-57.25,3.37,-0.91,Walking,7
0.94,0.857950237,26,3,3,3,3,-899.0,3.18,-2.01,0.16,-0.18,-1.1,0.18,-5.8125,-4.6875,667.75,0.07354736328125,0.7354736328125,0.16845703125,0.0147,12.375,0.6875,-57.25,3.37,-0.9,Walking,7
0.95,0.874076905,26,3,3,3,3,-900.0,3.07,-2.02,0.16,-0.28,-1.11,-0.05,-3.4375,-7.0,668.125,0.0731201171875,0.7353515625,0.16802978515625,0.0147,12.375,0.6875,-57.25,3.35,-0.9,Walking,7
0.96,0.874076905,26,3,3,3,3,-896.0,3.02,-1.98,0.2,-0.32,-1.08,-0.32,-1.375,-9.3125,668.3125,0.07244873046875,0.73529052734375,0.16766357421875,0.0147,12.375,0.6875,-57.3125,3.34,-0.9,Walking,7
0.97,0.903199057,26,3,3,3,3,-895.0,3.02,-2.01,0.23,-0.3,-1.11,-0.54,0.0,-11.5,668.5,0.071533203125,0.7353515625,0.16717529296875,0.0147,12.375,0.6875,-57.375,3.32,-0.89,Walking,7
0.98,0.903199057,26,3,3,3,3,-894.0,3.05,-2.03,0.24,-0.24,-1.13,-0.8,1.0,-13.5,668.625,0.07037353515625,0.73541259765625,0.166748046875,0.0147,12.375,0.6875,-57.375,3.3,-0.89,Walking,7
0.99,0.918998129,26,3,3,3,3,-893.0,3.11,-2.04,0.26,-0.16,-1.15,-1.05,1.625,-15.1875,668.75,0.0689697265625,0.73553466796875,0.16632080078125,0.0147,12.375,0.6875,-57.4375,3.28,-0.89,Walking,7
1.0,0.918998129,26,3,3,3,3,-890.0,3.14,-2.05,0.3,-0.11,-1.16,-1.4,1.8125,-16.375,668.9375,0.0673828125,0.73565673828125,0.16595458984375,0.0162,12.375,-0.0625,-57.5,3.25,-0.89,Walking,7
1.01,0.933467408,26,3,3,3,3,-885.0,3.19,-2.15,0.35,-0.04,-1.22,-1.8,2.1875,-17.3125,667.6875,0.0657958984375,0.73699951171875,0.1654052734375,0.0162,12.375,-0.0625,-57.5625,3.23,-0.93,Walking,7
1.02,0.933467408,26,3,3,3,3,-875.0,3.14,-2.19,0.45,-0.06,-1.23,-2.24,2.4375,-18.3125,666.4375,0.06396484375,0.73834228515625,0.16497802734375,0.0162,12.375,-0.0625,-57.5625,3.2,-0.96,Walking,7
1.03,0.962998455,26,3,3,3,3,-869.0,3.08,-2.15,0.52,-0.09,-1.15,-2.69,2.8125,-18.875,665.125,0.06195068359375,0.73968505859375,0.164794921875,0.0162,12.375,-0.0625,-57.625,3.17,-0.99,Walking,7
1.04,0.962998455,26,3,3,3,3,-863.0,2.94,-2.15,0.58,-0.2,-1.12,-3.12,3.5625,-19.8125,663.8125,0.0596923828125,0.740966796875,0.1646728515625,0.0162,12.375,-0.0625,-57.625,3.15,-1.03,Walking,7
1.05,0.978857382,26,3,3,3,3,-869.0,2.92,-2.11,0.53,-0.19,-1.05,-3.51,4.1875,-21.0625,662.5625,0.05718994140625,0.74224853515625,0.16461181640625,0.0144,12.6875,-0.875,-57.6875,3.12,-1.06,Walking,7
1.06,0.978857382,26,3,3,3,3,-877.0,2.95,-2.18,0.46,-0.13,-1.09,-3.77,4.375,-22.3125,661.375,0.054443359375,0.7435302734375,0.16461181640625,0.0144,12.6875,-0.875,-57.75,3.09,-1.09,Walking,7
1.07,0.99252413,26,3,3,3,3,-886.0,2.99,-2.25,0.38,-0.06,-1.12,-3.93,5.1875,-23.6875,660.0625,0.0516357421875,0.7447509765625,0.1646728515625,0.0144,12.6875,-0.875,-57.75,3.05,-1.12,Walking,7
1.08,0.99252413,26,3,3,3,3,-902.0,3.1,-2.53,0.23,0.07,-1.37,-3.97,6.75,-25.3125,658.625,0.0487060546875,0.7462158203125,0.1646728515625,0.0144,12.6875,-0.875,-57.8125,3.02,-1.16,Walking,7
1.09,1.023439902,26,3,3,3,3,-907.0,3.11,-2.63,0.19,0.12,-1.47,-3.91,8.125,-26.75,658.5625,0.04547119140625,0.7464599609375,0.164794921875,0.0144,12.6875,-0.875,-57.875,2.98,-1.16,Walking,7
1.1,1.023439902,26,3,3,3,3,-911.0,3.2,-2.72,0.16,0.25,-1.56,-3.81,9.1875,-28.25,658.4375,0.04217529296875,0.74676513671875,0.164794921875,0.0154,13.0625,-0.875,-58.0,2.94,-1.16,Walking,7
1.11,1.038460287,26,3,3,3,3,-911.0,3.31,-2.74,0.17,0.4,-1.57,-3.82,9.3125,-29.3125,658.25,0.038818359375,0.7470703125,0.16473388671875,0.0154,13.0625,-0.875,-58.0625,2.9,-1.16,Walking,7
1.12,1.038460287,26,3,3,3,3,-920.0,3.35,-2.85,0.1,0.49,-1.68,-4.01,9.3125,-29.8125,658.125,0.03533935546875,0.74737548828125,0.16473388671875,0.0154,13.0625,-0.875,-58.125,2.85,-1.17,Walking,7
1.13,1.053326498,26,3,3,3,3,-923.0,3.33,-2.96,0.08,0.51,-1.79,-4.16,8.5625,-30.5625,658.0625,0.03173828125,0.74755859375,0.16473388671875,0.0154,13.0625,-0.875,-58.25,2.81,-1.17,Walking,7
1.14,1.053326498,26,3,3,3,3,-927.0,3.25,-3.11,0.05,0.48,-1.93,-4.29,7.625,-31.0,658.0625,0.02813720703125,0.74774169921875,0.16473388671875,0.0154,13.0625,-0.875,-58.3125,2.77,-1.17,Walking,7
1.15,1.083555868,26,3,3,3,2,-935.0,3.22,-3.23,0.0,0.49,-2.05,-4.26,7.125,-32.125,658.0625,0.0244140625,0.74786376953125,0.1646728515625,0.0137,13.5,-1.5625,-58.375,2.72,-1.17,Walking,7
1.16,1.083555868,26,3,3,3,2,-944.0,3.1,-3.34,-0.08,0.43,-2.17,-4.09,7.4375,-33.375,658.125,0.02069091796875,0.74798583984375,0.16448974609375,0.0137,13.5,-1.5625,-58.5,2.67,-1.17,Walking,7
1.17,1.099014283,26,3,3,3,2,-952.0,3.06,-3.34,-0.14,0.43,-2.16,-3.98,8.5,-34.8125,658.0625,0.01690673828125,0.7481689453125,0.1641845703125,0.0137,13.5,-1.5625,-58.5625,2.62,-1.17,Walking,7
1.18,1.099014283,26,3,3,3,2,-957.0,3.09,-3.36,-0.18,0.52,-2.18,-3.96,9.5625,-36.5,657.9375,0.01300048828125,0.74847412109375,0.16375732421875,0.0137,13.5,-1.5625,-58.6875,2.56,-1.18,Walking,7
1.19,1.114010051,26,3,3,3,2,-963.0,3.1,-3.43,-0.23,0.59,-2.24,-4.01,9.9375,-38.4375,657.8125,0.00897216796875,0.74871826171875,0.16326904296875,0.0137,13.5,-1.5625,-58.75,2.51,-1.18,Walking,7
1.2,1.114010051,26,3,3,3,2,-966.0,3.21,-3.66,-0.24,0.76,-2.46,-4.17,9.75,-40.375,657.75,0.0047607421875,0.74896240234375,0.1627197265625,0.0129,12.6875,-0.75,-58.875,2.44,-1.19,Walking,7
1.21,1.143922852,26,3,3,3,2,-981.0,3.33,-3.71,-0.37,0.94,-2.51,-4.17,10.3125,-42.5,657.625,0.0003662109375,0.74920654296875,0.16204833984375,0.0129,12.6875,-0.75,-58.9375,2.38,-1.2,Walking,7
1.22,1.143922852,26,3,3,3,2,-1035.0,3.45,-3.39,-0.9,1.13,-2.18,-3.4,14.375,-43.9375,657.25,-0.00390625,0.749755859375,0.16094970703125,0.0129,12.6875,-0.75,-59.0625,2.31,-1.21,Walking,7
1.22,1.146991253,26,3,3,3,2,-1035.0,3.45,-3.39,-0.9,1.13,-2.18,-3.4,14.375,-43.9375,657.25,-0.00390625,0.749755859375,0.16094970703125,0.0129,12.6875,-0.75,-59.0625,2.31,-1.21,Walking,7
1.23,1.146991253,26,3,3,3,2,-1236.0,3.8,-1.8,-2.9,1.56,-0.54,-2.06,23.9375,-45.625,656.25,-0.0079345703125,0.75091552734375,0.15924072265625,0.0129,12.6875,-0.75,-59.125,2.24,-1.25,Walking,7
1.24,1.173004477,26,3,3,3,2,-1261.0,3.96,-1.27,-3.13,1.79,0.03,-1.28,34.625,-48.0,654.5625,-0.01202392578125,0.752685546875,0.15704345703125,0.0129,12.6875,-0.75,-59.1875,2.16,-1.3,Walking,7
1.25,1.173004477,26,3,3,3,1,-1224.0,3.95,-1.28,-2.75,1.86,0.07,-1.45,36.4375,-49.1875,652.75,-0.0162353515625,0.75457763671875,0.15484619140625,0.0134,13.75,-2.75,-59.25,2.08,-1.36,Walking,7
1.26,1.187549643,26,3,3,3,1,-1173.0,3.94,-1.7,-2.24,1.93,-0.3,-1.52,21.625,-46.3125,651.875,-0.02008056640625,0.755615234375,0.15289306640625,0.0134,13.75,-2.75,-59.3125,2.01,-1.39,Walking,7
1.27,1.187549643,26,3,3,3,1,-1129.0,3.84,-2.26,-1.78,1.89,-0.87,-0.58,-2.4375,-40.875,652.5625,-0.02294921875,0.75537109375,0.15087890625,0.0134,13.75,-2.75,-59.375,1.94,-1.39,Walking,7
1.28,1.203550945,26,3,3,3,1,-1127.0,3.43,-2.17,-1.75,1.54,-0.81,0.82,-20.25,-35.5,654.375,-0.02471923828125,0.7542724609375,0.1485595703125,0.0134,13.75,-2.75,-59.5,1.88,-1.36,Walking,7
1.29,1.203550945,26,3,3,3,1,-1116.0,2.75,-1.96,-1.62,0.92,-0.63,2.27,-24.0625,-30.375,656.375,-0.025634765625,0.7530517578125,0.14599609375,0.0134,13.75,-2.75,-59.625,1.83,-1.32,Walking,7
1.3,1.233518963,26,3,3,3,1,-1089.0,2.1,-1.62,-1.34,0.32,-0.31,3.5,-16.0,-26.0625,657.8125,-0.02587890625,0.75244140625,0.14312744140625,0.0131,14.1875,-2.6875,-59.6875,1.78,-1.31,Walking,7
1.31,1.233518963,26,3,3,3,1,-929.0,0.6,-0.63,0.26,-1.13,0.67,4.01,-4.4375,-23.0,658.4375,-0.02593994140625,0.75244140625,0.1402587890625,0.0131,14.1875,-2.6875,-59.75,1.74,-1.31,Walking,7
1.32,1.248824749,26,3,3,3,1,-857.0,-0.02,0.1,0.98,-1.72,1.42,3.94,2.6875,-20.375,658.5,-0.02587890625,0.7529296875,0.137451171875,0.0131,14.1875,-2.6875,-59.75,1.7,-1.32,Walking,7
1.33,1.248824749,26,3,3,3,1,-811.0,-0.37,0.73,1.45,-2.04,2.07,2.99,7.0,-17.3125,658.25,-0.02606201171875,0.75347900390625,0.13525390625,0.0131,14.1875,-2.6875,-59.75,1.67,-1.34,Walking,7
1.34,1.263908611,26,3,3,3,1,-783.0,-0.65,1.18,1.73,-2.3,2.54,1.49,9.375,-13.0625,657.8125,-0.0264892578125,0.754150390625,0.1339111328125,0.0131,14.1875,-2.6875,-59.8125,1.64,-1.36,Walking,7
1.35,1.263908611,26,3,3,3,0,-781.0,-0.76,1.39,1.75,-2.39,2.77,0.15,10.125,-8.4375,657.1875,-0.027099609375,0.75469970703125,0.13330078125,0.0113,14.5,-5.75,-59.8125,1.63,-1.37,Walking,7
1.36,1.294948813,26,3,3,3,0,-803.0,-0.51,1.41,1.53,-2.13,2.81,-0.57,8.8125,-4.125,656.625,-0.0277099609375,0.75518798828125,0.13330078125,0.0113,14.5,-5.75,-59.75,1.62,-1.39,Walking,7
1.37,1.294948813,26,3,3,3,0,-835.0,-0.41,1.35,1.21,-2.03,2.76,-1.28,7.375,-2.25,656.125,-0.02838134765625,0.7554931640625,0.13372802734375,0.0113,14.5,-5.75,-59.75,1.62,-1.4,Walking,7
1.38,1.308760336,26,3,3,3,0,-917.0,-0.2,0.89,0.39,-1.82,2.3,-1.83,5.75,-1.6875,655.6875,-0.0291748046875,0.7557373046875,0.13433837890625,0.0113,14.5,-5.75,-59.75,1.62,-1.41,Walking,7
1.39,1.308760336,26,3,3,3,0,-962.0,-0.05,0.64,-0.05,-1.67,2.05,-2.29,4.3125,-2.3125,655.375,-0.03021240234375,0.75579833984375,0.1351318359375,0.0113,14.5,-5.75,-59.75,1.62,-1.41,Walking,7
1.4,1.323154745,26,3,3,3,0,-1000.0,0.14,0.49,-0.43,-1.47,1.91,-2.79,2.4375,-3.0,655.1875,-0.0313720703125,0.7557373046875,0.1361083984375,0.0124,14.1875,-7.0,-59.75,1.62,-1.41,Walking,7
1.41,1.323154745,26,3,3,3,0,-1029.0,0.26,0.35,-0.72,-1.36,1.76,-3.64,-0.875,-3.5625,655.1875,-0.03289794921875,0.75543212890625,0.137451171875,0.0124,14.1875,-7.0,-59.75,1.62,-1.4,Walking,7
1.42,1.401434571,26,3,3,3,0,-1056.0,0.36,-0.04,-0.99,-1.26,1.33,-4.6,-6.5625,-4.0625,655.5625,-0.03466796875,0.75469970703125,0.13909912109375,0.0124,14.1875,-7.0,-59.8125,1.62,-1.38,Walking,7
1.43,1.401434571,26,3,3,3,0,-1061.0,0.34,-0.23,-1.04,-1.28,1.12,-5.48,-14.6875,-4.0625,656.5,-0.03668212890625,0.75347900390625,0.14117431640625,0.0124,14.1875,-7.0,-59.8125,1.62,-1.35,Walking,7
1.44,1.404602052,26,3,3,3,0,-1061.0,0.36,-0.38,-1.03,-1.26,0.92,-6.09,-21.8125,-4.0625,657.875,-0.038818359375,0.75177001953125,0.14349365234375,0.0124,14.1875,-7.0,-59.875,1.62,-1.3,Walking,7
1.45,1.404602052,26,3,3,3,0,-1053.0,0.34,-0.56,-0.94,-1.28,0.68,-6.42,-26.6875,-4.0,659.5625,-0.041015625,0.749755859375,0.14599609375,0.0127,13.75,-7.0,-59.875,1.62,-1.25,Walking,7
1.46,1.407612428,26,3,3,3,0,-1014.0,0.34,-1.14,-0.54,-1.28,0.04,-6.44,-28.9375,-3.8125,661.4375,-0.04315185546875,0.74755859375,0.14849853515625,0.0127,13.75,-7.0,-59.9375,1.63,-1.19,Walking,7
1.47,1.407612428,26,3,3,3,0,-988.0,0.41,-1.44,-0.28,-1.21,-0.31,-6.47,-29.375,-3.625,663.25,-0.0452880859375,0.745361328125,0.15106201171875,0.0127,13.75,-7.0,-60.0,1.63,-1.13,Walking,7
1.48,1.413450074,26,3,3,3,0,-950.0,0.56,-1.7,0.1,-1.07,-0.63,-6.68,-28.0,-3.5625,665.0,-0.04754638671875,0.74322509765625,0.1536865234375,0.0127,13.75,-7.0,-60.0,1.63,-1.07,Walking,7
1.49,1.413450074,26,3,3,3,0,-950.0,0.56,-1.7,0.1,-1.07,-0.63,-6.68,-28.0,-3.5625,665.0,-0.04754638671875,0.74322509765625,0.1536865234375,0.0127,13.75,-7.0,-60.0,1.63,-1.07,Walking,7
1.49,1.416980185,26,3,3,3,0,-922.0,0.73,-1.92,0.39,-0.9,-0.91,-6.99,-24.8125,-3.3125,666.5,-0.0499267578125,0.7412109375,0.1563720703125,0.0127,13.75,-7.0,-60.0625,1.63,-1.01,Walking,7
1.5,1.416980185,26,3,3,3,0,-874.0,0.95,-2.14,0.87,-0.68,-1.17,-7.31,-19.875,-3.4375,667.625,-0.052490234375,0.73944091796875,0.15924072265625,0.012,14.1875,-5.0,-60.0625,1.63,-0.97,Walking,7
1.51,1.489396485,26,3,3,3,0,-849.0,0.99,-2.18,1.13,-0.64,-1.24,-7.29,-14.875,-3.75,668.4375,-0.05511474609375,0.73797607421875,0.16204833984375,0.012,14.1875,-5.0,-60.125,1.63,-0.93,Walking,7
1.52,1.489396485,26,3,3,3,0,-821.0,1.08,-2.1,1.41,-0.55,-1.2,-7.04,-9.0625,-3.6875,668.875,-0.0577392578125,0.73681640625,0.1646728515625,0.012,14.1875,-5.0,-60.125,1.64,-0.9,Walking,7
1.53,1.492695558,26,3,3,3,0,-799.0,1.22,-1.99,1.62,-0.41,-1.1,-6.75,-3.125,-3.3125,668.9375,-0.060302734375,0.73602294921875,0.16717529296875,0.012,14.1875,-5.0,-60.125,1.64,-0.88,Walking,7
1.54,1.492695558,26,3,3,3,0,-759.0,1.46,-1.58,2.03,-0.17,-0.71,-6.53,1.125,-1.75,668.625,-0.06280517578125,0.7354736328125,0.169677734375,0.012,14.1875,-5.0,-60.125,1.64,-0.87,Walking,7
1.55,1.49598694,26,3,3,3,0,-743.0,1.52,-1.34,2.18,-0.12,-0.46,-6.4,3.5,0.0,668.125,-0.06512451171875,0.735107421875,0.1722412109375,0.0127,14.5,-3.5,-60.125,1.64,-0.87,Walking,7
1.56,1.49598694,26,3,3,3,0,-744.0,1.6,-1.13,2.18,-0.05,-0.26,-6.33,2.625,1.75,667.6875,-0.06732177734375,0.73468017578125,0.17486572265625,0.0127,14.5,-3.5,-60.125,1.65,-0.86,Walking,7
1.57,1.502895631,26,3,3,3,0,-741.0,1.69,-1.14,2.21,0.02,-0.29,-6.29,-0.375,3.625,667.375,-0.0693359375,0.73406982421875,0.17755126953125,0.0127,14.5,-3.5,-60.125,1.67,-0.85,Walking,7
1.58,1.502895631,26,3,3,3,0,-746.0,1.71,-1.28,2.15,0.02,-0.45,-5.86,-5.6875,5.875,667.4375,-0.0709228515625,0.73321533203125,0.1802978515625,0.0127,14.5,-3.5,-60.125,1.68,-0.83,Walking,7
1.59,1.518058961,26,3,3,3,0,-765.0,1.7,-1.3,1.96,0.0,-0.5,-4.95,-12.375,8.3125,667.9375,-0.07196044921875,0.73211669921875,0.18280029296875,0.0127,14.5,-3.5,-60.125,1.7,-0.8,Walking,7
1.6,1.518058961,26,3,3,3,0,-779.0,1.55,-1.39,1.82,-0.16,-0.62,-4.12,-17.9375,10.5,668.75,-0.072509765625,0.730712890625,0.18511962890625,0.0127,14.1875,-1.5,-60.125,1.72,-0.76,Walking,7
1.61,1.563791261,26,3,3,3,0,-795.0,1.35,-1.68,1.66,-0.39,-0.95,-3.34,-21.4375,12.5,669.8125,-0.072509765625,0.729248046875,0.18731689453125,0.0127,14.1875,-1.5,-60.125,1.74,-0.72,Walking,7
1.62,1.563791261,26,3,3,3,0,-814.0,1.18,-1.88,1.47,-0.59,-1.19,-2.49,-21.1875,14.0,670.8125,-0.07220458984375,0.7279052734375,0.189208984375,0.0127,14.1875,-1.5,-60.125,1.77,-0.68,Walking,7
1.63,1.578414145,26,3,3,3,0,-833.0,1.01,-1.96,1.28,-0.78,-1.31,-1.57,-18.9375,14.125,671.75,-0.071533203125,0.72674560546875,0.1907958984375,0.0127,14.1875,-1.5,-60.0625,1.79,-0.65,Walking,7
1.64,1.578414145,26,3,3,3,0,-839.0,0.95,-1.92,1.22,-0.87,-1.3,-1.02,-16.5,13.875,672.5,-0.07073974609375,0.72576904296875,0.19207763671875,0.0127,14.1875,-1.5,-60.0625,1.82,-0.62,Walking,7
1.65,1.581466595,26,3,3,3,0,-865.0,0.85,-1.79,0.95,-0.99,-1.19,-0.94,-15.0,13.9375,673.1875,-0.0699462890625,0.72491455078125,0.193359375,0.0131,13.5,-1.1875,-60.0625,1.84,-0.59,Walking,7
1.66,1.581466595,26,3,3,3,0,-884.0,0.89,-1.73,0.76,-0.97,-1.16,-1.07,-14.3125,14.75,673.8125,-0.0692138671875,0.72412109375,0.1947021484375,0.0131,13.5,-1.1875,-60.0,1.87,-0.57,Walking,7
1.67,1.608745566,26,3,3,3,0,-908.0,0.92,-1.74,0.52,-0.97,-1.19,-1.22,-13.125,15.625,674.3125,-0.06842041015625,0.72332763671875,0.19610595703125,0.0131,13.5,-1.1875,-60.0,1.89,-0.54,Walking,7
1.68,1.608745566,26,3,3,3,0,-926.0,0.9,-1.75,0.33,-1.02,-1.22,-1.15,-11.625,16.75,674.75,-0.06756591796875,0.72265625,0.1976318359375,0.0131,13.5,-1.1875,-60.0,1.92,-0.52,Walking,7
1.69,1.63846989,26,3,3,3,0,-966.0,0.91,-1.67,-0.07,-1.04,-1.16,-1.06,-9.0,17.875,674.9375,-0.06671142578125,0.72216796875,0.1990966796875,0.0131,13.5,-1.1875,-59.9375,1.95,-0.5,Walking,7
1.7,1.63846989,26,3,3,3,0,-1009.0,0.94,-1.6,-0.5,-1.04,-1.11,-1.3,-4.4375,18.25,674.8125,-0.06591796875,0.72186279296875,0.20068359375,0.0127,13.6875,-0.75,-59.875,1.98,-0.49,Walking,7
1.71,1.641603232,26,3,3,3,0,-1045.0,0.99,-1.58,-0.87,-1.02,-1.09,-1.56,0.375,18.375,674.4375,-0.06536865234375,0.7218017578125,0.20233154296875,0.0127,13.6875,-0.75,-59.875,2.02,-0.49,Walking,7
1.72,1.641603232,26,3,3,3,0,-1145.0,1.09,-1.81,-1.87,-0.95,-1.31,-1.54,4.1875,18.375,673.75,-0.0648193359375,0.72198486328125,0.2039794921875,0.0127,13.6875,-0.75,-59.8125,2.05,-0.5,Walking,7
1.73,1.683842653,26,3,3,3,0,-1182.0,1.03,-2.06,-2.25,-1.04,-1.56,-1.34,5.9375,18.4375,672.9375,-0.06427001953125,0.7222900390625,0.20550537109375,0.0127,13.6875,-0.75,-59.75,2.08,-0.5,Walking,7
1.74,1.683842653,26,3,3,3,0,-1224.0,0.83,-2.41,-2.67,-1.27,-1.9,-1.22,5.5,18.4375,672.1875,-0.06365966796875,0.72259521484375,0.20697021484375,0.0127,13.6875,-0.75,-59.75,2.11,-0.51,Walking,7
1.75,1.687271445,26,3,3,3,0,-1224.0,0.83,-2.41,-2.67,-1.27,-1.9,-1.22,5.5,18.4375,672.1875,-0.06365966796875,0.72259521484375,0.20697021484375,0.0127,13.6875,-0.75,-59.75,2.11,-0.51,Walking,7
1.75,1.687271445,26,3,3,3,0,-1277.0,0.64,-2.78,-3.21,-1.5,-2.26,-1.71,3.5,18.25,671.5625,-0.063232421875,0.7227783203125,0.20867919921875,0.0137,14.0625,0.0,-59.6875,2.14,-0.51,Walking,7
1.76,1.690160808,26,3,3,3,0,-1335.0,0.85,-3.72,-3.8,-1.32,-3.21,-2.65,0.5,17.625,671.125,-0.06304931640625,0.72259521484375,0.210693359375,0.0137,14.0625,0.0,-59.625,2.17,-0.51,Walking,7
1.77,1.690160808,26,3,3,3,0,-1347.0,1.16,-4.08,-3.93,-1.04,-3.58,-3.16,-1.4375,17.0625,670.75,-0.0631103515625,0.72222900390625,0.212890625,0.0137,14.0625,0.0,-59.625,2.2,-0.5,Walking,7
1.78,1.71566443,26,3,3,3,0,-1371.0,1.63,-4.14,-4.17,-0.6,-3.64,-2.75,1.0,17.0,670.25,-0.06304931640625,0.72210693359375,0.2149658203125,0.0137,14.0625,0.0,-59.5625,2.23,-0.49,Walking,7
1.79,1.71566443,26,3,3,3,0,-1414.0,2.29,-3.7,-4.61,0.02,-3.19,-1.67,11.5625,16.5625,669.0625,-0.06280517578125,0.72265625,0.2164306640625,0.0137,14.0625,0.0,-59.5,2.26,-0.51,Walking,7
1.8,1.727623414,26,3,3,3,0,-1346.0,3.02,-2.45,-3.94,0.73,-1.89,0.0,27.75,16.0625,666.9375,-0.0623779296875,0.724365234375,0.21722412109375,0.0137,13.0,1.0625,-59.4375,2.28,-0.56,Walking,7
1.81,1.727623414,26,3,3,3,0,-1296.0,3.18,-1.78,-3.45,0.87,-1.15,1.59,36.6875,15.6875,664.3125,-0.0615234375,0.72674560546875,0.21722412109375,0.0137,13.0,1.0625,-59.375,2.31,-0.62,Walking,7
1.82,1.759771241,26,3,3,3,0,-1296.0,3.23,-1.02,-3.46,0.9,-0.33,1.58,35.4375,13.25,661.75,-0.060791015625,0.72906494140625,0.2171630859375,0.0137,13.0,1.0625,-59.3125,2.33,-0.69,Walking,7
1.83,1.759771241,26,3,3,3,0,-1288.0,3.0,-0.22,-3.39,0.65,0.51,0.49,31.5625,9.25,659.5,-0.0606689453125,0.73095703125,0.21728515625,0.0137,13.0,1.0625,-59.3125,2.34,-0.74,Walking,7
1.84,1.803703899,26,3,3,3,0,-1229.0,2.65,1.36,-2.81,0.3,2.15,-0.07,27.25,5.3125,657.625,-0.06085205078125,0.7325439453125,0.2174072265625,0.0137,13.0,1.0625,-59.25,2.35,-0.79,Walking,7
1.85,1.803703899,26,3,3,3,0,-1197.0,2.9,2.07,-2.49,0.54,2.9,0.13,22.25,1.9375,656.125,-0.06109619140625,0.73382568359375,0.21734619140625,0.0145,13.0,2.6875,-59.25,2.35,-0.82,Walking,7
1.86,1.806832602,26,3,3,3,0,-1144.0,3.16,2.66,-1.96,0.8,3.52,0.66,18.125,-1.0625,654.9375,-0.06134033203125,0.73492431640625,0.21685791015625,0.0145,13.0,2.6875,-59.25,2.35,-0.86,Walking,7
1.87,1.806832602,26,3,3,3,0,-1068.0,3.4,3.19,-1.2,1.05,4.08,1.34,13.875,-3.0625,654.125,-0.06134033203125,0.73590087890625,0.216064453125,0.0145,13.0,2.6875,-59.1875,2.35,-0.88,Walking,7
1.88,1.809785483,26,3,3,3,0,-950.0,4.35,4.01,-0.02,2.01,4.92,2.39,9.6875,-2.75,653.625,-0.06085205078125,0.7366943359375,0.21484375,0.0145,13.0,2.6875,-59.1875,2.34,-0.91,Walking,7
1.89,1.809785483,26,3,3,3,0,-919.0,5.02,4.18,0.28,2.68,5.12,3.46,8.0,-1.25,653.1875,-0.05987548828125,0.737548828125,0.21331787109375,0.0145,13.0,2.6875,-59.1875,2.33,-0.93,Walking,7
1.9,1.833412599,26,3,3,3,0,-905.0,5.44,4.18,0.42,3.11,5.13,4.12,8.0625,0.3125,652.8125,-0.05865478515625,0.73846435546875,0.21160888671875,0.0137,12.375,3.5,-59.1875,2.33,-0.95,Walking,7
1.91,1.833412599,26,3,3,3,0,-896.0,5.24,3.43,0.5,2.9,4.41,4.27,7.0625,3.1875,652.375,-0.05706787109375,0.7393798828125,0.21002197265625,0.0137,12.375,3.5,-59.1875,2.33,-0.98,Walking,7
1.92,1.849076987,26,3,3,3,0,-911.0,4.85,2.88,0.35,2.51,3.87,3.95,3.4375,7.125,652.1875,-0.0552978515625,0.7401123046875,0.20880126953125,0.0137,12.375,3.5,-59.1875,2.34,-0.99,Walking,7
1.93,1.849076987,26,3,3,3,0,-943.0,4.6,2.31,0.03,2.24,3.31,3.33,-1.3125,12.0625,652.125,-0.0533447265625,0.74041748046875,0.2081298828125,0.0137,12.375,3.5,-59.125,2.35,-1.0,Walking,7
1.94,1.879044476,26,3,3,3,0,-986.0,4.46,1.75,-0.39,2.08,2.75,2.8,-6.4375,16.875,652.3125,-0.0511474609375,0.740478515625,0.2080078125,0.0137,12.375,3.5,-59.125,2.38,-0.99,Walking,7
1.95,1.879044476,26,3,3,3,0,-1038.0,3.71,0.46,-0.92,1.3,1.46,2.78,-8.8125,20.3125,652.625,-0.0487060546875,0.7403564453125,0.2080078125,0.0148,11.6875,3.5,-59.0625,2.41,-0.99,Walking,7
1.96,1.893871136,26,3,3,3,0,-1034.0,3.23,-0.25,-0.9,0.78,0.72,3.11,-8.1875,22.125,652.8125,-0.04608154296875,0.7403564453125,0.20806884765625,0.0148,11.6875,3.5,-59.0,2.44,-0.98,Walking,7
1.97,1.893871136,26,3,3,3,0,-1023.0,2.79,-0.91,-0.8,0.31,0.06,3.8,-5.5,22.125,652.875,-0.043212890625,0.74053955078125,0.207763671875,0.0148,11.6875,3.5,-58.9375,2.47,-0.98,Walking,7
1.98,1.907668418,26,3,3,3,0,-999.0,2.49,-1.41,-0.57,-0.01,-0.41,4.99,-2.625,20.8125,652.8125,-0.04010009765625,0.74102783203125,0.2069091796875,0.0148,11.6875,3.5,-58.875,2.5,-0.99,Walking,7
1.99,1.907668418,26,3,3,3,0,-926.0,2.25,-1.41,0.15,-0.27,-0.4,6.21,-1.6875,19.25,652.6875,-0.03662109375,0.74169921875,0.20550537109375,0.0148,11.6875,3.5,-58.875,2.53,-1.0,Walking,7
2.0,1.922685426,26,3,3,3,0,-893.0,2.04,-1.2,0.47,-0.5,-0.17,6.72,0.0,16.375,652.5625,-0.03326416015625,0.74249267578125,0.20367431640625,0.0137,12.375,5.0625,-58.8125,2.55,-1.02,Walking,7
2.0,1.922685426,26,3,3,3,0,-893.0,2.04,-1.2,0.47,-0.5,-0.17,6.72,0.0,16.375,652.5625,-0.03326416015625,0.74249267578125,0.20367431640625,0.0137,12.375,5.0625,-58.8125,2.55,-1.02,Walking,7
2.01,1.938257895,26,3,3,3,0,-861.0,1.74,-0.97,0.79,-0.81,0.07,6.82,3.6875,12.875,652.1875,-0.03009033203125,0.7435302734375,0.20159912109375,0.0137,12.375,5.0625,-58.75,2.56,-1.05,Walking,7
2.02,1.938257895,26,3,3,3,0,-827.0,1.52,-0.68,1.13,-1.05,0.4,6.68,7.0625,8.5,651.6875,-0.02734375,0.74462890625,0.19940185546875,0.0137,12.375,5.0625,-58.75,2.57,-1.08,Walking,7
2.03,1.952467409,26,3,3,3,0,-740.0,1.29,-0.17,1.98,-1.27,0.93,6.43,8.8125,4.125,651.125,-0.0250244140625,0.745849609375,0.19696044921875,0.0137,12.375,5.0625,-58.6875,2.56,-1.11,Walking,7
2.04,1.952467409,26,3,3,3,0,-701.0,1.35,-0.07,2.38,-1.2,1.07,6.18,8.6875,0.5625,650.625,-0.02294921875,0.7469482421875,0.1944580078125,0.0137,12.375,5.0625,-58.6875,2.56,-1.14,Walking,7
2.05,1.983638144,26,3,3,3,0,-672.0,1.45,-0.1,2.66,-1.09,1.07,5.87,7.1875,-1.6875,650.25,-0.02117919921875,0.74798583984375,0.19195556640625,0.0159,10.875,4.5625,-58.6875,2.55,-1.17,Walking,7
2.06,1.983638144,26,3,3,3,0,-606.0,1.48,-0.45,3.32,-1.05,0.75,5.57,6.5,-3.3125,649.9375,-0.01959228515625,0.7489013671875,0.18951416015625,0.0159,10.875,4.5625,-58.6875,2.53,-1.2,Walking,7
2.07,1.998768434,26,3,3,3,0,-572.0,1.51,-0.53,3.67,-1.01,0.69,5.36,7.5625,-4.6875,649.5625,-0.01812744140625,0.7498779296875,0.18701171875,0.0159,10.875,4.5625,-58.6875,2.52,-1.22,Walking,7
2.08,1.998768434,26,3,3,3,0,-550.0,1.47,-0.54,3.89,-1.03,0.71,5.06,7.625,-6.0625,649.1875,-0.01690673828125,0.75079345703125,0.18463134765625,0.0159,10.875,4.5625,-58.6875,2.5,-1.25,Walking,7
2.09,2.013052654,26,3,3,3,0,-544.0,1.48,-0.48,3.95,-1.0,0.79,4.63,6.0625,-8.0,649.0,-0.01593017578125,0.7515869140625,0.1822509765625,0.0159,10.875,4.5625,-58.6875,2.48,-1.27,Walking,7
2.1,2.013052654,26,3,3,3,0,-546.0,1.52,-0.46,3.93,-0.94,0.82,4.11,4.6875,-9.9375,648.875,-0.0152587890625,0.752197265625,0.17999267578125,0.0159,10.875,3.875,-58.75,2.46,-1.29,Walking,7
2.11,2.04381714,26,3,3,3,0,-541.0,1.51,-0.5,3.99,-0.92,0.8,3.57,2.75,-11.875,648.9375,-0.01483154296875,0.752685546875,0.17791748046875,0.0159,10.875,3.875,-58.75,2.44,-1.3,Walking,7
2.12,2.04381714,26,3,3,3,0,-548.0,1.45,-0.69,3.92,-0.96,0.61,2.99,1.125,-14.0,649.0625,-0.0147705078125,0.7530517578125,0.1759033203125,0.0159,10.875,3.875,-58.8125,2.41,-1.31,Walking,7
2.13,2.057551637,26,3,3,3,0,-563.0,1.6,-0.92,3.78,-0.78,0.39,2.42,-0.75,-15.6875,649.4375,-0.01495361328125,0.753173828125,0.17401123046875,0.0159,10.875,3.875,-58.8125,2.38,-1.32,Walking,7
2.14,2.057551637,26,3,3,3,0,-617.0,1.97,-1.46,3.24,-0.37,-0.14,1.79,-2.5,-17.0625,649.875,-0.015380859375,0.753173828125,0.17236328125,0.0159,10.875,3.875,-58.875,2.35,-1.32,Walking,7
2.15,2.088111248,26,3,3,3,1,-653.0,2.09,-1.7,2.89,-0.23,-0.38,1.28,-4.4375,-18.1875,650.4375,-0.01605224609375,0.7530517578125,0.17083740234375,0.0155,10.5,3.5,-58.9375,2.32,-1.32,Walking,7
2.16,2.088111248,26,3,3,3,1,-693.0,2.12,-1.88,2.5,-0.16,-0.57,0.95,-5.4375,-18.875,651.125,-0.01690673828125,0.7528076171875,0.16937255859375,0.0155,10.5,3.5,-59.0,2.28,-1.31,Walking,7
2.17,2.103805299,26,3,3,3,1,-724.0,2.15,-2.05,2.2,-0.1,-0.75,0.87,-5.3125,-20.375,651.8125,-0.01788330078125,0.7525634765625,0.16790771484375,0.0155,10.5,3.5,-59.0625,2.25,-1.3,Walking,7
2.18,2.103805299,26,3,3,3,1,-763.0,2.08,-2.16,1.82,-0.13,-0.86,0.97,-4.75,-21.875,652.5,-0.0189208984375,0.7523193359375,0.166259765625,0.0155,10.5,3.5,-59.125,2.21,-1.3,Walking,7
2.19,2.117694134,26,3,3,3,1,-767.0,2.16,-2.05,1.79,-0.01,-0.76,1.03,-4.5,-23.1875,653.125,-0.02001953125,0.75213623046875,0.16461181640625,0.0155,10.5,3.5,-59.1875,2.17,-1.29,Walking,7
2.2,2.117694134,26,3,3,3,1,-778.0,2.21,-1.94,1.69,0.07,-0.65,0.88,-3.4375,-24.125,653.75,-0.021240234375,0.751953125,0.16290283203125,0.0152,11.6875,3.0625,-59.25,2.13,-1.29,Walking,7
2.21,2.148833375,26,3,3,3,1,-841.0,2.26,-1.94,1.07,0.16,-0.65,0.44,-2.8125,-24.9375,654.3125,-0.02264404296875,0.75177001953125,0.16131591796875,0.0152,11.6875,3.0625,-59.3125,2.09,-1.28,Walking,7
2.22,2.148833375,26,3,3,3,1,-892.0,2.27,-2.12,0.57,0.21,-0.83,0.0,-2.1875,-25.625,654.8125,-0.0242919921875,0.7515869140625,0.159912109375,0.0152,11.6875,3.0625,-59.375,2.05,-1.28,Walking,7
2.23,2.163853761,26,3,3,3,1,-944.0,2.25,-2.3,0.06,0.24,-1.02,-0.38,0.0,-27.1875,655.1875,-0.0262451171875,0.75152587890625,0.15850830078125,0.0152,11.6875,3.0625,-59.4375,2.0,-1.28,Walking,7
2.24,2.163853761,26,3,3,3,1,-1009.0,2.2,-2.48,-0.56,0.23,-1.19,-0.6,2.6875,-29.0,655.4375,-0.02838134765625,0.75152587890625,0.15716552734375,0.0152,11.6875,3.0625,-59.5,1.96,-1.28,Walking,7
2.25,2.178623903,26,3,3,3,2,-1117.0,2.28,-2.92,-1.64,0.37,-1.63,-0.69,4.0,-30.25,655.5625,-0.0306396484375,0.75164794921875,0.15576171875,0.0159,10.875,3.875,-59.5625,1.91,-1.29,Walking,7
2.26,2.178623903,26,3,3,3,2,-1190.0,2.45,-3.19,-2.36,0.59,-1.9,-0.92,1.375,-31.0,655.875,-0.03302001953125,0.75152587890625,0.15435791015625,0.0159,10.875,3.875,-59.625,1.86,-1.29,Walking,7
2.27,2.194094565,26,3,3,3,2,-1190.0,2.45,-3.19,-2.36,0.59,-1.9,-0.92,1.375,-31.0,655.875,-0.03302001953125,0.75152587890625,0.15435791015625,0.0159,10.875,3.875,-59.625,1.86,-1.29,Walking,7
2.27,2.194094565,26,3,3,3,2,-1261.0,2.72,-3.38,-3.06,0.91,-2.1,-1.38,-5.0,-31.6875,656.625,-0.0355224609375,0.75103759765625,0.1531982421875,0.0159,10.875,3.875,-59.6875,1.8,-1.28,Walking,7
2.28,2.208598919,26,3,3,3,2,-1306.0,3.0,-3.55,-3.5,1.24,-2.29,-1.93,-9.125,-31.625,657.625,-0.03814697265625,0.75030517578125,0.1522216796875,0.0159,10.875,3.875,-59.75,1.75,-1.26,Walking,7
2.29,2.208598919,26,3,3,3,2,-1404.0,3.91,-3.51,-4.47,2.2,-2.26,-2.06,-7.8125,-30.3125,658.5,-0.040771484375,0.74957275390625,0.15142822265625,0.0159,10.875,3.875,-59.8125,1.71,-1.24,Walking,7
2.3,2.239793052,26,3,3,3,2,-1480.0,4.35,-3.16,-5.22,2.68,-1.91,-1.42,0.25,-27.0,658.8125,-0.04302978515625,0.7493896484375,0.1505126953125,0.0148,11.25,2.0,-59.875,1.66,-1.24,Walking,7
2.31,2.239793052,26,3,3,3,2,-1523.0,4.45,-2.59,-5.64,2.82,-1.32,-0.15,14.125,-23.3125,658.1875,-0.0447998046875,0.75006103515625,0.149169921875,0.0148,11.25,2.0,-59.875,1.63,-1.26,Walking,7
2.32,2.253046551,26,3,3,3,2,-1498.0,4.03,-1.99,-5.39,2.43,-0.68,0.89,25.8125,-20.5625,656.75,-0.046142578125,0.75152587890625,0.1475830078125,0.0148,11.25,2.0,-59.875,1.59,-1.31,Walking,7
2.33,2.253046551,26,3,3,3,2,-1524.0,3.32,-0.92,-5.65,1.76,0.43,1.33,28.5625,-16.875,655.0625,-0.047119140625,0.753173828125,0.14593505859375,0.0148,11.25,2.0,-59.875,1.56,-1.36,Walking,7
2.34,2.267775677,26,3,3,3,2,-1562.0,3.12,-0.47,-6.04,1.58,0.93,1.63,23.9375,-13.375,653.625,-0.0477294921875,0.75457763671875,0.14447021484375,0.0148,11.25,2.0,-59.875,1.53,-1.4,Walking,7
2.35,2.267775677,26,3,3,3,2,-1566.0,2.77,-0.21,-6.08,1.25,1.22,1.79,14.4375,-10.0625,652.875,-0.0479736328125,0.7554931640625,0.14312744140625,0.0163,11.25,2.6875,-59.875,1.52,-1.43,Walking,7
2.36,2.298830731,26,3,3,3,2,-1548.0,2.39,0.08,-5.9,0.89,1.52,1.91,6.125,-6.875,652.5625,-0.0478515625,0.75592041015625,0.14190673828125,0.0163,11.25,2.6875,-59.875,1.5,-1.44,Walking,7
2.37,2.298830731,26,3,3,3,2,-1389.0,1.5,0.8,-4.31,0.0,2.26,2.14,6.4375,-4.1875,652.25,-0.04742431640625,0.7564697265625,0.1407470703125,0.0163,11.25,2.6875,-59.875,1.49,-1.46,Walking,7
2.38,2.313026613,26,3,3,3,2,-1238.0,0.96,1.2,-2.8,-0.51,2.69,2.26,16.0625,-2.1875,651.25,-0.0469970703125,0.75750732421875,0.1396484375,0.0163,11.25,2.6875,-59.8125,1.48,-1.49,Walking,7
2.39,2.313026613,26,3,3,3,2,-1098.0,0.36,1.6,-1.41,-1.11,3.14,1.64,30.5,-3.0,649.25,-0.0469970703125,0.75933837890625,0.138671875,0.0163,11.25,2.6875,-59.8125,1.48,-1.54,Walking,7
2.4,2.328424562,26,3,3,3,2,-925.0,-1.06,2.31,0.3,-2.53,3.93,0.4,44.625,-5.25,646.3125,-0.0477294921875,0.76177978515625,0.1380615234375,0.0163,11.25,4.25,-59.6875,1.47,-1.62,Walking,7
2.41,2.328424562,26,3,3,3,2,-878.0,-1.37,2.4,0.75,-2.83,4.11,-0.85,51.3125,-6.8125,642.875,-0.049072265625,0.7645263671875,0.1378173828125,0.0163,11.25,4.25,-59.625,1.46,-1.7,Walking,7
2.42,2.358887209,26,3,3,3,2,-890.0,-1.43,2.43,0.63,-2.88,4.2,-2.26,44.4375,-6.5625,639.875,-0.05084228515625,0.7667236328125,0.13818359375,0.0163,11.25,4.25,-59.5625,1.45,-1.77,Walking,7
2.43,2.358887209,26,3,3,3,2,-958.0,-1.1,2.21,-0.05,-2.55,4.03,-3.87,28.9375,-5.6875,637.8125,-0.0528564453125,0.7679443359375,0.139404296875,0.0163,11.25,4.25,-59.5,1.45,-1.81,Walking,7
2.44,2.374028403,26,3,3,3,2,-1018.0,0.34,1.17,-0.66,-1.1,3.0,-5.42,13.6875,-5.6875,636.8125,-0.0552978515625,0.76824951171875,0.14129638671875,0.0163,11.25,4.25,-59.5,1.45,-1.82,Walking,7
2.45,2.374028403,26,3,3,3,3,-992.0,1.2,0.44,-0.39,-0.24,2.26,-6.52,3.375,-6.25,636.5,-0.0579833984375,0.76788330078125,0.1436767578125,0.0173,11.25,7.75,-59.5,1.45,-1.82,Walking,7
2.46,2.388349407,26,3,3,3,3,-958.0,1.82,-0.26,-0.05,0.36,1.54,-7.15,-0.9375,-7.4375,636.4375,-0.06085205078125,0.7672119140625,0.146240234375,0.0173,11.25,7.75,-59.5,1.45,-1.81,Walking,7
2.47,2.388349407,26,3,3,3,3,-919.0,2.11,-0.92,0.33,0.65,0.86,-7.86,-1.9375,-8.25,636.4375,-0.0640869140625,0.76641845703125,0.14910888671875,0.0173,11.25,7.75,-59.5,1.46,-1.79,Walking,7
2.48,2.419507488,26,3,3,3,3,-811.0,2.45,-1.99,1.42,0.99,-0.22,-8.7,-3.875,-7.875,636.5,-0.0675048828125,0.76544189453125,0.15234375,0.0173,11.25,7.75,-59.5625,1.46,-1.77,Walking,7
2.49,2.419507488,26,3,3,3,3,-776.0,2.73,-2.21,1.77,1.25,-0.46,-9.06,-6.75,-5.375,636.6875,-0.07086181640625,0.7642822265625,0.1558837890625,0.0173,11.25,7.75,-59.5625,1.47,-1.74,Walking,7
2.5,2.433810752,26,3,3,3,3,-771.0,2.76,-2.19,1.82,1.28,-0.47,-8.91,-9.25,-2.875,637.0625,-0.07391357421875,0.762939453125,0.15948486328125,0.0163,10.875,10.0625,-59.625,1.48,-1.71,Walking,7
2.51,2.433810752,26,3,3,3,3,-749.0,2.65,-2.05,2.04,1.16,-0.37,-8.09,-11.6875,0.0,637.5,-0.07647705078125,0.7615966796875,0.16290283203125,0.0163,10.875,10.0625,-59.625,1.49,-1.68,Walking,7
2.52,2.448128501,26,3,3,3,3,-691.0,2.46,-1.57,2.63,0.95,0.07,-7.05,-13.9375,3.375,638.125,-0.0784912109375,0.76019287109375,0.1661376953125,0.0163,10.875,10.0625,-59.625,1.51,-1.64,Walking,7
2.53,2.448128501,26,3,3,3,3,-691.0,2.46,-1.57,2.63,0.95,0.07,-7.05,-13.9375,3.375,638.125,-0.0784912109375,0.76019287109375,0.1661376953125,0.0163,10.875,10.0625,-59.625,1.51,-1.64,Walking,7
2.53,2.463843629,26,3,3,3,3,-660.0,2.3,-1.36,2.94,0.76,0.23,-6.28,-17.125,7.0,638.9375,-0.07989501953125,0.75872802734375,0.16925048828125,0.0163,10.875,10.0625,-59.6875,1.54,-1.6,Walking,7
2.54,2.463843629,26,3,3,3,3,-637.0,2.0,-1.21,3.17,0.43,0.34,-5.79,-19.75,10.5,639.875,-0.08087158203125,0.75714111328125,0.17236328125,0.0163,10.875,10.0625,-59.6875,1.56,-1.56,Walking,7
2.55,2.478567303,26,3,3,3,2,-593.0,1.41,-1.09,3.61,-0.18,0.42,-5.27,-21.1875,13.25,640.875,-0.08148193359375,0.755615234375,0.1754150390625,0.0159,9.875,14.75,-59.6875,1.59,-1.52,Walking,7
2.56,2.478567303,26,3,3,3,2,-577.0,1.23,-1.01,3.78,-0.4,0.46,-4.57,-19.875,15.625,641.75,-0.0816650390625,0.754150390625,0.17828369140625,0.0159,9.875,14.75,-59.6875,1.63,-1.47,Walking,7
2.57,2.508605063,26,3,3,3,2,-559.0,1.13,-0.91,3.96,-0.53,0.52,-3.58,-15.8125,17.4375,642.375,-0.08154296875,0.7530517578125,0.18084716796875,0.0159,9.875,14.75,-59.6875,1.66,-1.44,Walking,7
2.58,2.508605063,26,3,3,3,2,-540.0,1.02,-0.76,4.14,-0.67,0.65,-2.53,-9.5,18.5,642.625,-0.08099365234375,0.75238037109375,0.1829833984375,0.0159,9.875,14.75,-59.6875,1.7,-1.42,Walking,7
2.59,2.569750368,26,3,3,3,2,-537.0,0.96,-0.36,4.17,-0.76,1.05,-1.48,-3.875,19.5625,642.5,-0.08013916015625,0.752197265625,0.1846923828125,0.0159,9.875,14.75,-59.625,1.73,-1.41,Walking,7
2.6,2.569750368,26,3,3,3,2,-563.0,0.84,-0.13,3.9,-0.92,1.27,-0.58,-1.4375,19.8125,642.25,-0.07904052734375,0.75213623046875,0.18603515625,0.0178,9.875,17.0,-59.625,1.77,-1.41,Walking,7
2.61,2.572755617,26,3,3,3,2,-591.0,0.73,0.03,3.61,-1.06,1.44,-0.12,-2.625,19.5,642.125,-0.0777587890625,0.75213623046875,0.18719482421875,0.0178,9.875,17.0,-59.5625,1.8,-1.4,Walking,7
2.62,2.572755617,26,3,3,3,2,-624.0,0.6,0.1,3.28,-1.23,1.49,-0.07,-6.6875,18.625,642.3125,-0.076416015625,0.75189208984375,0.188232421875,0.0178,9.875,17.0,-59.5625,1.83,-1.39,Walking,7
2.63,2.57588786,26,3,3,3,2,-704.0,0.03,0.14,2.47,-1.83,1.52,-0.26,-13.4375,16.875,642.9375,-0.0751953125,0.751220703125,0.18939208984375,0.0178,9.875,17.0,-59.5,1.86,-1.37,Walking,7
2.64,2.57588786,26,3,3,3,2,-736.0,-0.14,-0.1,2.16,-2.03,1.23,-0.36,-19.75,14.625,644.0,-0.07403564453125,0.75018310546875,0.1904296875,0.0178,9.875,17.0,-59.5,1.88,-1.33,Walking,7
2.65,2.583271323,26,3,3,3,1,-769.0,-0.19,-0.4,1.84,-2.1,0.88,-0.42,-25.125,11.5,645.5,-0.072998046875,0.748779296875,0.19140625,0.0188,10.1875,19.75,-59.5625,1.9,-1.29,Walking,7
2.66,2.583271323,26,3,3,3,1,-795.0,-0.13,-0.79,1.58,-2.05,0.44,-0.51,-29.3125,8.0625,647.3125,-0.0721435546875,0.74713134765625,0.1922607421875,0.0188,10.1875,19.75,-59.5625,1.92,-1.24,Walking,7
2.67,2.630011517,26,3,3,3,1,-848.0,0.11,-1.75,1.05,-1.81,-0.56,-0.48,-31.8125,4.8125,649.3125,-0.07147216796875,0.745361328125,0.19293212890625,0.0188,10.1875,19.75,-59.625,1.93,-1.19,Walking,7
2.68,2.630011517,26,3,3,3,1,-866.0,0.1,-2.23,0.87,-1.82,-1.09,-0.41,-32.75,2.0,651.5,-0.0709228515625,0.7435302734375,0.19342041015625,0.0188,10.1875,19.75,-59.625,1.93,-1.13,Walking,7
2.69,2.63326819,26,0,3,3,1,-878.0,0.0,-2.62,0.76,-1.92,-1.54,-0.03,-30.1875,-0.8125,653.5,-0.07049560546875,0.7418212890625,0.19354248046875,0.0188,10.1875,19.75,-59.6875,1.93,-1.08,Walking,7
2.7,2.63326819,26,0,3,3,1,-899.0,0.12,-2.84,0.55,-1.8,-1.8,0.6,-24.5,-3.1875,655.25,-0.070068359375,0.740478515625,0.19329833984375,0.0188,9.0625,20.5,-59.6875,1.92,-1.04,Walking,7
2.71,2.643110353,26,0,3,3,1,-953.0,0.75,-2.87,0.02,-1.16,-1.86,0.93,-17.125,-4.75,656.5,-0.06976318359375,0.73956298828125,0.1927490234375,0.0188,9.0625,20.5,-59.75,1.91,-1.01,Walking,7
2.72,2.643110353,26,0,3,3,1,-990.0,1.05,-2.88,-0.33,-0.85,-1.88,1.07,-10.625,-5.625,657.375,-0.069580078125,0.73907470703125,0.19207763671875,0.0188,9.0625,20.5,-59.75,1.9,-1.0,Walking,7
2.73,2.659264772,26,0,3,3,1,-1064.0,1.35,-2.85,-1.07,-0.54,-1.85,1.28,-4.8125,-5.75,657.8125,-0.06939697265625,0.7388916015625,0.19122314453125,0.0188,9.0625,20.5,-59.75,1.89,-0.99,Walking,7
2.74,2.659264772,26,0,3,3,1,-1203.0,1.85,-2.89,-2.46,-0.03,-1.89,1.68,1.8125,-4.75,657.875,-0.06915283203125,0.7391357421875,0.19024658203125,0.0188,9.0625,20.5,-59.8125,1.88,-1.0,Walking,7
2.75,2.703814618,26,0,3,3,0,-1262.0,2.18,-2.96,-3.05,0.3,-1.94,1.83,8.6875,-2.4375,657.375,-0.06884765625,0.73974609375,0.1893310546875,0.0188,9.5,20.5,-59.8125,1.88,-1.01,Walking,7
2.76,2.703814618,26,0,3,3,0,-1331.0,2.57,-3.09,-3.74,0.69,-2.05,1.47,12.25,1.5,656.625,-0.06842041015625,0.7406005859375,0.188720703125,0.0188,9.5,20.5,-59.75,1.88,-1.04,Walking,7
2.77,2.707112998,26,0,3,3,0,-1397.0,2.81,-3.2,-4.4,0.92,-2.14,0.69,11.4375,5.3125,655.8125,-0.06805419921875,0.7413330078125,0.18865966796875,0.0188,9.5,20.5,-59.75,1.88,-1.06,Walking,7
2.78,2.707112998,26,0,3,3,0,-1453.0,2.64,-3.28,-4.97,0.74,-2.2,-0.42,6.75,8.625,655.1875,-0.0677490234375,0.74176025390625,0.18927001953125,0.0188,9.5,20.5,-59.6875,1.9,-1.07,Walking,7
2.79,2.718210207,26,0,3,3,0,-1452.0,2.21,-3.29,-4.97,0.28,-2.22,-1.71,0.3125,11.6875,654.9375,-0.067626953125,0.74163818359375,0.19061279296875,0.0188,9.5,20.5,-59.6875,1.92,-1.07,Walking,7
2.8,2.718210207,26,0,3,3,0,-1452.0,2.21,-3.29,-4.97,0.28,-2.22,-1.71,0.3125,11.6875,654.9375,-0.067626953125,0.74163818359375,0.19061279296875,0.0188,9.5,20.5,-59.6875,1.92,-1.07,Walking,7
2.8,2.749433636,26,0,3,3,0,-1478.0,1.71,-3.28,-5.23,-0.23,-2.23,-2.75,-4.4375,13.75,654.875,-0.067626953125,0.74114990234375,0.1925048828125,0.0187,9.1875,21.1875,-59.6875,1.95,-1.05,Walking,7
2.81,2.749433636,26,0,3,3,0,-1516.0,1.52,-3.19,-5.61,-0.44,-2.15,-3.18,-4.125,14.75,654.8125,-0.06768798828125,0.74072265625,0.19464111328125,0.0187,9.1875,21.1875,-59.625,1.97,-1.04,Walking,7
2.82,2.752621055,26,0,3,3,0,-1491.0,2.11,-2.75,-5.37,0.1,-1.7,-2.84,3.625,14.875,654.1875,-0.06781005859375,0.74066162109375,0.19659423828125,0.0187,9.1875,21.1875,-59.625,2.0,-1.04,Walking,7
2.83,2.752621055,26,0,3,3,0,-1432.0,2.42,-2.39,-4.79,0.39,-1.33,-2.04,14.4375,15.0,652.875,-0.06781005859375,0.74139404296875,0.19818115234375,0.0187,9.1875,21.1875,-59.5625,2.03,-1.06,Walking,7
2.84,2.778660361,26,0,3,3,0,-1406.0,2.74,-1.83,-4.54,0.68,-0.73,-1.48,20.625,15.4375,651.1875,-0.06768798828125,0.742431640625,0.199462890625,0.0187,9.1875,21.1875,-59.5,2.06,-1.09,Walking,7
2.85,2.778660361,26,0,3,3,0,-1388.0,3.01,-1.23,-4.36,0.93,-0.1,-1.58,21.4375,15.125,649.4375,-0.067626953125,0.7435302734375,0.2008056640625,0.0198,8.5,24.6875,-59.4375,2.08,-1.12,Walking,7
2.86,2.823645225,26,0,3,3,0,-1222.0,3.16,-0.06,-2.71,1.04,1.09,-1.91,19.9375,14.5,647.75,-0.06768798828125,0.74456787109375,0.2022705078125,0.0198,8.5,24.6875,-59.375,2.11,-1.15,Walking,7
2.87,2.823645225,26,0,3,3,0,-1126.0,3.19,0.64,-1.77,1.05,1.82,-2.0,17.4375,12.5625,646.3125,-0.06793212890625,0.745361328125,0.20367431640625,0.0198,8.5,24.6875,-59.3125,2.13,-1.18,Walking,7
2.88,2.826928713,26,0,3,3,0,-1072.0,3.27,1.34,-1.23,1.12,2.54,-1.65,16.5,8.9375,645.0,-0.06817626953125,0.74615478515625,0.2047119140625,0.0198,8.5,24.6875,-59.3125,2.15,-1.2,Walking,7
2.89,2.826928713,26,0,3,3,0,-980.0,3.56,2.7,-0.31,1.4,3.93,-0.46,15.3125,5.1875,643.8125,-0.06829833984375,0.7469482421875,0.205078125,0.0198,8.5,24.6875,-59.25,2.16,-1.22,Walking,7
2.9,2.830607464,26,0,3,3,0,-917.0,3.81,3.1,0.3,1.65,4.36,1.17,14.125,2.6875,642.875,-0.0679931640625,0.74786376953125,0.2047119140625,0.0189,8.1875,27.75,-59.25,2.16,-1.25,Walking,7
2.91,2.830607464,26,0,3,3,0,-851.0,4.22,3.3,0.96,2.05,4.59,2.88,12.9375,2.875,642.0625,-0.0670166015625,0.7489013671875,0.20361328125,0.0189,8.1875,27.75,-59.1875,2.16,-1.28,Walking,7
2.92,2.869689333,26,0,3,3,0,-810.0,4.74,3.27,1.36,2.57,4.59,4.33,11.4375,5.625,641.375,-0.06536865234375,0.75006103515625,0.20208740234375,0.0189,8.1875,27.75,-59.1875,2.16,-1.31,Walking,7
2.93,2.869689333,26,0,3,3,0,-799.0,5.09,2.71,1.47,2.91,4.05,5.33,10.0625,9.375,640.75,-0.0631103515625,0.751220703125,0.2003173828125,0.0189,8.1875,27.75,-59.125,2.17,-1.34,Walking,7
2.94,2.872777956,26,0,3,3,0,-833.0,4.7,2.19,1.12,2.52,3.56,6.16,6.375,12.5,640.3125,-0.060302734375,0.7523193359375,0.198486328125,0.0189,8.1875,27.75,-59.125,2.18,-1.36,Walking,7
2.95,2.872777956,26,0,3,3,0,-875.0,4.16,1.79,0.69,1.96,3.17,7.07,0.9375,15.125,640.25,-0.05694580078125,0.753173828125,0.1964111328125,0.0189,8.5625,30.5625,-59.0625,2.2,-1.38,Walking,7
2.96,2.899391034,26,0,3,3,0,-925.0,3.63,1.44,0.19,1.41,2.83,7.6,-6.125,17.375,640.625,-0.0531005859375,0.75372314453125,0.19427490234375,0.0189,8.5625,30.5625,-59.0625,2.22,-1.39,Walking,7
2.97,2.899391034,26,0,3,3,0,-962.0,2.3,0.61,-0.17,0.06,2.0,7.59,-11.5,18.3125,641.3125,-0.049072265625,0.75396728515625,0.19219970703125,0.0189,8.5625,30.5625,-59.0,2.23,-1.38,Walking,7
2.98,2.912697389,26,0,3,3,0,-958.0,1.68,0.1,-0.14,-0.56,1.49,7.44,-14.3125,18.125,642.1875,-0.04510498046875,0.7540283203125,0.190185546875,0.0189,8.5625,30.5625,-59.0,2.25,-1.38,Walking,7
2.99,2.912697389,26,0,3,3,0,-950.0,1.12,-0.4,-0.06,-1.15,0.97,7.39,-15.5625,16.75,643.125,-0.04119873046875,0.75396728515625,0.1881103515625,0.0189,8.5625,30.5625,-58.9375,2.27,-1.37,Walking,7
3.0,2.927756594,26,0,3,3,0,-941.0,0.71,-0.93,0.02,-1.57,0.43,7.48,-17.0625,15.0625,644.1875,-0.037353515625,0.7537841796875,0.18597412109375,0.019,8.0,29.6875,-58.9375,2.28,-1.36,Walking,7
3.01,2.927756594,26,0,3,3,0,-892.0,0.45,-1.42,0.51,-1.84,-0.07,7.67,-20.5625,13.375,645.5625,-0.03350830078125,0.75347900390625,0.18359375,0.019,8.0,29.6875,-58.9375,2.29,-1.35,Walking,7
3.03,2.958690391,26,0,3,3,0,-841.0,0.55,-1.2,1.02,-1.75,0.09,6.76,-24.5,9.5,648.8125,-0.0263671875,0.752197265625,0.17901611328125,0.019,8.0,29.6875,-59.0,2.31,-1.3,Walking,7
3.04,2.958690391,26,0,3,3,0,-779.0,0.62,-1.04,1.64,-1.69,0.23,5.53,-20.75,7.1875,650.1875,-0.023681640625,0.7515869140625,0.17724609375,0.019,8.0,29.6875,-59.0,2.31,-1.28,Walking,7
3.05,2.987882529,26,0,3,3,0,-734.0,0.64,-0.99,2.09,-1.67,0.28,4.27,-12.9375,4.625,651.0625,-0.02166748046875,0.75128173828125,0.17578125,0.0198,9.375,29.375,-59.0,2.31,-1.27,Walking,7
3.06,2.987882529,26,0,3,3,0,-688.0,0.79,-0.91,2.56,-1.52,0.35,3.18,-2.75,2.0625,651.25,-0.0203857421875,0.75140380859375,0.174560546875,0.0198,9.375,29.375,-59.0,2.31,-1.27,Walking,7
3.07,3.01618974,26,0,3,3,0,-688.0,0.79,-0.91,2.56,-1.52,0.35,3.18,-2.75,2.0625,651.25,-0.0203857421875,0.75140380859375,0.174560546875,0.0198,9.375,29.375,-59.0,2.31,-1.27,Walking,7
3.08,3.01618974,26,0,3,3,0,-645.0,1.01,-0.79,2.99,-1.29,0.49,2.31,4.5,0.375,651.0,-0.0196533203125,0.75189208984375,0.17364501953125,0.0198,9.375,29.375,-59.0,2.31,-1.28,Walking,7
3.08,3.049135785,26,0,3,3,0,-592.0,1.25,-0.48,3.51,-1.05,0.82,1.7,8.0625,-0.625,650.5,-0.019287109375,0.75244140625,0.17291259765625,0.0198,9.375,29.375,-59.0,2.31,-1.3,Walking,7
3.09,3.049135785,26,0,3,3,0,-580.0,1.23,-0.42,3.63,-1.06,0.89,1.25,8.875,-1.625,649.9375,-0.01910400390625,0.7530517578125,0.1722412109375,0.0198,9.375,29.375,-58.9375,2.3,-1.32,Walking,7
3.1,3.052435508,26,0,3,3,0,-579.0,1.25,-0.47,3.64,-1.04,0.86,1.08,8.5,-2.3125,649.4375,-0.01898193359375,0.75360107421875,0.17169189453125,0.0209,8.875,27.375,-58.9375,2.3,-1.33,Walking,7
3.11,3.052435508,26,0,3,3,0,-575.0,1.27,-0.52,3.68,-1.02,0.83,0.97,8.6875,-2.875,648.9375,-0.01898193359375,0.754150390625,0.17108154296875,0.0209,8.875,27.375,-58.9375,2.29,-1.35,Walking,7
3.12,3.055451865,26,0,3,3,0,-589.0,1.46,-0.63,3.54,-0.82,0.73,0.51,9.3125,-4.0625,648.375,-0.01922607421875,0.75469970703125,0.170654296875,0.0209,8.875,27.375,-58.9375,2.28,-1.37,Walking,7
3.13,3.055451865,26,0,3,3,0,-609.0,1.6,-0.71,3.34,-0.67,0.66,0.07,8.25,-5.875,647.9375,-0.01971435546875,0.755126953125,0.1702880859375,0.0209,8.875,27.375,-58.9375,2.27,-1.38,Walking,7
3.14,3.07835604,26,0,3,3,0,-628.0,1.73,-0.79,3.15,-0.52,0.59,-0.08,6.25,-7.375,647.625,-0.02032470703125,0.75543212890625,0.169921875,0.0209,8.875,27.375,-58.9375,2.26,-1.39,Walking,7
3.15,3.07835604,26,0,3,3,0,-652.0,1.85,-0.92,2.91,-0.39,0.47,-0.19,4.125,-8.9375,647.5,-0.02099609375,0.755615234375,0.16949462890625,0.0202,8.5625,28.5625,-59.0,2.25,-1.4,Walking,7
3.16,3.092497764,26,0,3,3,0,-691.0,1.97,-1.35,2.53,-0.26,0.04,-0.41,2.6875,-10.0,647.5,-0.0218505859375,0.75567626953125,0.1690673828125,0.0202,8.5625,28.5625,-59.0,2.23,-1.4,Walking,7
3.17,3.092497764,26,0,3,3,0,-722.0,1.93,-1.64,2.22,-0.28,-0.24,-0.83,1.4375,-10.5,647.5625,-0.02288818359375,0.75567626953125,0.1688232421875,0.0202,8.5625,28.5625,-59.0,2.21,-1.4,Walking,7
3.18,3.108719688,26,0,3,3,0,-753.0,1.92,-1.93,1.91,-0.27,-0.53,-1.32,0.0,-10.9375,647.75,-0.0240478515625,0.7554931640625,0.1688232421875,0.0202,8.5625,28.5625,-59.0625,2.2,-1.39,Walking,7
3.19,3.108719688,26,0,3,3,0,-781.0,1.88,-2.22,1.64,-0.29,-0.82,-1.6,-0.8125,-11.9375,648.0,-0.025390625,0.7552490234375,0.1688232421875,0.0202,8.5625,28.5625,-59.0625,2.18,-1.39,Walking,7
3.2,3.138269004,26,0,3,3,0,-829.0,2.17,-2.56,1.16,0.0,-1.17,-1.63,-0.8125,-13.25,648.25,-0.02679443359375,0.75506591796875,0.16876220703125,0.0203,8.5625,28.875,-59.125,2.16,-1.38,Walking,7
3.21,3.138269004,26,0,3,3,0,-854.0,2.26,-2.63,0.92,0.12,-1.24,-1.61,0.0,-14.4375,648.4375,-0.0283203125,0.75482177734375,0.16864013671875,0.0203,8.5625,28.875,-59.125,2.14,-1.38,Walking,7
3.22,3.152925417,26,0,3,3,0,-884.0,2.35,-2.69,0.62,0.23,-1.3,-1.52,1.5625,-15.6875,648.5625,-0.0299072265625,0.7547607421875,0.16839599609375,0.0203,8.5625,28.875,-59.1875,2.12,-1.38,Walking,7
3.23,3.152925417,26,0,3,3,0,-978.0,2.5,-2.57,-0.3,0.4,-1.19,-1.28,2.9375,-16.5625,648.5625,-0.031494140625,0.7547607421875,0.16796875,0.0203,8.5625,28.875,-59.1875,2.09,-1.38,Walking,7
3.24,3.199159792,26,0,3,3,0,-1027.0,2.44,-2.62,-0.78,0.37,-1.23,-0.95,4.6875,-17.4375,648.5,-0.03302001953125,0.75482177734375,0.16741943359375,0.0203,8.5625,28.875,-59.25,2.06,-1.39,Walking,7
3.25,3.199159792,26,0,3,3,0,-1067.0,2.41,-2.83,-1.18,0.37,-1.43,-0.63,5.8125,-18.3125,648.375,-0.0345458984375,0.75506591796875,0.1666259765625,0.0212,9.25,29.25,-59.25,2.03,-1.39,Walking,7
3.26,3.202534955,26,0,3,3,0,-1104.0,2.55,-3.15,-1.55,0.54,-1.74,-0.15,5.5,-18.625,648.3125,-0.035888671875,0.75531005859375,0.1656494140625,0.0212,9.25,29.25,-59.3125,2.0,-1.4,Walking,7
3.27,3.202534955,26,0,3,3,0,-1191.0,3.26,-3.72,-2.41,1.28,-2.3,0.59,3.625,-18.6875,648.375,-0.0369873046875,0.7554931640625,0.16436767578125,0.0212,9.25,29.25,-59.375,1.97,-1.41,Walking,7
3.28,3.21294743,26,0,3,3,0,-1230.0,3.9,-3.68,-2.8,1.96,-2.26,1.56,1.5,-19.0,648.5625,-0.0377197265625,0.755615234375,0.16265869140625,0.0212,9.25,29.25,-59.375,1.94,-1.41,Walking,7
3.29,3.21294743,26,0,3,3,0,-1259.0,4.42,-3.74,-3.08,2.51,-2.31,2.56,0.75,-18.6875,648.8125,-0.0380859375,0.755859375,0.16058349609375,0.0212,9.25,29.25,-59.4375,1.9,-1.42,Walking,7
3.3,3.228364911,26,0,3,3,0,-1283.0,4.83,-3.79,-3.32,2.95,-2.35,3.38,0.0625,-16.9375,649.125,-0.03802490234375,0.75604248046875,0.15826416015625,0.0206,9.6875,29.25,-59.4375,1.87,-1.43,Walking,7
3.31,3.228364911,26,0,3,3,0,-1501.0,4.93,-3.81,-5.48,3.09,-2.37,4.08,-1.0,-12.5625,649.5,-0.03741455078125,0.75634765625,0.1558837890625,0.0206,9.6875,29.25,-59.5,1.84,-1.44,Walking,7
3.32,3.258463177,26,0,3,3,0,-1650.0,4.2,-3.5,-6.98,2.37,-2.04,5.28,1.1875,-8.375,649.625,-0.0361328125,0.7568359375,0.1531982421875,0.0206,9.6875,29.25,-59.5,1.82,-1.45,Walking,7
3.33,3.258463177,26,0,3,3,0,-1700.0,3.01,-3.05,-7.47,1.21,-1.57,6.62,8.75,-6.875,649.25,-0.034423828125,0.7578125,0.15008544921875,0.0206,9.6875,29.25,-59.5,1.8,-1.48,Walking,7
3.34,3.261618695,26,0,3,3,0,-1700.0,3.01,-3.05,-7.47,1.21,-1.57,6.62,8.75,-6.875,649.25,-0.034423828125,0.7578125,0.15008544921875,0.0206,9.6875,29.25,-59.5,1.8,-1.48,Walking,7
3.34,3.261618695,26,0,3,3,0,-1674.0,1.77,-2.51,-7.21,0.0,-0.98,7.2,18.5625,-8.5625,648.25,-0.03277587890625,0.7593994140625,0.1466064453125,0.0206,9.6875,29.25,-59.5,1.77,-1.52,Walking,7
3.35,3.288588015,26,0,3,3,0,-1627.0,0.24,-1.2,-6.75,-1.5,0.37,7.03,25.0,-13.375,646.8125,-0.03155517578125,0.76129150390625,0.14288330078125,0.0195,8.875,28.5,-59.5,1.74,-1.58,Walking,7
3.36,3.288588015,26,0,3,3,0,-1549.0,0.21,-0.45,-5.97,-1.48,1.18,6.44,26.75,-17.5,645.3125,-0.03082275390625,0.76324462890625,0.13916015625,0.0195,8.875,28.5,-59.4375,1.7,-1.63,Walking,7
3.37,3.303405845,26,0,3,3,0,-1390.0,0.47,0.28,-4.39,-1.18,1.97,5.14,25.0,-18.875,643.9375,-0.03057861328125,0.76495361328125,0.1358642578125,0.0195,8.875,28.5,-59.4375,1.66,-1.68,Walking,7
3.38,3.303405845,26,0,3,3,0,-1134.0,1.08,1.48,-1.82,-0.53,3.21,2.87,19.5625,-17.125,642.875,-0.031005859375,0.76617431640625,0.13372802734375,0.0195,8.875,28.5,-59.4375,1.62,-1.72,Walking,7
3.39,3.318623496,26,0,3,3,0,-1048.0,1.39,1.87,-0.96,-0.2,3.62,0.04,12.0,-13.5,642.1875,-0.03204345703125,0.76678466796875,0.1329345703125,0.0195,8.875,28.5,-59.4375,1.6,-1.74,Walking,7
3.4,3.318623496,26,0,3,3,0,-960.0,1.46,2.15,-0.08,-0.12,3.91,-2.18,10.0,-10.0625,641.625,-0.0335693359375,0.76715087890625,0.13323974609375,0.0186,8.75,26.0625,-59.4375,1.59,-1.75,Walking,7
3.41,3.364914064,26,0,3,3,0,-870.0,1.21,2.27,0.8,-0.37,4.05,-3.69,15.875,-7.75,640.5625,-0.0355224609375,0.7677001953125,0.13433837890625,0.0186,8.75,26.0625,-59.4375,1.58,-1.77,Walking,7
3.42,3.364914064,26,0,3,3,0,-780.0,0.09,1.87,1.7,-1.48,3.68,-4.71,24.0625,-6.3125,638.875,-0.037841796875,0.76861572265625,0.1358642578125,0.0186,8.75,26.0625,-59.375,1.58,-1.8,Walking,7
3.43,3.368010337,26,0,3,3,0,-814.0,-0.28,1.57,1.35,-1.86,3.41,-5.58,27.125,-5.4375,637.0,-0.04046630859375,0.7696533203125,0.1378173828125,0.0186,8.75,26.0625,-59.3125,1.58,-1.84,Walking,7
3.44,3.368010337,26,0,3,3,0,-894.0,-0.43,1.35,0.54,-2.02,3.22,-6.84,21.4375,-5.75,635.4375,-0.04339599609375,0.770263671875,0.14031982421875,0.0186,8.75,26.0625,-59.3125,1.59,-1.86,Walking,7
3.45,3.379228151,26,0,3,3,0,-974.0,-0.28,1.15,-0.25,-1.88,3.03,-7.96,11.0,-6.0,634.5625,-0.04669189453125,0.77020263671875,0.143310546875,0.0178,9.5625,26.0625,-59.3125,1.59,-1.87,Walking,7
3.46,3.379228151,26,0,3,3,0,-1009.0,0.97,0.54,-0.6,-0.62,2.4,-8.45,0.8125,-6.25,634.375,-0.0499267578125,0.76953125,0.146484375,0.0178,9.5625,26.0625,-59.3125,1.6,-1.85,Walking,7
3.47,3.408733848,26,0,3,3,0,-965.0,1.27,0.0,-0.15,-0.33,1.83,-8.61,-5.4375,-7.0,634.625,-0.05328369140625,0.76849365234375,0.1497802734375,0.0178,9.5625,26.0625,-59.3125,1.6,-1.83,Walking,7
3.48,3.408733848,26,0,3,3,0,-925.0,1.21,-0.51,0.25,-0.39,1.28,-8.67,-9.75,-7.9375,635.1875,-0.05657958984375,0.7672119140625,0.15301513671875,0.0178,9.5625,26.0625,-59.375,1.61,-1.8,Walking,7
3.49,3.422658653,26,3,3,3,0,-902.0,1.09,-0.94,0.48,-0.51,0.81,-8.89,-13.1875,-8.625,635.9375,-0.05999755859375,0.76568603515625,0.15631103515625,0.0178,9.5625,26.0625,-59.4375,1.61,-1.76,Walking,7
3.5,3.422658653,26,3,3,3,0,-851.0,1.39,-1.38,1.0,-0.22,0.33,-9.2,-14.875,-9.1875,636.8125,-0.06353759765625,0.7640380859375,0.15972900390625,0.0189,9.5625,28.0625,-59.4375,1.61,-1.72,Walking,7
3.51,3.437763633,26,3,3,3,0,-815.0,1.55,-1.34,1.37,-0.06,0.33,-9.45,-15.6875,-9.125,637.6875,-0.067138671875,0.76226806640625,0.16326904296875,0.0189,9.5625,28.0625,-59.5,1.62,-1.67,Walking,7
3.52,3.437763633,26,3,3,3,0,-776.0,1.59,-1.25,1.76,-0.03,0.37,-9.45,-17.3125,-8.125,638.625,-0.0706787109375,0.7603759765625,0.16680908203125,0.0189,9.5625,28.0625,-59.5625,1.62,-1.63,Walking,7
3.53,3.485349042,26,3,3,3,0,-737.0,1.7,-1.19,2.16,0.07,0.38,-9.34,-18.9375,-5.9375,639.6875,-0.073974609375,0.7584228515625,0.17047119140625,0.0189,9.5625,28.0625,-59.5625,1.62,-1.58,Walking,7
3.54,3.485349042,26,3,3,3,0,-665.0,1.63,-1.07,2.88,0.0,0.45,-9.31,-20.125,-3.3125,640.75,-0.07708740234375,0.75640869140625,0.17431640625,0.0189,9.5625,28.0625,-59.625,1.63,-1.53,Walking,7
3.55,3.488568158,26,3,3,3,0,-635.0,1.47,-0.96,3.2,-0.18,0.51,-9.29,-20.125,-0.8125,641.6875,-0.08001708984375,0.75439453125,0.17822265625,0.0178,9.5625,29.5625,-59.6875,1.65,-1.48,Walking,7
3.56,3.488568158,26,3,3,3,0,-606.0,1.32,-0.89,3.48,-0.34,0.54,-9.07,-17.4375,1.3125,642.5,-0.082763671875,0.7525634765625,0.18212890625,0.0178,9.5625,29.5625,-59.6875,1.66,-1.43,Walking,7
3.57,3.497903322,26,3,3,3,0,-552.0,1.1,-0.73,4.03,-0.58,0.65,-8.62,-13.0,3.1875,642.9375,-0.08526611328125,0.7509765625,0.1859130859375,0.0178,9.5625,29.5625,-59.6875,1.68,-1.39,Walking,7
3.58,3.497903322,26,3,3,3,0,-530.0,1.07,-0.7,4.25,-0.62,0.65,-8.16,-8.25,4.9375,643.0,-0.087646484375,0.74969482421875,0.18963623046875,0.0178,9.5625,29.5625,-59.6875,1.7,-1.36,Walking,7
3.59,3.529055788,26,3,3,3,0,-503.0,1.09,-0.79,4.52,-0.63,0.55,-7.67,-4.25,6.4375,642.8125,-0.08978271484375,0.74871826171875,0.193115234375,0.0178,9.5625,29.5625,-59.6875,1.73,-1.34,Walking,7
3.6,3.529055788,26,3,3,3,0,-489.0,1.3,-0.88,4.65,-0.45,0.44,-7.02,-0.9375,8.4375,642.4375,-0.09161376953125,0.7479248046875,0.19647216796875,0.0189,9.1875,30.5,-59.6875,1.75,-1.33,Walking,7
3.61,3.532277631,26,3,3,3,0,-489.0,1.3,-0.88,4.65,-0.45,0.44,-7.02,-0.9375,8.4375,642.4375,-0.09161376953125,0.7479248046875,0.19647216796875,0.0189,9.1875,30.5,-59.6875,1.75,-1.33,Walking,7
3.61,3.532277631,26,3,3,3,0,-505.0,1.67,-1.34,4.49,-0.1,-0.02,-6.11,0.625,10.4375,641.875,-0.093017578125,0.74737548828125,0.19952392578125,0.0189,9.1875,30.5,-59.6875,1.78,-1.31,Walking,7
3.62,3.55975167,26,3,3,3,0,-527.0,1.86,-1.59,4.27,0.06,-0.28,-4.9,2.25,12.0625,641.3125,-0.09393310546875,0.7470703125,0.2021484375,0.0189,9.1875,30.5,-59.625,1.8,-1.31,Walking,7
3.63,3.55975167,26,3,3,3,0,-549.0,2.11,-1.79,4.04,0.28,-0.47,-3.71,3.8125,13.3125,640.625,-0.09442138671875,0.7469482421875,0.204345703125,0.0189,9.1875,30.5,-59.625,1.83,-1.31,Walking,7
3.64,3.572976036,26,3,3,3,0,-582.0,2.21,-1.84,3.7,0.35,-0.53,-2.66,5.4375,14.6875,639.875,-0.094482421875,0.7470703125,0.20623779296875,0.0189,9.1875,30.5,-59.5625,1.86,-1.31,Walking,7
3.65,3.572976036,26,3,3,3,0,-677.0,2.28,-1.81,2.75,0.38,-0.49,-2.0,5.875,16.0,639.0625,-0.09423828125,0.74725341796875,0.20782470703125,0.0182,7.75,32.75,-59.5625,1.89,-1.31,Walking,7
3.66,3.587635215,26,3,3,3,0,-737.0,2.27,-1.82,2.15,0.35,-0.5,-1.62,3.625,18.625,638.4375,-0.0936279296875,0.7474365234375,0.20947265625,0.0182,7.75,32.75,-59.5,1.92,-1.32,Walking,7
3.67,3.587635215,26,3,3,3,0,-775.0,2.24,-1.99,1.76,0.28,-0.67,-1.21,-1.3125,22.1875,638.0625,-0.092529296875,0.74737548828125,0.21124267578125,0.0182,7.75,32.75,-59.4375,1.96,-1.31,Walking,7
3.68,3.633627037,26,3,3,3,0,-795.0,2.22,-2.25,1.55,0.21,-0.95,-0.75,-6.625,26.0625,637.9375,-0.09100341796875,0.74713134765625,0.2130126953125,0.0182,7.75,32.75,-59.375,2.0,-1.3,Walking,7
3.69,3.633627037,26,3,3,3,0,-829.0,1.93,-2.5,1.2,-0.12,-1.22,0.01,-9.8125,29.375,638.0625,-0.0888671875,0.746826171875,0.21466064453125,0.0182,7.75,32.75,-59.375,2.05,-1.28,Walking,7
3.7,3.649243248,26,3,3,3,0,-872.0,1.72,-2.33,0.77,-0.38,-1.06,1.03,-10.3125,31.875,638.1875,-0.08624267578125,0.74664306640625,0.216064453125,0.0182,7.875,33.5,-59.3125,2.1,-1.27,Walking,7
3.71,3.649243248,26,3,3,3,0,-930.0,1.54,-2.1,0.17,-0.61,-0.84,1.76,-8.75,33.3125,638.25,-0.08331298828125,0.74658203125,0.21722412109375,0.0182,7.875,33.5,-59.25,2.16,-1.26,Walking,7
3.72,3.652376915,26,3,3,3,0,-1035.0,1.31,-1.92,-0.88,-0.9,-0.67,1.99,-6.3125,34.375,638.0625,-0.080322265625,0.7467041015625,0.21832275390625,0.0182,7.875,33.5,-59.1875,2.21,-1.25,Walking,7
3.73,3.652376915,26,3,3,3,0,-1090.0,1.13,-2.07,-1.45,-1.13,-0.82,1.83,-3.0,35.3125,637.6875,-0.07733154296875,0.74700927734375,0.21954345703125,0.0182,7.875,33.5,-59.0625,2.27,-1.25,Walking,7
3.74,3.693652834,26,3,3,3,0,-1159.0,0.77,-2.35,-2.15,-1.55,-1.09,1.42,1.9375,36.0,636.9375,-0.07452392578125,0.74749755859375,0.22088623046875,0.0182,7.875,33.5,-59.0,2.32,-1.26,Walking,7
3.75,3.693652834,26,3,3,3,0,-1240.0,0.38,-2.72,-2.98,-2.0,-1.44,0.92,7.8125,35.25,635.75,-0.07208251953125,0.748291015625,0.22235107421875,0.0186,8.1875,34.6875,-58.875,2.38,-1.27,Walking,7
3.76,3.696775881,26,3,3,3,0,-1404.0,-0.03,-3.63,-4.63,-2.47,-2.33,0.17,14.0,33.625,634.125,-0.070068359375,0.749267578125,0.2239990234375,0.0186,8.1875,34.6875,-58.75,2.44,-1.3,Walking,7
3.77,3.696775881,26,3,3,3,0,-1484.0,-0.06,-4.02,-5.44,-2.55,-2.69,-0.81,19.25,30.5625,632.25,-0.0687255859375,0.7503662109375,0.22589111328125,0.0186,8.1875,34.6875,-58.6875,2.49,-1.32,Walking,7
3.78,3.708359662,26,3,3,3,0,-1585.0,0.3,-4.14,-6.47,-2.23,-2.77,-1.97,24.4375,26.0,630.0,-0.06817626953125,0.7515869140625,0.2279052734375,0.0186,8.1875,34.6875,-58.5625,2.53,-1.36,Walking,7
3.79,3.708359662,26,3,3,3,0,-1677.0,1.19,-3.79,-7.42,-1.37,-2.37,-2.81,35.875,20.3125,627.0625,-0.06854248046875,0.7532958984375,0.22991943359375,0.0186,8.1875,34.6875,-58.4375,2.57,-1.41,Walking,7
3.8,3.737995201,26,3,3,3,0,-1604.0,3.49,-2.56,-6.71,0.89,-1.06,-2.84,54.6875,14.75,622.9375,-0.06964111328125,0.75592041015625,0.2315673828125,0.0186,6.75,34.1875,-58.3125,2.6,-1.49,Walking,7
3.81,3.737995201,26,3,3,3,0,-1557.0,4.53,-2.03,-6.26,1.9,-0.43,-2.51,70.0625,13.625,617.8125,-0.07098388671875,0.7593994140625,0.23284912109375,0.0186,6.75,34.1875,-58.1875,2.62,-1.6,Walking,7
3.82,3.75270626,26,3,3,3,0,-1555.0,5.49,-1.58,-6.27,2.84,0.13,-2.47,73.5,14.8125,612.4375,-0.07232666015625,0.7630615234375,0.23419189453125,0.0186,6.75,34.1875,-58.0,2.65,-1.71,Walking,7
3.83,3.75270626,26,3,3,3,0,-1523.0,5.97,-1.25,-5.97,3.29,0.55,-2.69,67.75,14.9375,607.375,-0.0736083984375,0.76629638671875,0.23565673828125,0.0186,6.75,34.1875,-57.8125,2.68,-1.81,Walking,7
3.84,3.767674197,26,3,3,3,0,-1411.0,5.4,-0.58,-4.88,2.69,1.31,-2.38,55.0,14.5,603.1875,-0.07452392578125,0.7689208984375,0.23699951171875,0.0186,6.75,34.1875,-57.6875,2.71,-1.89,Walking,7
3.85,3.767674197,26,3,3,3,0,-1355.0,5.22,0.1,-4.34,2.48,2.06,-1.15,40.1875,13.625,600.125,-0.0748291015625,0.77093505859375,0.2379150390625,0.0189,6.75,36.875,-57.5625,2.73,-1.95,Walking,7
3.86,3.815021487,26,3,3,3,0,-1276.0,5.19,0.92,-3.56,2.43,2.93,0.58,29.375,12.0625,597.875,-0.074462890625,0.7725830078125,0.23809814453125,0.0189,6.75,36.875,-57.4375,2.75,-2.0,Walking,7
3.87,3.815021487,26,3,3,3,0,-1119.0,5.73,2.33,-2.01,2.97,4.38,2.78,21.375,11.1875,596.25,-0.0732421875,0.77410888671875,0.23736572265625,0.0189,6.75,36.875,-57.375,2.76,-2.05,Walking,7
3.88,3.818349123,26,3,3,3,0,-1060.0,6.04,2.79,-1.43,3.26,4.88,5.01,15.0625,11.0,595.1875,-0.07122802734375,0.77557373046875,0.2357177734375,0.0189,6.75,36.875,-57.3125,2.77,-2.09,Walking,7
3.89,3.818349123,26,3,3,3,0,-1060.0,6.04,2.79,-1.43,3.26,4.88,5.01,15.0625,11.0,595.1875,-0.07122802734375,0.77557373046875,0.2357177734375,0.0189,6.75,36.875,-57.3125,2.77,-2.09,Walking,7
3.89,3.828416221,26,3,3,3,0,-1007.0,6.06,2.91,-0.9,3.29,5.03,6.58,10.5625,11.0625,594.5,-0.068603515625,0.7769775390625,0.2333984375,0.0189,6.75,36.875,-57.25,2.77,-2.12,Walking,7
3.9,3.828416221,26,3,3,3,0,-969.0,5.83,2.59,-0.54,3.06,4.75,7.18,6.875,10.8125,594.125,-0.06573486328125,0.7783203125,0.23089599609375,0.0192,6.5,38.875,-57.1875,2.77,-2.15,Walking,7
3.91,3.843254844,26,3,3,3,0,-1003.0,5.14,1.24,-0.88,2.36,3.42,6.84,-0.5,11.6875,594.125,-0.06280517578125,0.77923583984375,0.22857666015625,0.0192,6.5,38.875,-57.125,2.77,-2.17,Walking,7
3.92,3.843254844,26,3,3,3,0,-1027.0,4.85,0.34,-1.13,2.06,2.52,6.13,-10.6875,12.9375,594.875,-0.05975341796875,0.77947998046875,0.2266845703125,0.0192,6.5,38.875,-57.125,2.78,-2.18,Walking,7
3.93,3.873046267,26,3,3,3,0,-1030.0,4.41,-0.47,-1.15,1.62,1.68,5.45,-18.0625,14.125,596.0625,-0.05670166015625,0.779296875,0.22515869140625,0.0192,6.5,38.875,-57.125,2.79,-2.16,Walking,7
3.94,3.873046267,26,3,3,3,0,-1003.0,3.78,-1.06,-0.88,0.98,1.08,5.25,-20.625,14.125,597.375,-0.05364990234375,0.7789306640625,0.22381591796875,0.0192,6.5,38.875,-57.125,2.8,-2.14,Walking,7
3.95,3.903346601,26,3,3,3,0,-899.0,2.91,-1.67,0.15,0.1,0.46,5.6,-20.125,13.0625,598.6875,-0.05059814453125,0.77862548828125,0.22216796875,0.0186,5.75,36.5,-57.125,2.81,-2.13,Walking,7
3.96,3.903346601,26,3,3,3,0,-866.0,2.58,-1.77,0.48,-0.22,0.34,5.95,-20.8125,11.5,600.125,-0.0474853515625,0.7783203125,0.2203369140625,0.0186,5.75,36.5,-57.1875,2.81,-2.11,Walking,7
3.97,3.906485313,26,3,3,3,0,-830.0,2.3,-1.89,0.84,-0.51,0.2,6.15,-21.375,9.6875,601.625,-0.04449462890625,0.7779541015625,0.21832275390625,0.0186,5.75,36.5,-57.1875,2.81,-2.1,Walking,7
3.98,3.906485313,26,3,3,3,0,-785.0,1.98,-1.98,1.29,-0.83,0.1,6.21,-20.375,7.3125,603.0625,-0.04156494140625,0.77764892578125,0.21612548828125,0.0186,5.75,36.5,-57.1875,2.81,-2.08,Walking,7
3.99,3.917831179,26,3,3,3,0,-700.0,1.31,-1.89,2.16,-1.49,0.17,6.02,-18.625,4.0625,604.4375,-0.03900146484375,0.77740478515625,0.2138671875,0.0186,5.75,36.5,-57.25,2.8,-2.07,Walking,7
4.0,3.917831179,26,3,3,3,0,-670.0,1.18,-1.7,2.46,-1.61,0.35,5.64,-17.5,0.625,605.75,-0.03680419921875,0.777099609375,0.21160888671875,0.0181,6.875,34.5625,-57.25,2.79,-2.06,Walking,7
4.01,3.948551068,26,3,3,3,0,-638.0,1.14,-1.44,2.78,-1.63,0.61,5.08,-16.4375,-2.8125,607.125,-0.03509521484375,0.77679443359375,0.2093505859375,0.0181,6.875,34.5625,-57.3125,2.78,-2.05,Walking,7
4.02,3.948551068,26,3,3,3,0,-597.0,1.2,-1.34,3.2,-1.55,0.7,4.37,-14.625,-6.3125,608.3125,-0.0338134765625,0.7764892578125,0.20721435546875,0.0181,6.875,34.5625,-57.375,2.76,-2.04,Walking,7
4.03,3.964040448,26,3,3,3,0,-521.0,1.25,-1.23,3.98,-1.48,0.8,3.74,-10.4375,-9.8125,609.3125,-0.0330810546875,0.7763671875,0.2052001953125,0.0181,6.875,34.5625,-57.4375,2.73,-2.03,Walking,7
4.04,3.964040448,26,3,3,3,0,-493.0,1.36,-1.16,4.26,-1.34,0.87,3.42,-6.125,-12.8125,610.0625,-0.03271484375,0.7763671875,0.20306396484375,0.0181,6.875,34.5625,-57.5,2.7,-2.03,Walking,7
4.05,3.97868384,26,3,3,3,0,-450.0,1.5,-1.07,4.7,-1.17,0.96,3.24,-3.9375,-14.625,610.6875,-0.0325927734375,0.77642822265625,0.20098876953125,0.0184,6.5,33.0,-57.5625,2.67,-2.03,Walking,7
4.06,3.97868384,26,3,3,3,0,-385.0,1.6,-0.67,5.36,-1.04,1.36,3.18,-3.75,-15.6875,611.3125,-0.0325927734375,0.77655029296875,0.1988525390625,0.0184,6.5,33.0,-57.5625,2.64,-2.04,Walking,7
4.07,4.016014122,26,3,3,3,0,-366.0,1.55,-0.43,5.56,-1.05,1.6,3.14,-5.6875,-16.3125,612.125,-0.03253173828125,0.7764892578125,0.1966552734375,0.0184,6.5,33.0,-57.625,2.61,-2.04,Walking,7
4.08,4.016014122,26,3,3,3,0,-366.0,1.52,-0.26,5.57,-1.05,1.77,3.04,-7.875,-16.75,613.0,-0.03253173828125,0.7763671875,0.19451904296875,0.0184,6.5,33.0,-57.6875,2.57,-2.03,Walking,7
4.09,4.025771609,26,3,3,3,0,-374.0,1.54,-0.19,5.51,-0.99,1.83,2.94,-10.9375,-16.3125,614.125,-0.03253173828125,0.7760009765625,0.1925048828125,0.0184,6.5,33.0,-57.8125,2.54,-2.02,Walking,7
4.1,4.025771609,26,3,3,3,0,-410.0,1.9,-0.12,5.16,-0.61,1.87,2.78,-14.5625,-15.25,615.5,-0.03240966796875,0.7755126953125,0.1905517578125,0.0181,6.0625,29.5,-57.875,2.51,-2.0,Walking,7
4.11,4.038213503,26,3,3,3,0,-450.0,2.09,-0.26,4.76,-0.38,1.72,2.32,-18.5625,-13.75,617.0625,-0.0322265625,0.77471923828125,0.18890380859375,0.0181,6.0625,29.5,-57.9375,2.48,-1.98,Walking,7
4.12,4.038213503,26,3,3,3,0,-498.0,2.22,-0.48,4.3,-0.23,1.46,1.79,-21.8125,-12.5625,618.8125,-0.03216552734375,0.773681640625,0.18756103515625,0.0181,6.0625,29.5,-58.0,2.46,-1.95,Walking,7
4.13,4.06868502,26,3,3,3,0,-557.0,2.27,-0.76,3.73,-0.16,1.15,1.18,-23.6875,-11.25,620.6875,-0.0321044921875,0.77252197265625,0.1865234375,0.0181,6.0625,29.5,-58.125,2.44,-1.91,Walking,7
4.14,4.06868502,26,3,3,3,0,-557.0,2.27,-0.76,3.73,-0.16,1.15,1.18,-23.6875,-11.25,620.6875,-0.0321044921875,0.77252197265625,0.1865234375,0.0181,6.0625,29.5,-58.125,2.44,-1.91,Walking,7
4.14,4.07220862,26,3,3,3,0,-661.0,2.48,-1.43,2.69,0.05,0.44,0.44,-24.0,-10.4375,622.5625,-0.03228759765625,0.771240234375,0.18585205078125,0.0181,6.0625,29.5,-58.1875,2.42,-1.87,Walking,7
4.15,4.07220862,26,3,3,3,0,-698.0,2.54,-1.86,2.34,0.13,-0.02,-0.28,-22.5,-9.5,624.3125,-0.03265380859375,0.76995849609375,0.185546875,0.0168,6.5,28.0,-58.25,2.41,-1.84,Walking,7
4.16,4.09850045,26,3,3,3,0,-720.0,2.57,-2.38,2.13,0.17,-0.57,-0.82,-20.75,-8.75,625.875,-0.03314208984375,0.76873779296875,0.18548583984375,0.0168,6.5,28.0,-58.3125,2.39,-1.8,Walking,7
4.17,4.09850045,26,3,3,3,0,-753.0,2.58,-2.86,1.8,0.19,-1.09,-1.03,-18.8125,-7.9375,627.3125,-0.03375244140625,0.767578125,0.18560791015625,0.0168,6.5,28.0,-58.375,2.38,-1.77,Walking,7
4.18,4.113474897,26,3,3,3,0,-818.0,2.82,-3.34,1.16,0.44,-1.6,-0.78,-16.25,-7.4375,628.5,-0.03424072265625,0.7666015625,0.18560791015625,0.0168,6.5,28.0,-58.4375,2.37,-1.74,Walking,7
4.19,4.113474897,26,3,3,3,0,-859.0,2.89,-3.39,0.76,0.53,-1.68,-0.43,-12.8125,-7.4375,629.5,-0.03466796875,0.76580810546875,0.1854248046875,0.0168,6.5,28.0,-58.5,2.36,-1.71,Walking,7
4.2,4.128218793,26,3,3,3,0,-911.0,2.92,-3.34,0.25,0.57,-1.63,-0.13,-9.4375,-7.875,630.3125,-0.0350341796875,0.7652587890625,0.18511962890625,0.0178,6.5,27.5625,-58.5,2.35,-1.7,Walking,7
4.21,4.128218793,26,3,3,3,0,-1030.0,2.76,-3.28,-0.92,0.42,-1.59,0.2,-6.6875,-8.875,630.9375,-0.03546142578125,0.764892578125,0.1845703125,0.0178,6.5,27.5625,-58.5625,2.34,-1.69,Walking,7
4.22,4.159215945,26,3,3,3,0,-1087.0,2.48,-3.41,-1.49,0.16,-1.72,0.49,-4.8125,-10.8125,631.4375,-0.03594970703125,0.7646484375,0.18377685546875,0.0178,6.5,27.5625,-58.5625,2.32,-1.68,Walking,7
4.23,4.159215945,26,3,3,3,0,-1140.0,2.22,-3.6,-2.01,-0.07,-1.91,0.84,-3.5625,-14.0625,632.0,-0.03656005859375,0.76446533203125,0.18267822265625,0.0178,6.5,27.5625,-58.625,2.29,-1.68,Walking,7
4.24,4.173026817,26,3,3,3,0,-1189.0,2.17,-3.82,-2.5,-0.09,-2.14,1.34,-4.375,-17.9375,632.625,-0.0372314453125,0.7642822265625,0.18121337890625,0.0178,6.5,27.5625,-58.6875,2.26,-1.67,Walking,7
4.25,4.173026817,26,3,3,3,0,-1250.0,2.76,-4.09,-3.1,0.53,-2.42,1.71,-6.75,-22.0,633.4375,-0.0379638671875,0.7640380859375,0.1793212890625,0.0181,5.75,26.875,-58.75,2.22,-1.67,Walking,7
4.26,4.187974856,26,3,3,3,0,-1256.0,3.21,-4.14,-3.14,1.03,-2.48,1.75,-11.8125,-25.5,634.6875,-0.03887939453125,0.763427734375,0.17724609375,0.0181,5.75,26.875,-58.8125,2.18,-1.65,Walking,7
4.27,4.187974856,26,3,3,3,0,-1271.0,3.61,-4.15,-3.28,1.48,-2.52,1.81,-19.5625,-28.4375,636.5625,-0.03985595703125,0.762451171875,0.175048828125,0.0181,5.75,26.875,-58.9375,2.13,-1.62,Walking,7
4.28,4.217704714,26,3,3,3,0,-1299.0,3.93,-4.45,-3.54,1.85,-2.86,1.91,-27.125,-29.5,638.875,-0.040771484375,0.76104736328125,0.1727294921875,0.0181,5.75,26.875,-59.0625,2.07,-1.58,Walking,7
4.29,4.217704714,26,3,3,3,0,-1425.0,3.79,-6.05,-4.78,1.77,-4.51,2.02,-31.375,-28.8125,641.5,-0.04150390625,0.75946044921875,0.17047119140625,0.0181,5.75,26.875,-59.1875,2.02,-1.53,Walking,7
4.3,4.23341085,26,3,3,3,0,-1548.0,3.46,-6.52,-5.99,1.48,-5.02,2.13,-27.3125,-28.0625,643.8125,-0.042236328125,0.758056640625,0.16815185546875,0.0171,6.5,26.0,-59.25,1.97,-1.49,Walking,7
4.31,4.23341085,26,3,3,3,0,-1687.0,2.7,-5.84,-7.37,0.78,-4.35,2.91,-9.0,-30.5625,644.9375,-0.0430908203125,0.7576904296875,0.165283203125,0.0171,6.5,26.0,-59.3125,1.92,-1.48,Walking,7
4.32,4.248086632,26,3,3,3,0,-1738.0,1.96,-4.2,-7.87,0.1,-2.67,4.67,23.375,-37.0,644.0,-0.0443115234375,0.75927734375,0.1612548828125,0.0171,6.5,26.0,-59.375,1.85,-1.53,Walking,7
4.33,4.248086632,26,3,3,3,0,-1485.0,0.61,-1.03,-5.35,-1.16,0.6,5.23,52.0625,-44.5625,641.25,-0.04620361328125,0.76239013671875,0.15643310546875,0.0171,6.5,26.0,-59.375,1.77,-1.63,Walking,7
4.34,4.278181765,26,3,3,3,0,-1396.0,0.76,0.14,-4.46,-0.92,1.88,4.2,59.25,-48.0625,637.9375,-0.04876708984375,0.76580810546875,0.15185546875,0.0171,6.5,26.0,-59.375,1.68,-1.74,Walking,7
4.35,4.278181765,26,3,3,3,0,-1323.0,1.21,1.24,-3.72,-0.38,3.07,2.86,46.9375,-48.0625,635.4375,-0.05157470703125,0.76837158203125,0.1478271484375,0.0168,6.875,24.0625,-59.375,1.59,-1.82,Walking,7
4.36,4.293683759,26,3,3,3,0,-1244.0,1.55,1.69,-2.94,0.03,3.57,1.15,28.8125,-44.8125,634.125,-0.0545654296875,0.769775390625,0.144775390625,0.0168,6.875,24.0625,-59.375,1.52,-1.87,Walking,7
4.37,4.293683759,26,3,3,3,0,-1160.0,1.85,1.83,-2.09,0.39,3.72,-0.56,12.375,-39.5625,633.75,-0.05755615234375,0.770263671875,0.142822265625,0.0168,6.875,24.0625,-59.4375,1.45,-1.89,Walking,7
4.38,4.308329063,26,3,3,3,0,-1161.0,1.61,1.96,-2.09,0.2,3.87,-2.28,8.3125,-33.625,633.5,-0.06072998046875,0.77032470703125,0.14190673828125,0.0168,6.875,24.0625,-59.4375,1.4,-1.9,Walking,7
4.39,4.308329063,26,3,3,3,0,-1166.0,1.12,2.12,-2.14,-0.24,4.04,-3.97,14.5,-28.875,632.75,-0.064208984375,0.7706298828125,0.1419677734375,0.0168,6.875,24.0625,-59.4375,1.36,-1.92,Walking,7
4.4,4.353173424,26,3,3,3,0,-1166.0,1.12,2.12,-2.14,-0.24,4.04,-3.97,14.5,-28.875,632.75,-0.064208984375,0.7706298828125,0.1419677734375,0.0168,6.875,24.0625,-59.4375,1.36,-1.92,Walking,7
4.41,4.353173424,26,3,3,3,0,-1136.0,-0.31,2.65,-1.84,-1.65,4.6,-4.83,21.1875,-24.9375,631.4375,-0.0677490234375,0.771240234375,0.14251708984375,0.015,6.1875,24.0625,-59.4375,1.33,-1.95,Walking,7
4.41,4.356381228,26,3,3,3,0,-1143.0,-0.96,2.58,-1.91,-2.27,4.56,-4.67,24.875,-22.25,629.875,-0.07110595703125,0.7720947265625,0.1431884765625,0.015,6.1875,24.0625,-59.4375,1.3,-1.98,Walking,7
4.42,4.356381228,26,3,3,3,0,-1139.0,-0.73,2.17,-1.88,-2.01,4.19,-3.77,22.375,-21.3125,628.4375,-0.0740966796875,0.7728271484375,0.14349365234375,0.015,6.1875,24.0625,-59.4375,1.28,-2.01,Walking,7
4.43,4.367632652,26,3,3,3,0,-1104.0,0.29,1.58,-1.53,-0.96,3.63,-2.98,17.8125,-17.6875,627.3125,-0.0765380859375,0.7734375,0.1436767578125,0.015,6.1875,24.0625,-59.375,1.25,-2.04,Walking,7
4.44,4.367632652,26,3,3,3,0,-1045.0,1.81,0.6,-0.95,0.57,2.66,-4.54,15.375,-14.4375,626.25,-0.0792236328125,0.7738037109375,0.14471435546875,0.015,6.1875,24.0625,-59.375,1.24,-2.05,Walking,7
4.45,4.384103681,26,3,3,3,0,-976.0,2.09,0.39,-0.26,0.84,2.46,-6.92,13.9375,-10.0,625.125,-0.0823974609375,0.77386474609375,0.14697265625,0.0146,6.5625,22.1875,-59.375,1.24,-2.07,Walking,7
4.46,4.384103681,26,3,3,3,0,-910.0,2.26,-0.05,0.39,1.01,2.01,-7.99,8.0,-6.25,624.3125,-0.0855712890625,0.77362060546875,0.14996337890625,0.0146,6.5625,22.1875,-59.375,1.25,-2.07,Walking,7
4.47,4.398431114,26,3,3,3,0,-863.0,2.57,-0.8,0.86,1.31,1.25,-9.02,-0.25,-2.625,623.9375,-0.0887451171875,0.7728271484375,0.15362548828125,0.0146,6.5625,22.1875,-59.375,1.26,-2.06,Walking,7
4.48,4.398431114,26,3,3,3,0,-782.0,3.38,-1.92,1.68,2.09,0.11,-10.35,-8.9375,1.0625,624.0625,-0.09197998046875,0.77142333984375,0.15814208984375,0.0146,6.5625,22.1875,-59.375,1.29,-2.03,Walking,7
4.49,4.42939844,26,3,3,3,0,-744.0,3.55,-2.03,2.06,2.22,-0.04,-11.17,-14.3125,5.75,624.4375,-0.0950927734375,0.76971435546875,0.16326904296875,0.0146,6.5625,22.1875,-59.4375,1.32,-1.99,Walking,7
4.5,4.42939844,26,3,3,3,0,-711.0,3.58,-1.97,2.39,2.21,-0.02,-11.23,-15.875,11.125,624.75,-0.09783935546875,0.7679443359375,0.168701171875,0.0144,5.875,24.5,-59.4375,1.36,-1.94,Walking,7
4.51,4.4749185,26,3,3,3,0,-688.0,3.59,-1.82,2.62,2.17,0.08,-10.43,-15.3125,17.1875,625.0,-0.09991455078125,0.7662353515625,0.17413330078125,0.0144,5.875,24.5,-59.4375,1.42,-1.9,Walking,7
4.52,4.4749185,26,3,3,3,0,-657.0,3.02,-1.23,2.93,1.55,0.63,-9.17,-14.0,22.375,625.125,-0.10125732421875,0.76483154296875,0.17926025390625,0.0144,5.875,24.5,-59.4375,1.47,-1.86,Walking,7
4.53,4.48038485,26,3,3,3,0,-638.0,2.39,-1.02,3.12,0.86,0.8,-7.56,-12.4375,26.125,625.125,-0.10186767578125,0.76361083984375,0.1839599609375,0.0144,5.875,24.5,-59.4375,1.53,-1.83,Walking,7
4.54,4.48038485,26,3,3,3,0,-603.0,1.82,-0.95,3.46,0.23,0.85,-5.89,-9.125,27.75,625.0,-0.101806640625,0.76275634765625,0.18798828125,0.0144,5.875,24.5,-59.375,1.59,-1.8,Walking,7
4.55,4.504192182,26,3,3,3,0,-550.0,1.08,-0.84,3.99,-0.56,0.94,-4.45,-4.125,28.25,624.5625,-0.101318359375,0.7623291015625,0.19140625,0.014,5.875,24.875,-59.3125,1.64,-1.79,Walking,7
4.56,4.504192182,26,3,3,3,0,-529.0,0.93,-0.75,4.19,-0.76,1.03,-3.09,0.0,27.8125,623.9375,-0.10052490234375,0.76220703125,0.19415283203125,0.014,5.875,24.875,-59.3125,1.7,-1.78,Walking,7
4.57,4.51105705,26,3,3,3,0,-513.0,0.91,-0.72,4.34,-0.83,1.05,-1.64,2.6875,27.0,623.1875,-0.09930419921875,0.76239013671875,0.1962890625,0.014,5.875,24.875,-59.25,1.74,-1.78,Walking,7
4.58,4.51105705,26,3,3,3,0,-501.0,0.92,-0.76,4.45,-0.86,1.02,-0.37,4.0,26.6875,622.4375,-0.09771728515625,0.76275634765625,0.19781494140625,0.014,5.875,24.875,-59.1875,1.79,-1.79,Walking,7
4.59,4.53426221,26,3,3,3,0,-510.0,0.8,-0.72,4.36,-1.03,1.06,0.66,1.8125,27.0625,621.875,-0.095703125,0.76318359375,0.198974609375,0.014,5.875,24.875,-59.125,1.83,-1.79,Walking,7
4.6,4.53426221,26,3,3,3,0,-543.0,0.85,-0.63,4.01,-1.02,1.16,1.52,-1.6875,26.75,621.625,-0.0933837890625,0.763427734375,0.19976806640625,0.0148,5.5,24.5,-59.0625,1.87,-1.79,Walking,7
4.61,4.564384402,26,3,3,3,0,-583.0,0.94,-0.62,3.61,-0.97,1.16,2.08,-6.125,25.5,621.75,-0.09088134765625,0.7635498046875,0.2003173828125,0.0148,5.5,24.5,-59.0,1.91,-1.78,Walking,7
4.62,4.564384402,26,3,3,3,0,-629.0,1.08,-0.71,3.14,-0.86,1.05,2.16,-10.3125,24.4375,622.125,-0.08831787109375,0.76336669921875,0.2008056640625,0.0148,5.5,24.5,-59.0,1.95,-1.77,Walking,7
4.63,4.569287885,26,3,3,3,0,-687.0,1.08,-1.25,2.56,-0.9,0.5,1.82,-13.0,23.25,622.6875,-0.0859375,0.7630615234375,0.201416015625,0.0148,5.5,24.5,-59.0,1.98,-1.75,Walking,7
4.64,4.569287885,26,3,3,3,0,-704.0,1.28,-1.64,2.39,-0.74,0.09,1.65,-15.8125,22.25,623.5,-0.0836181640625,0.7625732421875,0.2020263671875,0.0148,5.5,24.5,-58.9375,2.02,-1.73,Walking,7
4.65,4.57867261,26,3,3,3,0,-728.0,1.41,-2.09,2.15,-0.64,-0.38,1.51,-18.6875,22.3125,624.4375,-0.081298828125,0.7618408203125,0.2027587890625,0.0151,5.1875,25.6875,-58.9375,2.05,-1.7,Walking,7
4.66,4.57867261,26,3,3,3,0,-728.0,1.41,-2.09,2.15,-0.64,-0.38,1.51,-18.6875,22.3125,624.4375,-0.081298828125,0.7618408203125,0.2027587890625,0.0151,5.1875,25.6875,-58.9375,2.05,-1.7,Walking,7
4.67,4.593427574,26,3,3,3,0,-757.0,1.39,-2.52,1.85,-0.69,-0.85,1.32,-19.75,22.75,625.4375,-0.0789794921875,0.7611083984375,0.20355224609375,0.0151,5.1875,25.6875,-58.9375,2.09,-1.67,Walking,7
4.67,4.593427574,26,3,3,3,0,-813.0,1.3,-2.92,1.29,-0.82,-1.27,1.32,-18.6875,22.9375,626.375,-0.07666015625,0.7603759765625,0.204345703125,0.0151,5.1875,25.6875,-58.875,2.12,-1.64,Walking,7
4.68,4.624398318,26,3,3,3,0,-828.0,1.22,-2.91,1.13,-0.93,-1.28,1.38,-16.0625,22.6875,627.125,-0.07440185546875,0.75982666015625,0.205078125,0.0151,5.1875,25.6875,-58.875,2.16,-1.62,Walking,7
4.69,4.624398318,26,3,3,3,0,-838.0,1.12,-2.83,1.04,-1.06,-1.23,1.49,-12.75,21.625,627.6875,-0.072265625,0.7593994140625,0.20574951171875,0.0151,5.1875,25.6875,-58.875,2.19,-1.6,Walking,7
4.7,4.638646161,26,3,3,3,0,-864.0,1.37,-2.46,0.77,-0.85,-0.87,1.54,-9.6875,21.0,628.0,-0.0701904296875,0.75921630859375,0.206298828125,0.0134,5.1875,24.875,-58.8125,2.22,-1.59,Walking,7
4.71,4.638646161,26,3,3,3,0,-900.0,1.65,-2.3,0.4,-0.6,-0.72,1.22,-6.1875,20.4375,628.125,-0.06829833984375,0.75909423828125,0.2069091796875,0.0134,5.1875,24.875,-58.75,2.25,-1.58,Walking,7
4.72,4.653925987,26,3,3,3,0,-950.0,1.94,-2.33,-0.1,-0.35,-0.74,0.54,-0.125,20.4375,627.75,-0.0667724609375,0.75927734375,0.207763671875,0.0134,5.1875,24.875,-58.75,2.29,-1.58,Walking,7
4.73,4.653925987,26,3,3,3,0,-1017.0,2.21,-2.59,-0.78,-0.11,-0.99,0.01,7.8125,20.75,626.875,-0.06549072265625,0.75982666015625,0.2088623046875,0.0134,5.1875,24.875,-58.6875,2.32,-1.6,Walking,7
4.74,4.669723188,26,3,3,3,0,-1137.0,2.4,-3.46,-1.99,0.04,-1.83,-0.14,16.0625,21.25,625.375,-0.064453125,0.76080322265625,0.2099609375,0.0134,5.1875,24.875,-58.5625,2.36,-1.62,Walking,7
4.75,4.669723188,26,3,3,3,0,-1194.0,2.28,-3.9,-2.58,-0.1,-2.23,-0.16,22.8125,21.375,623.4375,-0.0634765625,0.7620849609375,0.2110595703125,0.0148,4.75,24.0625,-58.5,2.39,-1.66,Walking,7
4.76,4.699878543,26,3,3,3,0,-1253.0,2.16,-4.11,-3.18,-0.27,-2.4,-0.44,25.9375,21.4375,621.25,-0.06268310546875,0.76348876953125,0.21221923828125,0.0148,4.75,24.0625,-58.375,2.43,-1.7,Walking,7
4.77,4.699878543,26,3,3,3,0,-1309.0,1.99,-4.19,-3.76,-0.46,-2.45,-0.97,26.4375,21.125,619.0,-0.0621337890625,0.764892578125,0.213623046875,0.0148,4.75,24.0625,-58.25,2.46,-1.74,Walking,7
4.78,4.713686567,26,3,3,3,0,-1393.0,1.25,-4.15,-4.62,-1.24,-2.37,-1.35,25.4375,20.25,616.8125,-0.06170654296875,0.76617431640625,0.215087890625,0.0148,4.75,24.0625,-58.1875,2.5,-1.78,Walking,7
4.79,4.713686567,26,3,3,3,0,-1425.0,1.17,-4.27,-4.95,-1.36,-2.45,-1.25,22.9375,18.5,614.875,-0.061279296875,0.767333984375,0.21649169921875,0.0148,4.75,24.0625,-58.0625,2.53,-1.81,Walking,7
4.8,4.729087486,26,3,3,3,0,-1451.0,1.46,-4.61,-5.23,-1.1,-2.77,-1.09,19.5625,16.625,613.1875,-0.0609130859375,0.768310546875,0.21771240234375,0.0144,4.375,25.6875,-58.0,2.56,-1.84,Walking,7
4.81,4.729087486,26,3,3,3,0,-1512.0,2.35,-4.63,-5.85,-0.23,-2.75,-0.71,20.0,15.3125,611.5,-0.06048583984375,0.76934814453125,0.21868896484375,0.0144,4.375,25.6875,-57.9375,2.59,-1.87,Walking,7
4.82,4.758641523,26,3,3,3,0,-1503.0,5.42,-2.38,-5.78,2.81,-0.45,0.82,31.9375,14.75,609.0,-0.05987548828125,0.77117919921875,0.21893310546875,0.0144,4.375,25.6875,-57.8125,2.61,-1.92,Walking,7
4.83,4.758641523,26,3,3,3,0,-1300.0,6.35,-1.21,-3.77,3.72,0.81,2.99,53.4375,17.25,605.125,-0.0587158203125,0.7744140625,0.21826171875,0.0144,4.375,25.6875,-57.625,2.63,-2.02,Walking,7
4.84,4.773890912,26,3,3,3,0,-1122.0,6.6,-0.34,-2.03,3.93,1.78,4.07,63.1875,22.125,600.4375,-0.05712890625,0.77825927734375,0.21734619140625,0.0144,4.375,25.6875,-57.4375,2.66,-2.13,Walking,7
4.85,4.773890912,26,3,3,3,0,-1092.0,6.44,0.32,-1.75,3.75,2.54,3.31,49.375,24.375,596.625,-0.05535888671875,0.78131103515625,0.21697998046875,0.0148,3.6875,25.25,-57.25,2.69,-2.22,Walking,7
4.86,4.804279218,26,3,3,3,0,-1191.0,5.34,1.02,-2.77,2.62,3.29,2.19,21.1875,23.25,594.75,-0.053466796875,0.78271484375,0.21710205078125,0.0148,3.6875,25.25,-57.125,2.72,-2.26,Walking,7
4.87,4.804279218,26,3,3,3,0,-1213.0,4.78,1.35,-2.99,2.03,3.61,2.29,-5.75,21.5625,594.8125,-0.0511474609375,0.78277587890625,0.21722412109375,0.0148,3.6875,25.25,-57.0625,2.75,-2.26,Walking,7
4.88,4.820027184,26,3,3,3,0,-1241.0,4.69,1.85,-3.27,1.91,4.09,3.35,-19.5625,21.4375,595.875,-0.04827880859375,0.78228759765625,0.21697998046875,0.0148,3.6875,25.25,-57.0625,2.77,-2.24,Walking,7
4.89,4.820027184,26,3,3,3,0,-1192.0,5.1,2.27,-2.79,2.3,4.49,4.34,-20.0,20.5,597.0,-0.04510498046875,0.7818603515625,0.21624755859375,0.0148,3.6875,25.25,-57.0625,2.8,-2.22,Walking,7
4.9,4.848760663,26,3,3,3,0,-1131.0,5.08,1.95,-2.18,2.26,4.16,4.77,-16.3125,19.1875,597.9375,-0.04193115234375,0.7816162109375,0.21527099609375,0.0151,3.6875,25.6875,-57.0,2.81,-2.21,Walking,7
4.91,4.848760663,26,3,3,3,0,-1092.0,4.84,1.37,-1.79,2.0,3.56,4.19,-17.4375,19.1875,598.875,-0.03900146484375,0.78131103515625,0.21453857421875,0.0151,3.6875,25.6875,-57.0,2.84,-2.19,Walking,7
4.92,4.85426754,26,3,3,3,0,-1056.0,4.46,0.33,-1.44,1.59,2.51,2.65,-19.8125,18.875,600.0,-0.03643798828125,0.7806396484375,0.2144775390625,0.0151,3.6875,25.6875,-57.0,2.86,-2.17,Walking,7
4.93,4.85426754,26,3,3,3,0,-1056.0,4.46,0.33,-1.44,1.59,2.51,2.65,-19.8125,18.875,600.0,-0.03643798828125,0.7806396484375,0.2144775390625,0.0151,3.6875,25.6875,-57.0,2.86,-2.17,Walking,7
4.93,4.86406824,26,3,3,3,0,-1061.0,2.84,-1.62,-1.49,-0.04,0.51,1.46,-19.875,16.0625,601.125,-0.0345458984375,0.77978515625,0.2147216796875,0.0151,3.6875,25.6875,-57.0,2.88,-2.14,Walking,7
4.94,4.86406824,26,3,3,3,0,-1050.0,2.13,-2.13,-1.38,-0.76,-0.01,1.63,-18.5625,11.0,602.25,-0.03289794921875,0.779052734375,0.21466064453125,0.0151,3.6875,25.6875,-57.0,2.9,-2.11,Walking,7
4.95,4.893965742,26,3,3,3,0,-986.0,2.2,-2.06,-0.73,-0.7,0.03,3.49,-15.1875,6.3125,603.25,-0.03106689453125,0.7786865234375,0.21356201171875,0.014,3.375,24.875,-57.0,2.9,-2.1,Walking,7
4.96,4.893965742,26,3,3,3,0,-951.0,2.26,-1.55,-0.38,-0.63,0.54,5.27,-14.0,3.25,604.3125,-0.02886962890625,0.778564453125,0.2115478515625,0.014,3.375,24.875,-57.0625,2.89,-2.09,Walking,7
4.97,4.909016889,26,3,3,3,0,-886.0,1.68,-1.28,0.27,-1.19,0.8,5.74,-17.5,1.0625,605.5625,-0.026611328125,0.7783203125,0.209228515625,0.014,3.375,24.875,-57.0625,2.88,-2.08,Walking,7
4.98,4.909016889,26,3,3,3,0,-826.0,1.39,-1.45,0.87,-1.47,0.61,5.38,-21.125,-1.0,607.1875,-0.0245361328125,0.77777099609375,0.20697021484375,0.014,3.375,24.875,-57.125,2.87,-2.07,Walking,7
4.99,4.938840131,26,3,3,3,0,-766.0,1.1,-1.66,1.49,-1.74,0.38,4.33,-21.0,-4.1875,608.8125,-0.0230712890625,0.77716064453125,0.2049560546875,0.014,3.375,24.875,-57.1875,2.85,-2.05,Walking,7
5.0,4.938840131,26,3,3,3,0,-715.0,0.93,-1.69,2.0,-1.9,0.33,3.02,-17.5,-7.5,610.1875,-0.02227783203125,0.77655029296875,0.20330810546875,0.0148,3.6875,23.6875,-57.25,2.83,-2.03,Walking,7
5.01,4.94375338,26,3,3,3,0,-635.0,0.82,-1.15,2.82,-1.99,0.86,1.69,-12.25,-10.5625,611.3125,-0.022216796875,0.77606201171875,0.20208740234375,0.0148,3.6875,23.6875,-57.3125,2.81,-2.01,Walking,7
5.02,4.94375338,26,3,3,3,0,-599.0,0.8,-0.76,3.18,-1.98,1.24,0.37,-7.625,-13.1875,612.125,-0.02288818359375,0.77569580078125,0.2012939453125,0.0148,3.6875,23.6875,-57.375,2.79,-2.0,Walking,7
5.03,4.970200768,26,3,3,3,0,-566.0,0.76,-0.53,3.53,-2.0,1.45,-0.69,-4.9375,-14.9375,612.75,-0.02398681640625,0.7752685546875,0.2008056640625,0.0148,3.6875,23.6875,-57.4375,2.77,-1.99,Walking,7
5.04,4.970200768,26,3,3,3,0,-502.0,0.72,-0.27,4.17,-2.02,1.7,-1.27,-4.125,-16.875,613.3125,-0.0255126953125,0.77484130859375,0.20050048828125,0.0148,3.6875,23.6875,-57.5,2.74,-1.98,Walking,7
5.05,4.987099816,26,3,3,3,0,-484.0,0.85,-0.19,4.36,-1.86,1.77,-1.55,-4.9375,-18.5,614.0,-0.02716064453125,0.77435302734375,0.2001953125,0.0151,3.375,24.0625,-57.5625,2.72,-1.96,Walking,7
5.06,4.987099816,26,3,3,3,0,-466.0,1.04,-0.11,4.56,-1.64,1.83,-1.96,-6.5,-19.5,614.8125,-0.02899169921875,0.77374267578125,0.20001220703125,0.0151,3.375,24.0625,-57.625,2.69,-1.95,Walking,7
5.07,4.999115522,26,3,3,3,0,-459.0,1.24,-0.04,4.64,-1.41,1.88,-2.56,-8.25,-19.875,615.6875,-0.03106689453125,0.77294921875,0.2000732421875,0.0151,3.375,24.0625,-57.6875,2.66,-1.93,Walking,7
5.08,4.999115522,26,3,3,3,0,-475.0,1.66,-0.03,4.49,-0.97,1.87,-3.17,-10.0,-19.875,616.6875,-0.03326416015625,0.77203369140625,0.20037841796875,0.0151,3.375,24.0625,-57.8125,2.64,-1.9,Walking,7
5.09,5.030078168,26,3,3,3,0,-484.0,1.82,-0.14,4.42,-0.79,1.73,-3.67,-10.4375,-19.875,617.75,-0.03564453125,0.77099609375,0.200927734375,0.0151,3.375,24.0625,-57.875,2.61,-1.87,Walking,7
5.1,5.030078168,26,3,3,3,0,-509.0,1.99,-0.34,4.17,-0.59,1.5,-4.12,-10.4375,-19.8125,618.75,-0.03814697265625,0.7698974609375,0.20166015625,0.0145,3.0,24.875,-57.9375,2.59,-1.84,Walking,7
5.11,5.045318728,26,3,3,3,0,-548.0,2.23,-0.57,3.8,-0.33,1.23,-4.46,-11.6875,-19.875,619.875,-0.040771484375,0.7686767578125,0.2025146484375,0.0145,3.0,24.875,-58.0,2.56,-1.81,Walking,7
5.12,5.045318728,26,3,3,3,0,-623.0,2.59,-1.36,3.06,0.05,0.42,-5.0,-12.8125,-19.9375,621.0,-0.04351806640625,0.76739501953125,0.20361328125,0.0145,3.0,24.875,-58.125,2.54,-1.78,Walking,7
5.13,5.058739871,26,3,3,3,0,-663.0,2.69,-1.72,2.67,0.16,0.01,-5.71,-12.5,-19.6875,622.125,-0.0465087890625,0.7659912109375,0.20501708984375,0.0145,3.0,24.875,-58.1875,2.52,-1.74,Walking,7
5.14,5.058739871,26,3,3,3,0,-697.0,2.75,-2.13,2.34,0.24,-0.42,-5.98,-11.75,-19.75,623.125,-0.049560546875,0.76458740234375,0.20654296875,0.0145,3.0,24.875,-58.25,2.5,-1.7,Walking,7
5.15,5.089729617,26,3,3,3,0,-726.0,2.76,-2.5,2.07,0.28,-0.83,-5.85,-10.375,-19.375,624.0625,-0.0526123046875,0.76324462890625,0.2080078125,0.0149,3.0,24.5,-58.3125,2.48,-1.67,Walking,7
5.16,5.089729617,26,3,3,3,0,-749.0,3.01,-2.98,1.85,0.54,-1.34,-5.46,-9.5625,-18.25,624.875,-0.05548095703125,0.76202392578125,0.2093505859375,0.0149,3.0,24.5,-58.375,2.46,-1.64,Walking,7
5.17,5.10408179,26,3,3,3,0,-762.0,3.3,-3.09,1.72,0.85,-1.48,-5.14,-9.0625,-16.375,625.6875,-0.05810546875,0.7608642578125,0.21063232421875,0.0149,3.0,24.5,-58.4375,2.44,-1.61,Walking,7
5.18,5.10408179,26,3,3,3,0,-762.0,3.3,-3.09,1.72,0.85,-1.48,-5.14,-9.0625,-16.375,625.6875,-0.05810546875,0.7608642578125,0.21063232421875,0.0149,3.0,24.5,-58.4375,2.44,-1.61,Walking,7
5.19,5.118960249,26,3,3,3,0,-771.0,3.57,-3.12,1.65,1.14,-1.53,-4.85,-9.9375,-15.1875,626.5,-0.060546875,0.75970458984375,0.2119140625,0.0149,3.0,24.5,-58.5,2.43,-1.58,Walking,7
5.19,5.118960249,26,3,3,3,0,-786.0,3.82,-3.17,1.5,1.41,-1.61,-4.49,-11.75,-14.375,627.4375,-0.06280517578125,0.7584228515625,0.21307373046875,0.0149,3.0,24.5,-58.5625,2.41,-1.55,Walking,7
5.2,5.134733808,26,3,3,3,0,-833.0,4.1,-3.24,1.05,1.7,-1.72,-3.84,-13.5625,-14.0,628.5,-0.06475830078125,0.75714111328125,0.2139892578125,0.0155,3.25,24.0625,-58.625,2.39,-1.52,Walking,7
5.21,5.134733808,26,3,3,3,0,-874.0,4.23,-3.37,0.65,1.85,-1.88,-2.76,-15.375,-13.5,629.6875,-0.0662841796875,0.75592041015625,0.2144775390625,0.0155,3.25,24.0625,-58.6875,2.38,-1.48,Walking,7
5.22,5.14846208,26,3,3,3,0,-927.0,4.13,-3.62,0.12,1.77,-2.16,-1.28,-16.375,-12.8125,631.0,-0.0672607421875,0.75482177734375,0.21441650390625,0.0155,3.25,24.0625,-58.75,2.36,-1.45,Walking,7
5.23,5.14846208,26,3,3,3,0,-1048.0,3.25,-4.21,-1.06,0.91,-2.78,0.66,-15.0,-11.8125,632.3125,-0.0675048828125,0.7540283203125,0.213623046875,0.0155,3.25,24.0625,-58.8125,2.34,-1.43,Walking,7
5.24,5.178601972,26,3,3,3,0,-1122.0,2.65,-4.32,-1.79,0.33,-2.9,2.92,-8.375,-12.3125,633.1875,-0.06719970703125,0.75384521484375,0.21185302734375,0.0155,3.25,24.0625,-58.875,2.31,-1.42,Walking,7
5.25,5.178601972,26,3,3,3,0,-1184.0,2.27,-4.16,-2.41,0.0,-2.72,5.02,2.625,-15.5,633.5,-0.0665283203125,0.75445556640625,0.20892333984375,0.0152,3.375,23.6875,-58.875,2.28,-1.44,Walking,7
5.26,5.209931684,26,3,3,3,0,-1228.0,2.39,-3.7,-2.85,0.15,-2.22,6.29,12.1875,-20.1875,633.3125,-0.06597900390625,0.75567626953125,0.2052001953125,0.0152,3.375,23.6875,-58.9375,2.24,-1.47,Walking,7
5.27,5.209931684,26,3,3,3,0,-1261.0,3.4,-2.82,-3.18,1.21,-1.3,6.29,15.375,-23.75,632.9375,-0.065673828125,0.757080078125,0.20123291015625,0.0152,3.375,23.6875,-58.9375,2.19,-1.51,Walking,7
5.28,5.215730675,26,3,3,3,0,-1259.0,3.89,-2.88,-3.15,1.75,-1.33,5.56,9.375,-24.1875,632.9375,-0.0655517578125,0.758056640625,0.19757080078125,0.0152,3.375,23.6875,-59.0,2.14,-1.54,Walking,7
5.29,5.215730675,26,3,3,3,0,-1266.0,4.15,-3.34,-3.21,2.05,-1.78,4.89,-0.5,-21.3125,633.4375,-0.0653076171875,0.75848388671875,0.19439697265625,0.0152,3.375,23.6875,-59.0625,2.09,-1.55,Walking,7
5.3,5.240176639,26,3,3,3,0,-1340.0,4.15,-3.77,-3.94,2.09,-2.21,4.56,-5.1875,-17.0625,634.25,-0.0648193359375,0.758544921875,0.191650390625,0.0145,2.1875,21.75,-59.0625,2.06,-1.56,Walking,7
5.31,5.240176639,26,3,3,3,0,-1582.0,3.15,-2.55,-6.35,1.12,-0.97,4.91,2.8125,-14.125,634.5,-0.06414794921875,0.7591552734375,0.1888427734375,0.0145,2.1875,21.75,-59.125,2.03,-1.57,Walking,7
5.33,5.254120568,26,3,3,3,0,-1600.0,2.36,-1.39,-6.54,0.36,0.22,5.79,23.0,-14.25,633.375,-0.0634765625,0.76092529296875,0.185546875,0.0145,2.1875,21.75,-59.125,1.99,-1.62,Walking,7
5.33,5.254120568,26,3,3,3,0,-1529.0,1.52,-0.54,-5.83,-0.42,1.15,5.99,39.375,-17.125,631.1875,-0.063232421875,0.7635498046875,0.181884765625,0.0145,2.1875,21.75,-59.0625,1.95,-1.7,Walking,7
5.34,5.284430545,26,3,3,3,0,-1482.0,1.04,0.15,-5.37,-0.87,1.93,5.18,37.625,-19.0,629.0625,-0.0633544921875,0.7659912109375,0.17852783203125,0.0145,2.1875,21.75,-59.0625,1.91,-1.77,Walking,7
5.35,5.284430545,26,3,3,3,0,-1404.0,1.53,1.19,-4.59,-0.34,3.01,4.4,21.125,-18.875,628.125,-0.0634765625,0.76739501953125,0.175537109375,0.0139,3.375,23.6875,-59.0625,1.87,-1.82,Walking,7
5.36,5.298506188,26,3,3,3,0,-1365.0,1.81,1.46,-4.19,-0.03,3.29,3.61,-0.75,-17.0,628.5625,-0.0633544921875,0.76763916015625,0.17315673828125,0.0139,3.375,23.6875,-59.0625,1.84,-1.82,Walking,7
5.38,5.298506188,26,3,3,3,0,-1340.0,1.94,1.71,-3.93,0.13,3.52,2.67,-16.9375,-13.4375,630.0,-0.0631103515625,0.76690673828125,0.17138671875,0.0139,3.375,23.6875,-59.125,1.81,-1.8,Walking,7
5.38,5.313774661,26,3,3,3,0,-1284.0,1.72,1.89,-3.36,-0.07,3.67,1.79,-16.5,-9.5,631.375,-0.06292724609375,0.76611328125,0.17022705078125,0.0139,3.375,23.6875,-59.1875,1.79,-1.78,Walking,7
5.4,5.313774661,26,3,3,3,0,-1211.0,1.16,1.68,-2.63,-0.61,3.46,1.11,-3.25,-5.9375,631.75,-0.0628662109375,0.7659912109375,0.16949462890625,0.0139,3.375,23.6875,-59.1875,1.78,-1.77,Walking,7
5.41,5.344193159,26,3,3,3,0,-1142.0,0.39,1.35,-1.95,-1.37,3.16,0.59,13.0625,-5.375,630.9375,-0.063232421875,0.76666259765625,0.16888427734375,0.0131,3.375,22.1875,-59.1875,1.77,-1.8,Walking,7
5.41,5.344193159,26,3,3,3,0,-1090.0,-0.4,1.07,-1.43,-2.16,2.91,0.16,24.6875,-7.3125,629.375,-0.06402587890625,0.76800537109375,0.16827392578125,0.0131,3.375,22.1875,-59.125,1.76,-1.84,Walking,7
5.42,5.405876549,26,3,3,3,0,-1088.0,-0.32,0.71,-1.42,-2.07,2.6,-0.38,25.9375,-8.5625,627.75,-0.06512451171875,0.769287109375,0.1678466796875,0.0131,3.375,22.1875,-59.125,1.74,-1.88,Walking,7
5.43,5.405876549,26,3,3,3,0,-1074.0,0.64,0.65,-1.28,-1.09,2.56,-1.65,17.875,-8.0,626.625,-0.06646728515625,0.77001953125,0.16796875,0.0131,3.375,22.1875,-59.125,1.73,-1.9,Walking,7
5.44,5.411733401,26,3,3,3,0,-1074.0,0.64,0.65,-1.28,-1.09,2.56,-1.65,17.875,-8.0,626.625,-0.06646728515625,0.77001953125,0.16796875,0.0131,3.375,22.1875,-59.125,1.73,-1.9,Walking,7
5.45,5.411733401,26,3,3,3,0,-1039.0,1.4,0.51,-0.93,-0.33,2.42,-3.79,8.875,-7.3125,626.0,-0.068359375,0.77008056640625,0.16912841796875,0.0131,3.375,22.1875,-59.0625,1.73,-1.91,Walking,7
5.46,5.417303348,26,3,3,3,0,-997.0,1.94,0.13,-0.5,0.2,2.04,-5.88,3.0625,-6.375,625.6875,-0.07080078125,0.7696533203125,0.1712646484375,0.0145,3.6875,23.0,-59.125,1.73,-1.9,Walking,7
5.47,5.417303348,26,3,3,3,0,-910.0,2.38,-1.05,0.35,0.64,0.84,-7.19,0.75,-4.875,625.4375,-0.07354736328125,0.7689208984375,0.17401123046875,0.0145,3.6875,23.0,-59.125,1.74,-1.89,Walking,7
5.48,5.422457238,26,3,3,3,0,-862.0,2.4,-1.59,0.83,0.65,0.28,-8.07,-1.8125,-2.75,625.3125,-0.07635498046875,0.76800537109375,0.17724609375,0.0145,3.6875,23.0,-59.125,1.75,-1.87,Walking,7
5.49,5.422457238,26,3,3,3,0,-829.0,2.34,-1.79,1.17,0.57,0.05,-8.7,-3.375,-0.8125,625.1875,-0.07928466796875,0.7669677734375,0.18084716796875,0.0145,3.6875,23.0,-59.125,1.77,-1.85,Walking,7
5.49,5.433568525,26,3,3,3,0,-785.0,2.29,-1.76,1.6,0.5,0.06,-8.59,-4.8125,0.9375,625.125,-0.08197021484375,0.765869140625,0.1845703125,0.0145,3.6875,23.0,-59.125,1.79,-1.82,Walking,7
5.5,5.433568525,26,3,3,3,0,-708.0,2.26,-1.37,2.37,0.45,0.42,-8.02,-6.4375,3.125,625.1875,-0.0843505859375,0.76470947265625,0.1881103515625,0.0148,3.0,22.5,-59.125,1.81,-1.8,Walking,7
5.51,5.44871444,26,3,3,3,0,-666.0,2.25,-1.25,2.8,0.42,0.52,-7.29,-7.25,4.625,625.3125,-0.08636474609375,0.7635498046875,0.19146728515625,0.0148,3.0,22.5,-59.125,1.83,-1.77,Walking,7
5.52,5.44871444,26,3,3,3,0,-624.0,2.25,-1.14,3.22,0.4,0.6,-6.48,-9.75,6.75,625.5625,-0.087890625,0.76239013671875,0.194580078125,0.0148,3.0,22.5,-59.125,1.85,-1.74,Walking,7
5.53,5.463654829,26,3,3,3,0,-533.0,2.23,-0.97,4.13,0.35,0.73,-5.7,-11.9375,9.6875,625.9375,-0.08892822265625,0.76116943359375,0.19757080078125,0.0148,3.0,22.5,-59.1875,1.88,-1.71,Walking,7
5.54,5.463654829,26,3,3,3,0,-499.0,2.06,-1.0,4.47,0.14,0.67,-4.93,-11.875,13.3125,626.25,-0.0894775390625,0.7601318359375,0.200439453125,0.0148,3.0,22.5,-59.125,1.91,-1.68,Walking,7
5.56,5.493655683,26,3,3,3,0,-468.0,1.91,-0.99,4.78,-0.03,0.66,-3.84,-9.5,16.625,626.4375,-0.08953857421875,0.75927734375,0.2030029296875,0.0158,2.5625,23.6875,-59.125,1.94,-1.65,Walking,7
5.57,5.493655683,26,3,3,3,0,-455.0,1.82,-0.79,4.9,-0.16,0.84,-2.48,-5.75,20.375,626.375,-0.0888671875,0.75885009765625,0.2052001953125,0.0158,2.5625,23.6875,-59.125,1.98,-1.64,Walking,7
5.58,5.52665312,26,3,3,3,0,-453.0,1.63,-0.22,4.92,-0.38,1.41,-1.48,-2.75,23.625,626.0625,-0.0877685546875,0.7586669921875,0.20709228515625,0.0158,2.5625,23.6875,-59.0625,2.02,-1.63,Walking,7
5.58,5.52665312,26,3,3,3,0,-458.0,1.49,0.0,4.86,-0.57,1.62,-0.99,-3.375,25.8125,625.8125,-0.0863037109375,0.758544921875,0.20892333984375,0.0158,2.5625,23.6875,-59.0,2.07,-1.62,Walking,7
5.59,5.530530683,26,3,3,3,0,-471.0,1.43,0.11,4.72,-0.68,1.72,-0.6,-8.625,27.0,625.875,-0.08453369140625,0.75823974609375,0.210693359375,0.0158,2.5625,23.6875,-58.9375,2.11,-1.6,Walking,7
5.6,5.530530683,26,3,3,3,0,-489.0,1.35,0.04,4.54,-0.8,1.62,-0.27,-18.0625,27.0625,626.5625,-0.08251953125,0.75738525390625,0.21240234375,0.0155,3.375,24.5,-58.9375,2.16,-1.57,Walking,7
5.61,5.571230187,26,3,3,3,0,-532.0,0.79,-0.63,4.1,-1.41,0.89,0.17,-28.3125,25.5,628.0625,-0.08026123046875,0.75604248046875,0.2138671875,0.0155,3.375,24.5,-58.9375,2.2,-1.53,Walking,7
5.62,5.571230187,26,3,3,3,0,-560.0,0.77,-1.0,3.82,-1.46,0.47,1.1,-34.375,23.4375,630.0,-0.07769775390625,0.7545166015625,0.21490478515625,0.0155,3.375,24.5,-58.9375,2.24,-1.47,Walking,7
5.64,5.576823815,26,3,3,3,0,-602.0,0.85,-1.25,3.4,-1.42,0.16,1.98,-33.875,21.1875,631.9375,-0.07501220703125,0.7530517578125,0.21551513671875,0.0155,3.375,24.5,-58.9375,2.27,-1.42,Walking,7
5.65,5.576823815,26,3,3,3,0,-654.0,0.87,-1.47,2.88,-1.42,-0.09,2.39,-29.25,19.75,633.6875,-0.07232666015625,0.7518310546875,0.21575927734375,0.0155,3.375,24.5,-58.9375,2.3,-1.38,Walking,7
5.66,5.58485889,26,3,3,3,0,-777.0,0.9,-1.45,1.65,-1.42,-0.1,2.67,-23.0625,18.875,635.0,-0.06976318359375,0.75103759765625,0.2158203125,0.0155,2.5625,24.875,-58.875,2.33,-1.35,Walking,7
5.66,5.58485889,26,3,3,3,0,-844.0,0.91,-1.57,0.97,-1.44,-0.24,2.56,-17.8125,17.0625,635.9375,-0.06744384765625,0.75042724609375,0.2158203125,0.0155,2.5625,24.875,-58.875,2.35,-1.32,Walking,7
5.67,5.629636071,26,3,3,3,0,-906.0,0.96,-1.8,0.36,-1.4,-0.49,2.13,-14.4375,14.9375,636.75,-0.0654296875,0.75,0.21588134765625,0.0155,2.5625,24.875,-58.875,2.37,-1.3,Walking,7
5.68,5.629636071,26,3,3,3,0,-946.0,0.98,-2.15,-0.04,-1.4,-0.86,1.72,-12.0,12.375,637.375,-0.0638427734375,0.74957275390625,0.21588134765625,0.0155,2.5625,24.875,-58.875,2.39,-1.29,Walking,7
5.69,5.634667687,26,3,3,3,0,-998.0,1.08,-2.97,-0.56,-1.32,-1.69,1.32,-10.6875,10.0625,638.0,-0.0625,0.74920654296875,0.2159423828125,0.0155,2.5625,24.875,-58.8125,2.4,-1.27,Walking,7
5.7,5.634667687,26,3,3,3,0,-998.0,1.08,-2.97,-0.56,-1.32,-1.69,1.32,-10.6875,10.0625,638.0,-0.0625,0.74920654296875,0.2159423828125,0.0155,2.5625,24.875,-58.8125,2.4,-1.27,Walking,7
5.71,5.63943791,26,3,3,3,0,-1021.0,1.22,-3.11,-0.8,-1.19,-1.85,0.92,-10.1875,8.0625,638.5625,-0.06146240234375,0.748779296875,0.216064453125,0.0158,2.1875,24.0625,-58.8125,2.42,-1.26,Walking,7
5.72,5.63943791,26,3,3,3,0,-1052.0,1.43,-3.0,-1.1,-0.99,-1.74,0.56,-7.6875,6.3125,639.0,-0.06072998046875,0.74847412109375,0.21624755859375,0.0158,2.1875,24.0625,-58.8125,2.43,-1.25,Walking,7
5.73,5.660024702,26,3,3,3,0,-1156.0,2.1,-2.71,-2.14,-0.32,-1.46,0.44,-4.0625,4.875,639.1875,-0.0601806640625,0.748291015625,0.21636962890625,0.0158,2.1875,24.0625,-58.8125,2.43,-1.24,Walking,7
5.74,5.660024702,26,3,3,3,0,-1217.0,2.39,-2.83,-2.75,-0.04,-1.58,0.55,-0.8125,5.0,639.1875,-0.05963134765625,0.74835205078125,0.21636962890625,0.0158,2.1875,24.0625,-58.8125,2.44,-1.24,Walking,7
5.74,5.673576419,26,3,3,3,0,-1288.0,2.57,-3.19,-3.47,0.12,-1.94,0.62,2.4375,6.1875,638.9375,-0.05908203125,0.74853515625,0.2164306640625,0.0158,2.1875,24.0625,-58.8125,2.45,-1.25,Walking,7
5.75,5.673576419,26,3,3,3,0,-1353.0,2.73,-3.73,-4.13,0.26,-2.47,0.69,4.9375,8.3125,638.4375,-0.05841064453125,0.74896240234375,0.21661376953125,0.0168,1.875,24.0625,-58.75,2.46,-1.26,Walking,7
5.76,5.722317793,26,3,3,3,0,-1434.0,2.9,-5.18,-4.94,0.42,-3.9,0.69,6.25,10.875,637.875,-0.05755615234375,0.74945068359375,0.21685791015625,0.0168,1.875,24.0625,-58.75,2.48,-1.27,Walking,7
5.78,5.722317793,26,3,3,3,0,-1448.0,2.91,-5.58,-5.09,0.4,-4.3,0.36,6.625,14.3125,637.125,-0.056640625,0.7498779296875,0.21746826171875,0.0168,1.875,24.0625,-58.6875,2.5,-1.28,Walking,7
5.78,5.729783695,26,3,3,3,0,-1459.0,2.71,-5.51,-5.21,0.17,-4.21,-0.29,8.4375,16.5625,636.25,-0.05584716796875,0.75042724609375,0.21844482421875,0.0168,1.875,24.0625,-58.625,2.53,-1.29,Walking,7
5.8,5.729783695,26,3,3,3,0,-1449.0,2.35,-5.22,-5.12,-0.21,-3.9,-0.78,13.0,17.4375,635.0,-0.05517578125,0.7510986328125,0.21966552734375,0.0168,1.875,24.0625,-58.5625,2.56,-1.31,Walking,7
5.81,5.736411665,26,3,3,3,0,-1514.0,2.83,-3.94,-5.78,0.24,-2.59,-1.02,20.8125,17.875,633.25,-0.0548095703125,0.752197265625,0.22088623046875,0.0162,2.1875,23.6875,-58.5,2.59,-1.34,Walking,7
5.82,5.736411665,26,3,3,3,0,-1540.0,3.75,-2.41,-6.05,1.12,-1.0,-0.43,35.875,17.6875,630.4375,-0.054443359375,0.754150390625,0.22186279296875,0.0162,2.1875,23.6875,-58.375,2.62,-1.4,Walking,7
5.83,5.764952396,26,3,3,3,0,-1454.0,4.54,-1.1,-5.22,1.89,0.4,1.75,58.5,18.3125,626.1875,-0.0538330078125,0.757568359375,0.2218017578125,0.0162,2.1875,23.6875,-58.25,2.65,-1.5,Walking,7
5.83,5.764952396,26,3,3,3,0,-1282.0,4.88,-0.54,-3.53,2.2,1.08,3.48,67.125,21.125,621.3125,-0.05255126953125,0.76165771484375,0.22119140625,0.0162,2.1875,23.6875,-58.0625,2.67,-1.62,Walking,7
5.84,5.77917436,26,3,3,3,0,-1046.0,3.98,0.1,-1.2,1.27,1.82,2.37,56.125,21.8125,617.125,-0.0513916015625,0.7650146484375,0.2210693359375,0.0162,2.1875,23.6875,-57.875,2.7,-1.72,Walking,7
5.86,5.77917436,26,3,3,3,0,-1066.0,4.02,1.09,-1.42,1.28,2.88,0.32,40.1875,19.25,614.0,-0.05078125,0.76727294921875,0.2218017578125,0.0166,2.1875,26.0,-57.75,2.73,-1.78,Walking,7
5.87,5.793784997,26,3,3,3,0,-1097.0,4.47,2.12,-1.74,1.7,3.95,-0.73,23.6875,16.9375,612.0625,-0.05035400390625,0.76849365234375,0.22283935546875,0.0166,2.1875,26.0,-57.625,2.76,-1.82,Walking,7
5.88,5.793784997,26,3,3,3,0,-1121.0,4.75,3.27,-1.99,1.96,5.11,-1.14,9.0625,13.4375,611.125,-0.050048828125,0.76885986328125,0.2239990234375,0.0166,2.1875,26.0,-57.5625,2.79,-1.83,Walking,7
5.89,5.824834964,26,3,3,3,0,-1123.0,4.9,3.37,-2.02,2.09,5.21,-0.81,2.0,9.5625,610.75,-0.0496826171875,0.7689208984375,0.224853515625,0.0166,2.1875,26.0,-57.5625,2.8,-1.83,Walking,7
5.9,5.824834964,26,3,3,3,0,-1120.0,5.18,3.39,-1.98,2.36,5.23,-0.05,-0.9375,6.0625,610.75,-0.04925537109375,0.76885986328125,0.22515869140625,0.0166,2.1875,26.0,-57.5625,2.81,-1.83,Walking,7
5.91,5.854801842,26,3,3,3,0,-1093.0,5.54,3.19,-1.72,2.72,5.02,0.75,-4.0,3.6875,611.0,-0.0487060546875,0.76873779296875,0.22503662109375,0.0166,1.875,26.875,-57.5625,2.82,-1.83,Walking,7
5.91,5.854801842,26,3,3,3,0,-952.0,5.47,1.92,-0.3,2.64,3.75,1.35,-4.4375,2.8125,611.25,-0.0479736328125,0.7686767578125,0.22467041015625,0.0166,1.875,26.875,-57.5625,2.82,-1.82,Walking,7
5.92,5.860973351,26,3,3,3,0,-937.0,4.79,0.66,-0.16,1.96,2.48,1.15,-4.125,3.1875,611.5625,-0.04730224609375,0.76861572265625,0.224365234375,0.0166,1.875,26.875,-57.5625,2.82,-1.82,Walking,7
5.93,5.860973351,26,3,3,3,0,-943.0,3.89,-0.64,-0.22,1.06,1.16,0.61,-7.5625,3.8125,612.0625,-0.04669189453125,0.768310546875,0.224365234375,0.0166,1.875,26.875,-57.5625,2.83,-1.81,Walking,7
5.95,5.889198367,26,3,3,3,0,-963.0,3.32,-1.47,-0.41,0.49,0.31,1.37,-12.8125,2.6875,612.9375,-0.0457763671875,0.76776123046875,0.2239990234375,0.0166,1.875,26.875,-57.5625,2.83,-1.79,Walking,7
5.96,5.889198367,26,3,3,3,0,-889.0,3.07,-2.03,0.32,0.24,-0.24,3.42,-15.875,0.5625,614.125,-0.0443115234375,0.767333984375,0.22265625,0.0158,2.1875,27.1875,-57.5625,2.82,-1.78,Walking,7
5.96,5.898931603,26,3,3,3,0,-889.0,3.07,-2.03,0.32,0.24,-0.24,3.42,-15.875,0.5625,614.125,-0.0443115234375,0.767333984375,0.22265625,0.0158,2.1875,27.1875,-57.5625,2.82,-1.78,Walking,7
5.97,5.898931603,26,3,3,3,0,-853.0,2.99,-1.78,0.68,0.17,-0.01,5.46,-13.625,-0.75,615.1875,-0.04229736328125,0.76727294921875,0.22039794921875,0.0158,2.1875,27.1875,-57.625,2.81,-1.77,Walking,7
5.98,5.913211836,26,3,3,3,0,-821.0,2.69,-1.58,1.0,-0.11,0.19,6.29,-9.75,-1.25,616.0625,-0.0401611328125,0.7674560546875,0.21771240234375,0.0158,2.1875,27.1875,-57.625,2.8,-1.77,Walking,7
5.99,5.913211836,26,3,3,3,0,-788.0,2.27,-1.55,1.34,-0.51,0.23,6.26,-7.0625,-1.6875,616.75,-0.0380859375,0.767822265625,0.21502685546875,0.0158,2.1875,27.1875,-57.6875,2.78,-1.78,Walking,7
5.99,5.928696455,26,3,3,3,0,-727.0,1.41,-1.7,1.95,-1.35,0.08,5.98,-6.625,-3.25,617.4375,-0.03619384765625,0.76812744140625,0.21240234375,0.0158,2.1875,27.1875,-57.6875,2.77,-1.79,Walking,7
6.0,5.928696455,26,3,3,3,0,-700.0,1.11,-1.61,2.23,-1.63,0.18,5.68,-7.125,-6.0625,618.125,-0.03460693359375,0.76837158203125,0.209716796875,0.0166,2.5625,27.5625,-57.6875,2.75,-1.79,Walking,7
6.01,5.943750003,26,3,3,3,0,-674.0,0.95,-1.4,2.49,-1.76,0.39,5.43,-8.0625,-9.8125,619.0,-0.0333251953125,0.76849365234375,0.20697021484375,0.0166,2.5625,27.5625,-57.75,2.72,-1.79,Walking,7
6.03,5.943750003,26,3,3,3,0,-652.0,0.95,-1.11,2.72,-1.73,0.68,5.37,-7.6875,-13.375,619.9375,-0.03228759765625,0.7686767578125,0.20404052734375,0.0166,2.5625,27.5625,-57.8125,2.69,-1.8,Walking,7
6.04,5.974060835,26,3,3,3,0,-596.0,1.08,-0.57,3.29,-1.57,1.22,5.41,-5.5,-16.875,620.6875,-0.03155517578125,0.7689208984375,0.200927734375,0.0166,2.5625,27.5625,-57.875,2.65,-1.8,Walking,7
6.05,5.974060835,26,3,3,3,0,-563.0,1.2,-0.37,3.64,-1.4,1.44,5.38,-2.1875,-19.25,621.3125,-0.03106689453125,0.769287109375,0.1976318359375,0.0166,2.5625,27.5625,-57.9375,2.61,-1.81,Walking,7
6.06,5.988946211,26,3,3,3,0,-542.0,1.24,-0.25,3.86,-1.32,1.57,5.31,0.1875,-20.875,621.8125,-0.03070068359375,0.769775390625,0.1943359375,0.0166,2.5625,28.0,-58.0,2.56,-1.83,Walking,7
6.07,5.988946211,26,3,3,3,0,-490.0,1.35,-0.24,4.38,-1.16,1.6,5.2,-0.4375,-22.0,622.3125,-0.03045654296875,0.770263671875,0.19097900390625,0.0166,2.5625,28.0,-58.0625,2.52,-1.84,Walking,7
6.08,6.003809045,26,3,3,3,0,-473.0,1.57,-0.29,4.57,-0.89,1.56,4.7,-2.625,-22.1875,622.9375,-0.03033447265625,0.7705078125,0.18780517578125,0.0166,2.5625,28.0,-58.125,2.47,-1.85,Walking,7
6.08,6.003809045,26,3,3,3,0,-443.0,1.79,-0.25,4.88,-0.64,1.59,3.44,-5.5625,-20.75,623.75,-0.03045654296875,0.7705078125,0.185302734375,0.0166,2.5625,28.0,-58.1875,2.43,-1.85,Walking,7
6.1,6.033696943,26,3,3,3,0,-467.0,1.85,-0.23,4.65,-0.54,1.61,1.78,-9.5,-20.125,624.8125,-0.03106689453125,0.7701416015625,0.18353271484375,0.0166,2.5625,28.0,-58.25,2.39,-1.84,Walking,7
6.11,6.033696943,26,3,3,3,0,-564.0,2.01,-0.39,3.69,-0.34,1.42,0.19,-14.3125,-20.0625,626.125,-0.0321044921875,0.769287109375,0.182373046875,0.0167,3.0,28.0,-58.375,2.36,-1.82,Walking,7
6.12,6.048611372,26,3,3,3,0,-591.0,2.2,-0.72,3.44,-0.13,1.05,-1.18,-18.6875,-20.25,627.75,-0.0335693359375,0.76812744140625,0.181884765625,0.0167,3.0,28.0,-58.4375,2.33,-1.78,Walking,7
6.13,6.048611372,26,3,3,3,0,-608.0,2.34,-1.13,3.28,0.04,0.6,-2.22,-22.0625,-20.0,629.5625,-0.03533935546875,0.7666015625,0.18182373046875,0.0167,3.0,28.0,-58.5625,2.3,-1.74,Walking,7
6.14,6.063811893,26,3,3,3,0,-632.0,2.45,-1.51,3.06,0.17,0.17,-2.53,-25.375,-19.1875,631.5625,-0.03704833984375,0.76495361328125,0.18194580078125,0.0167,3.0,28.0,-58.625,2.28,-1.69,Walking,7
6.15,6.063811893,26,3,3,3,0,-677.0,2.73,-2.15,2.62,0.47,-0.51,-1.96,-28.4375,-18.1875,633.8125,-0.0384521484375,0.76312255859375,0.181884765625,0.0167,3.0,28.0,-58.75,2.25,-1.64,Walking,7
6.16,6.09422327,26,3,3,3,0,-712.0,2.83,-2.43,2.29,0.6,-0.84,-1.37,-31.6875,-16.0,636.1875,-0.03948974609375,0.76123046875,0.18170166015625,0.0163,2.5625,27.5625,-58.8125,2.23,-1.58,Walking,7
6.17,6.09422327,26,3,3,3,0,-746.0,2.84,-2.74,1.96,0.63,-1.21,-0.92,-34.5,-13.375,638.75,-0.0401611328125,0.7591552734375,0.18145751953125,0.0163,2.5625,27.5625,-58.9375,2.21,-1.52,Walking,7
6.18,6.109244714,26,3,3,3,0,-777.0,2.85,-3.01,1.67,0.65,-1.54,-0.55,-35.75,-10.8125,641.375,-0.04046630859375,0.75714111328125,0.1812744140625,0.0163,2.5625,27.5625,-59.0,2.19,-1.46,Walking,7
6.19,6.109244714,26,3,3,3,0,-827.0,2.74,-3.39,1.18,0.56,-1.99,-0.29,-34.75,-8.5625,643.875,-0.04058837890625,0.755126953125,0.1810302734375,0.0163,2.5625,27.5625,-59.0625,2.18,-1.4,Walking,7
6.2,6.124444502,26,3,3,3,0,-862.0,2.73,-3.55,0.84,0.56,-2.19,0.0,-31.375,-6.8125,646.0625,-0.04052734375,0.75335693359375,0.1807861328125,0.0163,2.5625,27.5625,-59.125,2.16,-1.35,Walking,7
6.21,6.124444502,26,3,3,3,0,-895.0,2.6,-3.57,0.51,0.44,-2.25,0.42,-25.75,-5.6875,647.9375,-0.04034423828125,0.751953125,0.180419921875,0.0163,3.0,26.875,-59.1875,2.15,-1.31,Walking,7
6.22,6.139558556,26,3,3,3,0,-1008.0,2.47,-3.24,-0.59,0.32,-1.96,0.9,-18.8125,-5.6875,649.3125,-0.04010009765625,0.7509765625,0.1798095703125,0.0163,3.0,26.875,-59.25,2.14,-1.28,Walking,7
6.22,6.139558556,26,3,3,3,0,-1008.0,2.47,-3.24,-0.59,0.32,-1.96,0.9,-18.8125,-5.6875,649.3125,-0.04010009765625,0.7509765625,0.1798095703125,0.0163,3.0,26.875,-59.25,2.14,-1.28,Walking,7
6.23,6.154331302,26,3,3,3,0,-1071.0,2.32,-3.27,-1.23,0.18,-1.99,1.3,-10.6875,-7.0625,650.1875,-0.03997802734375,0.75048828125,0.17889404296875,0.0163,3.0,26.875,-59.25,2.13,-1.27,Walking,7
6.24,6.154331302,26,3,3,3,0,-1124.0,2.04,-3.42,-1.75,-0.07,-2.15,1.74,-3.125,-8.625,650.5625,-0.03985595703125,0.75042724609375,0.177734375,0.0163,3.0,26.875,-59.3125,2.11,-1.27,Walking,7
6.24,6.183750614,26,3,3,3,0,-1173.0,1.79,-3.51,-2.24,-0.3,-2.22,2.35,3.5625,-11.0625,650.5625,-0.039794921875,0.7508544921875,0.1761474609375,0.0163,3.0,26.875,-59.3125,2.09,-1.28,Walking,7
6.26,6.183750614,26,3,3,3,0,-1247.0,2.27,-3.28,-2.98,0.2,-1.98,2.73,8.5,-14.125,650.25,-0.0399169921875,0.75152587890625,0.1741943359375,0.017,2.5625,27.1875,-59.3125,2.07,-1.3,Walking,7
6.27,6.198690189,26,3,3,3,0,-1271.0,2.95,-3.09,-3.21,0.91,-1.77,2.56,10.75,-16.6875,649.875,-0.040283203125,0.7523193359375,0.17218017578125,0.017,2.5625,27.1875,-59.375,2.03,-1.32,Walking,7
6.28,6.198690189,26,3,3,3,0,-1305.0,3.57,-2.95,-3.55,1.57,-1.61,1.84,9.0625,-17.75,649.5625,-0.04095458984375,0.7529296875,0.17041015625,0.017,2.5625,27.1875,-59.375,2.0,-1.34,Walking,7
6.29,6.21367314,26,3,3,3,0,-1341.0,3.89,-2.99,-3.9,1.91,-1.64,0.64,1.8125,-16.6875,649.6875,-0.0418701171875,0.75299072265625,0.16925048828125,0.017,2.5625,27.1875,-59.375,1.97,-1.34,Walking,7
6.3,6.21367314,26,3,3,3,0,-1450.0,3.93,-3.73,-4.98,1.97,-2.39,-0.52,-3.5,-13.4375,650.125,-0.0428466796875,0.75274658203125,0.16876220703125,0.017,2.5625,27.1875,-59.4375,1.95,-1.34,Walking,7
6.31,6.244910485,26,3,3,3,0,-1570.0,3.75,-3.47,-6.18,1.8,-2.13,-1.28,1.0,-9.5,650.1875,-0.0439453125,0.75262451171875,0.16876220703125,0.0162,2.1875,27.1875,-59.4375,1.94,-1.34,Walking,7
6.32,6.244910485,26,3,3,3,0,-1684.0,3.08,-2.52,-7.33,1.14,-1.15,-1.37,19.3125,-7.5625,648.9375,-0.045166015625,0.7535400390625,0.1688232421875,0.0162,2.1875,27.1875,-59.4375,1.93,-1.37,Walking,7
6.33,6.258501102,26,3,3,3,0,-1716.0,2.14,-1.51,-7.65,0.22,-0.06,-0.71,45.125,-9.25,646.0,-0.04669189453125,0.75592041015625,0.16839599609375,0.0162,2.1875,27.1875,-59.375,1.91,-1.44,Walking,7
6.34,6.258501102,26,3,3,3,0,-1531.0,1.08,-0.15,-5.81,-0.81,1.38,-0.44,60.0,-13.3125,642.125,-0.048583984375,0.7591552734375,0.1676025390625,0.0162,2.1875,27.1875,-59.3125,1.89,-1.54,Walking,7
6.35,6.273955326,26,3,3,3,0,-1425.0,1.15,0.23,-4.76,-0.72,1.86,-0.96,56.5,-16.0,638.5,-0.05084228515625,0.7620849609375,0.16693115234375,0.0162,2.1875,27.1875,-59.25,1.87,-1.63,Walking,7
6.36,6.273955326,26,3,3,3,0,-1309.0,1.51,0.53,-3.61,-0.33,2.22,-1.79,37.75,-16.0625,636.125,-0.05303955078125,0.76385498046875,0.1666259765625,0.0162,3.6875,29.1875,-59.25,1.84,-1.69,Walking,7
6.37,6.305991703,26,3,3,3,0,-1164.0,1.97,1.36,-2.16,0.14,3.08,-2.69,15.0625,-14.1875,635.25,-0.05511474609375,0.764404296875,0.16693115234375,0.0162,3.6875,29.1875,-59.25,1.83,-1.71,Walking,7
6.38,6.305991703,26,3,3,3,0,-1116.0,1.98,1.97,-1.67,0.17,3.68,-3.16,3.8125,-11.1875,635.0625,-0.0570068359375,0.76422119140625,0.1676025390625,0.0162,3.6875,29.1875,-59.25,1.81,-1.71,Walking,7
6.39,6.319419071,26,3,3,3,0,-1067.0,1.78,2.55,-1.19,-0.02,4.27,-3.31,7.75,-8.1875,634.5625,-0.05877685546875,0.7642822265625,0.16851806640625,0.0162,3.6875,29.1875,-59.25,1.81,-1.71,Walking,7
6.4,6.319419071,26,3,3,3,0,-993.0,1.26,2.76,-0.45,-0.54,4.5,-3.29,18.375,-6.5,633.3125,-0.06060791015625,0.76495361328125,0.16943359375,0.0162,3.6875,29.1875,-59.1875,1.8,-1.74,Walking,7
6.41,6.348895674,26,3,3,3,0,-950.0,-0.05,2.46,-0.03,-1.85,4.23,-3.39,24.625,-5.6875,631.5625,-0.0625,0.76593017578125,0.17041015625,0.0166,3.375,29.1875,-59.1875,1.8,-1.77,Walking,7
6.42,6.348895674,26,3,3,3,0,-994.0,-0.31,2.14,-0.47,-2.12,3.94,-4.13,22.0,-5.75,630.0625,-0.0645751953125,0.76666259765625,0.17169189453125,0.0166,3.375,29.1875,-59.125,1.8,-1.8,Walking,7
6.43,6.363973067,26,3,3,3,0,-1048.0,0.1,1.65,-1.01,-1.69,3.46,-5.48,12.9375,-5.375,629.0625,-0.06695556640625,0.76678466796875,0.17364501953125,0.0166,3.375,29.1875,-59.125,1.8,-1.81,Walking,7
6.44,6.363973067,26,3,3,3,0,-1063.0,0.88,0.97,-1.16,-0.92,2.78,-6.83,3.5625,-4.8125,628.625,-0.06964111328125,0.76629638671875,0.17620849609375,0.0166,3.375,29.1875,-59.125,1.8,-1.8,Walking,7
6.45,6.379147546,26,3,3,3,0,-1072.0,1.89,-0.55,-1.25,0.08,1.23,-7.49,-1.6875,-4.3125,628.5625,-0.07244873046875,0.76544189453125,0.17913818359375,0.0166,3.375,29.1875,-59.125,1.81,-1.78,Walking,7
6.46,6.379147546,26,3,3,3,0,-1049.0,2.19,-1.17,-1.02,0.36,0.59,-7.43,-2.625,-3.75,628.5,-0.07513427734375,0.7645263671875,0.18206787109375,0.0151,3.0,31.5,-59.1875,1.82,-1.76,Walking,7
6.47,6.393748579,26,3,3,3,0,-1001.0,2.28,-1.66,-0.54,0.45,0.08,-7.27,0.0,-3.0625,628.25,-0.0777587890625,0.76373291015625,0.1849365234375,0.0151,3.0,31.5,-59.1875,1.83,-1.75,Walking,7
6.48,6.393748579,26,3,3,3,0,-1001.0,2.28,-1.66,-0.54,0.45,0.08,-7.27,0.0,-3.0625,628.25,-0.0777587890625,0.76373291015625,0.1849365234375,0.0151,3.0,31.5,-59.1875,1.83,-1.75,Walking,7
6.48,6.408412764,26,3,3,3,0,-949.0,2.27,-1.92,-0.02,0.42,-0.18,-7.55,2.875,-2.6875,627.8125,-0.08050537109375,0.76312255859375,0.1878662109375,0.0151,3.0,31.5,-59.1875,1.84,-1.74,Walking,7
6.49,6.408412764,26,3,3,3,0,-850.0,2.36,-1.89,0.97,0.5,-0.16,-7.98,4.0,-2.375,627.25,-0.08343505859375,0.762451171875,0.1910400390625,0.0151,3.0,31.5,-59.1875,1.85,-1.73,Walking,7
6.5,6.425211958,26,3,3,3,0,-800.0,2.43,-1.6,1.46,0.57,0.11,-7.71,2.625,-1.9375,626.75,-0.086181640625,0.76177978515625,0.19415283203125,0.0151,3.0,31.5,-59.1875,1.86,-1.71,Walking,7
6.51,6.425211958,26,3,3,3,0,-757.0,2.49,-1.27,1.89,0.61,0.43,-6.89,-0.5625,-0.5625,626.5,-0.0885009765625,0.760986328125,0.19696044921875,0.0162,3.6875,32.6875,-59.1875,1.87,-1.7,Walking,7
6.52,6.48495382,26,3,3,3,0,-717.0,2.36,-0.9,2.29,0.47,0.77,-6.09,-5.6875,0.9375,626.5625,-0.09039306640625,0.760009765625,0.1995849609375,0.0162,3.6875,32.6875,-59.1875,1.89,-1.68,Walking,7
6.53,6.48495382,26,3,3,3,0,-643.0,1.96,-0.58,3.04,0.05,1.06,-5.22,-10.875,2.8125,627.0,-0.09173583984375,0.75885009765625,0.2020263671875,0.0162,3.6875,32.6875,-59.1875,1.9,-1.65,Walking,7
6.54,6.491276452,26,3,3,3,0,-607.0,1.64,-0.52,3.4,-0.27,1.09,-4.34,-15.125,4.9375,627.75,-0.09259033203125,0.757568359375,0.2042236328125,0.0162,3.6875,32.6875,-59.1875,1.92,-1.61,Walking,7
6.55,6.491276452,26,3,3,3,0,-566.0,1.45,-0.49,3.82,-0.48,1.08,-3.71,-18.0,6.3125,628.6875,-0.09307861328125,0.7562255859375,0.20623779296875,0.0162,3.6875,32.6875,-59.25,1.93,-1.57,Walking,7
6.56,6.496638716,26,3,3,3,0,-500.0,1.4,-0.49,4.48,-0.55,1.04,-3.19,-17.9375,7.4375,629.625,-0.09332275390625,0.75494384765625,0.2081298828125,0.0168,3.0,34.5625,-59.25,1.95,-1.54,Walking,7
6.57,6.496638716,26,3,3,3,0,-473.0,1.5,-0.49,4.75,-0.47,1.0,-2.69,-17.4375,9.5,630.5,-0.09326171875,0.75372314453125,0.2098388671875,0.0168,3.0,34.5625,-59.25,1.97,-1.5,Walking,7
6.58,6.51461947,26,3,3,3,0,-467.0,1.53,-0.46,4.81,-0.46,1.0,-2.46,-16.25,12.1875,631.25,-0.093017578125,0.752685546875,0.211669921875,0.0168,3.0,34.5625,-59.25,2.0,-1.47,Walking,7
6.59,6.51461947,26,3,3,3,0,-475.0,1.44,-0.36,4.73,-0.58,1.08,-2.25,-14.4375,15.125,631.875,-0.092529296875,0.751708984375,0.21356201171875,0.0168,3.0,34.5625,-59.25,2.02,-1.44,Walking,7
6.6,6.528835168,26,3,3,3,0,-503.0,1.2,-0.35,4.44,-0.85,1.05,-1.54,-13.375,17.125,632.375,-0.0916748046875,0.75091552734375,0.2152099609375,0.0168,3.0,34.5625,-59.25,2.05,-1.41,Walking,7
6.61,6.528835168,26,3,3,3,0,-531.0,0.91,-0.35,4.16,-1.17,1.03,-0.78,-13.6875,18.1875,632.9375,-0.0904541015625,0.750244140625,0.21661376953125,0.0162,3.0,35.5625,-59.1875,2.09,-1.39,Walking,7
6.62,6.54423035,26,3,3,3,0,-546.0,0.76,-0.43,4.0,-1.35,0.93,-0.13,-15.75,17.3125,633.625,-0.08905029296875,0.74951171875,0.2177734375,0.0162,3.0,35.5625,-59.1875,2.11,-1.36,Walking,7
6.63,6.54423035,26,3,3,3,0,-557.0,0.73,-0.59,3.89,-1.4,0.73,0.73,-19.0,15.75,634.6875,-0.08740234375,0.7486572265625,0.21844482421875,0.0162,3.0,35.5625,-59.1875,2.14,-1.33,Walking,7
6.64,6.573622806,26,3,3,3,0,-639.0,0.73,-0.99,3.08,-1.43,0.3,1.42,-21.9375,14.25,635.9375,-0.0855712890625,0.74774169921875,0.21881103515625,0.0162,3.0,35.5625,-59.1875,2.16,-1.3,Walking,7
6.65,6.573622806,26,3,3,3,0,-682.0,0.76,-1.38,2.64,-1.41,-0.12,1.41,-24.6875,13.0625,637.4375,-0.08380126953125,0.74664306640625,0.2191162109375,0.0162,3.0,35.5625,-59.1875,2.18,-1.26,Walking,7
6.66,6.588888838,26,3,3,3,0,-735.0,0.87,-1.8,2.12,-1.33,-0.58,1.36,-26.75,12.375,639.0625,-0.08203125,0.74542236328125,0.219482421875,0.0155,2.5625,36.0625,-59.1875,2.2,-1.22,Walking,7
6.67,6.588888838,26,3,3,3,0,-786.0,0.98,-2.18,1.61,-1.23,-1.0,1.14,-26.5,11.5,640.6875,-0.08038330078125,0.744140625,0.21978759765625,0.0155,2.5625,36.0625,-59.1875,2.22,-1.18,Walking,7
6.68,6.619327559,26,3,3,3,0,-862.0,1.33,-2.77,0.84,-0.9,-1.63,0.92,-24.5625,10.75,642.125,-0.078857421875,0.74298095703125,0.22021484375,0.0155,2.5625,36.0625,-59.1875,2.23,-1.14,Walking,7
6.69,6.619327559,26,3,3,3,0,-896.0,1.51,-2.83,0.51,-0.74,-1.72,1.14,-20.125,10.3125,643.375,-0.077392578125,0.7420654296875,0.220458984375,0.0155,2.5625,36.0625,-59.1875,2.25,-1.11,Walking,7
6.7,6.665066817,26,3,3,3,0,-935.0,1.62,-2.77,0.12,-0.64,-1.68,1.64,-14.3125,10.0,644.1875,-0.075927734375,0.7415771484375,0.22039794921875,0.0155,2.5625,36.0625,-59.1875,2.26,-1.09,Walking,7
6.71,6.665066817,26,3,3,3,0,-1048.0,2.2,-2.29,-1.0,-0.08,-1.2,2.13,-7.125,9.875,644.5625,-0.07440185546875,0.741455078125,0.22015380859375,0.0166,3.375,36.375,-59.1875,2.28,-1.08,Walking,7
6.72,6.670756799,26,3,3,3,0,-1122.0,2.51,-2.15,-1.74,0.21,-1.06,2.73,0.9375,10.1875,644.4375,-0.0728759765625,0.74188232421875,0.2196044921875,0.0166,3.375,36.375,-59.1875,2.29,-1.09,Walking,7
6.73,6.670756799,26,3,3,3,0,-1200.0,2.81,-2.28,-2.53,0.5,-1.17,3.39,9.0,11.125,643.75,-0.0711669921875,0.74285888671875,0.21881103515625,0.0166,3.375,36.375,-59.125,2.31,-1.11,Walking,7
6.74,6.675962284,26,3,3,3,0,-1248.0,2.87,-2.63,-3.02,0.54,-1.48,3.73,13.6875,13.125,642.75,-0.06927490234375,0.744140625,0.2178955078125,0.0166,3.375,36.375,-59.0625,2.32,-1.14,Walking,7
