timestamp,android_nano_timestamp,temperature,calib_mag,calib_accel,calib_gyro,calib_sys,acc_x,acc_y,acc_z,lacc_x,lacc_y,lacc_z,gyro_x,gyro_y,gyro_z,quat_w,quat_x,quat_y,quat_z,mag_x,mag_y,mag_z,gravity_x,gravity_y,gravity_z,label,person
1.46,1.430760987,26,3,3,3,3,-257.0,9.69,-1.91,0.01,0.4,-0.16,0.44,-1.0,4.5,434.125,0.33447265625,0.69091796875,0.48065185546875,0.0598,-15.5,27.1875,-16.1875,9.29,-1.74,nothing,6
1.47,1.430760987,26,3,3,3,3,-262.0,9.64,-1.9,-0.03,0.35,-0.15,0.43,-2.1875,4.375,434.0,0.33489990234375,0.6907958984375,0.4805908203125,0.0598,-15.5,27.1875,-16.125,9.29,-1.75,nothing,6
1.49,1.434277589,26,3,3,3,3,-263.0,9.48,-1.84,-0.05,0.18,-0.08,0.41,-2.8125,4.125,433.9375,0.33538818359375,0.690673828125,0.48052978515625,0.0598,-15.5,27.1875,-16.0625,9.29,-1.75,nothing,6
1.5,1.434277589,26,3,3,3,3,-261.0,9.42,-1.77,-0.04,0.13,-0.01,0.42,-1.9375,4.0,433.8125,0.3358154296875,0.69061279296875,0.48046875,0.0601,-16.1875,27.5625,-16.0625,9.29,-1.75,nothing,6
1.51,1.45653296,26,3,3,3,3,-254.0,9.38,-1.67,0.01,0.08,0.08,0.42,-1.1875,3.8125,433.625,0.336181640625,0.6905517578125,0.48040771484375,0.0601,-16.1875,27.5625,-16.0,9.29,-1.76,nothing,6
1.51,1.45653296,26,3,3,3,3,-243.0,9.33,-1.64,0.12,0.03,0.12,0.41,-1.5,3.5,433.5,0.33660888671875,0.69049072265625,0.4803466796875,0.0601,-16.1875,27.5625,-16.0,9.29,-1.76,nothing,6
1.52,1.470919353,26,3,3,3,3,-228.0,9.32,-1.51,0.27,0.02,0.25,0.28,-2.1875,3.125,433.4375,0.33697509765625,0.6903076171875,0.4803466796875,0.0601,-16.1875,27.5625,-15.9375,9.3,-1.76,nothing,6
1.53,1.470919353,26,3,3,3,3,-228.0,9.33,-1.53,0.26,0.03,0.23,0.09,-2.625,3.125,433.4375,0.3372802734375,0.690185546875,0.48040771484375,0.0601,-16.1875,27.5625,-15.9375,9.3,-1.76,nothing,6
1.54,1.485776165,26,3,3,3,3,-219.0,9.31,-1.51,0.34,0.01,0.24,-0.04,-3.125,3.125,433.5,0.33758544921875,0.68994140625,0.48040771484375,0.0605,-15.875,26.0,-15.875,9.3,-1.76,nothing,6
1.56,1.485776165,26,3,3,3,3,-215.0,9.28,-1.55,0.39,-0.02,0.2,-0.1,-3.6875,3.0625,433.625,0.337890625,0.689697265625,0.48046875,0.0605,-15.875,26.0,-15.875,9.3,-1.76,nothing,6
1.57,1.516409628,26,3,3,3,3,-216.0,9.22,-1.66,0.37,-0.07,0.09,-0.13,-3.5625,3.1875,433.75,0.3382568359375,0.68939208984375,0.48052978515625,0.0605,-15.875,26.0,-15.8125,9.3,-1.75,nothing,6
1.58,1.516409628,26,3,3,3,3,-225.0,9.17,-1.64,0.28,-0.13,0.11,-0.16,-3.625,3.0,433.875,0.33856201171875,0.68914794921875,0.4805908203125,0.0605,-15.875,26.0,-15.8125,9.3,-1.75,nothing,6
1.59,1.531913656,26,3,3,3,3,-233.0,9.14,-1.61,0.19,-0.16,0.14,-0.16,-3.25,3.125,433.9375,0.3388671875,0.6888427734375,0.480712890625,0.0605,-15.875,26.0,-15.75,9.31,-1.75,nothing,6
1.59,1.531913656,26,3,3,3,3,-239.0,9.15,-1.56,0.13,-0.16,0.18,-0.15,-3.375,2.875,434.0,0.33917236328125,0.68853759765625,0.4808349609375,0.0588,-17.25,27.5625,-15.75,9.31,-1.74,nothing,6
1.6,1.547105063,26,3,3,3,3,-244.0,9.18,-1.54,0.07,-0.12,0.19,-0.06,-3.125,2.625,434.125,0.3394775390625,0.68829345703125,0.48089599609375,0.0588,-17.25,27.5625,-15.75,9.31,-1.74,nothing,6
1.61,1.547105063,26,3,3,3,3,-240.0,9.2,-1.6,0.11,-0.11,0.13,0.05,-3.0625,2.125,434.1875,0.3397216796875,0.6881103515625,0.48095703125,0.0588,-17.25,27.5625,-15.6875,9.31,-1.74,nothing,6
1.62,1.576819093,26,3,3,3,3,-239.0,9.25,-1.64,0.12,-0.05,0.09,0.13,-2.6875,1.75,434.25,0.3399658203125,0.68792724609375,0.48089599609375,0.0588,-17.25,27.5625,-15.6875,9.31,-1.74,nothing,6
1.64,1.576819093,26,3,3,3,3,-236.0,9.35,-1.71,0.15,0.04,0.02,0.2,-2.75,1.3125,434.3125,0.34027099609375,0.6878662109375,0.4808349609375,0.0588,-17.25,27.5625,-15.6875,9.31,-1.74,nothing,6
1.65,1.591225099,26,3,3,3,3,-237.0,9.44,-1.69,0.14,0.13,0.05,0.31,-2.9375,1.1875,434.375,0.34051513671875,0.687744140625,0.480712890625,0.0605,-17.0,26.0,-15.6875,9.31,-1.74,nothing,6
1.66,1.591225099,26,3,3,3,3,-233.0,9.45,-1.71,0.17,0.13,0.03,0.41,-2.5625,1.25,434.4375,0.3408203125,0.68768310546875,0.48052978515625,0.0605,-17.0,26.0,-15.625,9.31,-1.74,nothing,6
1.67,1.620809327,26,3,3,3,3,-232.0,9.45,-1.76,0.17,0.14,-0.01,0.57,-2.0625,1.1875,434.375,0.3411865234375,0.687744140625,0.4803466796875,0.0605,-17.0,26.0,-15.625,9.31,-1.75,nothing,6
1.68,1.620809327,26,3,3,3,3,-231.0,9.39,-1.78,0.18,0.07,-0.02,0.66,-1.5625,1.3125,434.25,0.34149169921875,0.68780517578125,0.48016357421875,0.0605,-17.0,26.0,-15.625,9.31,-1.75,nothing,6
1.68,1.635797812,26,3,3,3,3,-232.0,9.39,-1.8,0.17,0.07,-0.03,0.69,-1.0,1.0625,434.0625,0.341796875,0.6878662109375,0.47991943359375,0.0605,-17.0,26.0,-15.625,9.31,-1.76,nothing,6
1.69,1.635797812,26,3,3,3,3,-233.0,9.35,-1.79,0.16,0.03,-0.02,0.63,-0.6875,0.5625,433.9375,0.342041015625,0.68798828125,0.479736328125,0.0601,-17.6875,27.1875,-15.5625,9.31,-1.77,nothing,6
1.7,1.651039592,26,3,3,3,3,-234.0,9.35,-1.77,0.15,0.03,0.0,0.58,-0.6875,0.75,433.8125,0.34228515625,0.68804931640625,0.47955322265625,0.0601,-17.6875,27.1875,-15.5625,9.31,-1.77,nothing,6
1.72,1.651039592,26,3,3,3,3,-233.0,9.37,-1.78,0.16,0.05,0.0,0.54,-0.125,0.25,433.6875,0.34246826171875,0.68817138671875,0.4793701171875,0.0601,-17.6875,27.1875,-15.5625,9.31,-1.78,nothing,6
1.73,1.665799684,26,3,3,3,3,-232.0,9.36,-1.76,0.16,0.04,0.02,0.51,-0.0625,0.0,433.5625,0.34259033203125,0.68829345703125,0.47918701171875,0.0601,-17.6875,27.1875,-15.5625,9.31,-1.78,nothing,6
1.74,1.665799684,26,3,3,3,3,-230.0,9.3,-1.76,0.19,0.0,0.03,0.42,0.0625,-0.1875,433.4375,0.34271240234375,0.68841552734375,0.47906494140625,0.0601,-17.6875,27.1875,-15.5625,9.31,-1.79,nothing,6
1.75,1.696803468,26,3,3,3,3,-231.0,9.28,-1.78,0.18,-0.03,0.01,0.37,0.0,-0.4375,433.3125,0.34283447265625,0.6884765625,0.47894287109375,0.0608,-17.0,27.5625,-15.5625,9.31,-1.79,nothing,6
1.76,1.696803468,26,3,3,3,3,-235.0,9.22,-1.82,0.13,-0.08,-0.02,0.26,-0.3125,-0.9375,433.3125,0.3428955078125,0.68853759765625,0.47882080078125,0.0608,-17.0,27.5625,-15.5625,9.31,-1.79,nothing,6
1.76,1.711244182,26,3,3,3,3,-237.0,9.18,-1.84,0.12,-0.12,-0.04,0.19,-0.4375,-1.3125,433.3125,0.34283447265625,0.68865966796875,0.478759765625,0.0608,-17.0,27.5625,-15.5625,9.31,-1.79,nothing,6
1.77,1.711244182,26,3,3,3,3,-238.0,9.18,-1.84,0.11,-0.12,-0.03,0.21,-0.4375,-1.6875,433.3125,0.34283447265625,0.688720703125,0.47857666015625,0.0608,-17.0,27.5625,-15.5625,9.31,-1.8,nothing,6
1.79,1.725731039,26,3,3,3,3,-242.0,9.23,-1.82,0.07,-0.07,-0.02,0.24,-0.5,-1.9375,433.3125,0.3427734375,0.6888427734375,0.47845458984375,0.0608,-17.0,27.5625,-15.625,9.3,-1.8,nothing,6
1.8,1.725731039,26,3,3,3,3,-240.0,9.25,-1.83,0.09,-0.05,-0.02,0.3,-0.6875,-2.375,433.375,0.3427734375,0.68896484375,0.47821044921875,0.0601,-17.0,26.75,-15.625,9.3,-1.8,nothing,6
1.81,1.757966432,26,3,3,3,3,-241.0,9.28,-1.84,0.08,-0.02,-0.03,0.34,-0.875,-2.5625,433.5,0.34271240234375,0.6890869140625,0.47796630859375,0.0601,-17.0,26.75,-15.625,9.3,-1.81,nothing,6
1.82,1.757966432,26,3,3,3,3,-241.0,9.29,-1.87,0.09,0.0,-0.05,0.42,-1.0,-2.625,433.5625,0.34271240234375,0.68927001953125,0.47772216796875,0.0601,-17.0,26.75,-15.6875,9.3,-1.81,nothing,6
1.83,1.770959352,26,3,3,3,3,-244.0,9.3,-1.92,0.06,0.0,-0.1,0.44,-1.375,-2.4375,433.625,0.3427734375,0.68939208984375,0.4774169921875,0.0601,-17.0,26.75,-15.6875,9.3,-1.81,nothing,6
1.84,1.770959352,26,3,3,3,3,-244.0,9.29,-2.0,0.07,0.0,-0.18,0.45,-1.75,-2.3125,433.75,0.34283447265625,0.68951416015625,0.47711181640625,0.0601,-17.0,26.75,-15.75,9.3,-1.82,nothing,6
1.84,1.785734213,26,3,3,3,3,-248.0,9.29,-2.01,0.04,0.0,-0.19,0.49,-1.625,-1.9375,433.8125,0.3428955078125,0.68963623046875,0.47674560546875,0.0605,-17.0,26.375,-15.75,9.29,-1.82,nothing,6
1.85,1.785734213,26,3,3,3,3,-250.0,9.29,-2.03,0.02,0.0,-0.2,0.56,-1.375,-1.8125,433.8125,0.343017578125,0.6898193359375,0.4764404296875,0.0605,-17.0,26.375,-15.75,9.29,-1.83,nothing,6
1.87,1.815759238,26,3,3,3,3,-258.0,9.34,-2.05,-0.05,0.04,-0.21,0.65,-0.875,-1.75,433.8125,0.34307861328125,0.6900634765625,0.47607421875,0.0605,-17.0,26.375,-15.75,9.29,-1.84,nothing,6
1.88,1.815759238,26,3,3,3,3,-259.0,9.31,-2.05,-0.05,0.02,-0.2,0.73,-0.6875,-1.3125,433.75,0.34326171875,0.6903076171875,0.4757080078125,0.0605,-17.0,26.375,-15.8125,9.29,-1.84,nothing,6
1.89,1.831167278,26,3,3,3,3,-261.0,9.3,-2.04,-0.08,0.01,-0.18,0.79,-0.875,-1.25,433.6875,0.3433837890625,0.6905517578125,0.47528076171875,0.0605,-17.0,26.375,-15.8125,9.28,-1.85,nothing,6
1.9,1.831167278,26,3,3,3,3,-263.0,9.34,-2.05,-0.09,0.05,-0.18,0.76,-0.9375,-0.9375,433.625,0.34356689453125,0.69073486328125,0.47491455078125,0.0593,-17.0,25.6875,-15.8125,9.28,-1.86,nothing,6
1.91,1.846622315,26,3,3,3,3,-263.0,9.33,-1.92,-0.1,0.04,-0.04,0.66,-0.125,-0.8125,433.5,0.3436279296875,0.69097900390625,0.474609375,0.0593,-17.0,25.6875,-15.8125,9.28,-1.87,nothing,6
1.92,1.846622315,26,3,3,3,3,-268.0,9.24,-1.98,-0.14,-0.04,-0.11,0.54,-0.3125,-0.5625,433.4375,0.34375,0.691162109375,0.474365234375,0.0593,-17.0,25.6875,-15.8125,9.28,-1.87,nothing,6
1.93,1.875992799,26,3,3,3,3,-266.0,9.23,-2.0,-0.12,-0.04,-0.12,0.48,-1.6875,-0.5625,433.5,0.3438720703125,0.69122314453125,0.47406005859375,0.0593,-17.0,25.6875,-15.875,9.28,-1.88,nothing,6
1.94,1.875992799,26,3,3,3,3,-264.0,9.13,-2.04,-0.09,-0.14,-0.15,0.45,-3.0,-0.75,433.625,0.34405517578125,0.6912841796875,0.47369384765625,0.0593,-17.0,25.6875,-15.875,9.28,-1.88,nothing,6
1.95,1.890663331,26,3,3,3,3,-260.0,9.09,-2.22,-0.05,-0.18,-0.33,0.39,-4.375,-0.5625,433.8125,0.34429931640625,0.69134521484375,0.47332763671875,0.0608,-16.1875,26.375,-15.875,9.27,-1.89,nothing,6
1.96,1.890663331,26,3,3,3,3,-257.0,9.05,-2.28,-0.02,-0.22,-0.38,0.31,-4.4375,-0.625,433.9375,0.34454345703125,0.69140625,0.472900390625,0.0608,-16.1875,26.375,-15.9375,9.27,-1.89,nothing,6
1.97,1.905895916,26,3,3,3,3,-257.0,8.95,-2.25,-0.02,-0.31,-0.35,0.18,-3.1875,-0.5625,434.0625,0.3447265625,0.6915283203125,0.4725341796875,0.0608,-16.1875,26.375,-15.9375,9.27,-1.9,nothing,6
1.98,1.905895916,26,3,3,3,3,-253.0,8.94,-2.19,0.01,-0.33,-0.28,0.04,-3.0,-0.5,434.125,0.3448486328125,0.69158935546875,0.4722900390625,0.0608,-16.1875,26.375,-15.9375,9.27,-1.9,nothing,6
1.99,1.93615088,26,3,3,3,3,-258.0,8.91,-2.17,-0.02,-0.36,-0.26,-0.05,-2.4375,-0.4375,434.25,0.344970703125,0.691650390625,0.4720458984375,0.0608,-16.1875,26.375,-15.9375,9.27,-1.9,nothing,6
2.0,1.93615088,26,3,3,3,3,-265.0,8.94,-2.13,-0.09,-0.32,-0.22,-0.13,-1.0625,-0.3125,434.25,0.34503173828125,0.69171142578125,0.471923828125,0.0601,-15.5,26.0,-15.9375,9.27,-1.91,nothing,6
2.01,1.951212648,26,3,3,3,3,-267.0,8.96,-2.16,-0.11,-0.3,-0.24,-0.12,0.125,-0.0625,434.25,0.344970703125,0.6917724609375,0.4718017578125,0.0601,-15.5,26.0,-16.0,9.27,-1.91,nothing,6
2.02,1.951212648,26,3,3,3,3,-265.0,9.18,-2.33,-0.09,-0.08,-0.41,-0.11,0.5,0.0,434.1875,0.344970703125,0.69195556640625,0.47161865234375,0.0601,-15.5,26.0,-16.0,9.26,-1.91,nothing,6
2.03,1.966018108,26,3,3,3,3,-265.0,9.38,-2.49,-0.09,0.11,-0.56,0.0,-0.125,0.1875,434.0625,0.34503173828125,0.692138671875,0.47137451171875,0.0601,-15.5,26.0,-16.0,9.26,-1.92,nothing,6
2.04,1.966018108,26,3,3,3,3,-274.0,9.66,-2.56,-0.18,0.39,-0.63,0.16,-0.625,0.625,434.0,0.34515380859375,0.692138671875,0.4713134765625,0.0601,-15.5,26.0,-16.0,9.26,-1.92,nothing,6
2.05,1.998084026,26,3,3,3,3,-289.0,9.86,-2.57,-0.33,0.59,-0.64,0.41,-0.0625,1.25,433.875,0.3453369140625,0.69219970703125,0.47119140625,0.0598,-17.0,27.1875,-16.0,9.26,-1.93,nothing,6
2.06,1.998084026,26,3,3,3,3,-324.0,9.8,-2.73,-0.68,0.53,-0.79,0.65,0.5625,1.75,433.625,0.3455810546875,0.6923828125,0.4710693359375,0.0598,-17.0,27.1875,-15.9375,9.26,-1.93,nothing,6
2.07,2.012097657,26,3,3,3,3,-336.0,9.58,-2.82,-0.8,0.32,-0.88,0.79,0.8125,2.4375,433.3125,0.3458251953125,0.6925048828125,0.47088623046875,0.0598,-17.0,27.1875,-15.9375,9.26,-1.94,nothing,6
2.08,2.012097657,26,3,3,3,3,-346.0,9.33,-2.85,-0.91,0.07,-0.89,0.88,0.9375,2.625,433.0,0.34619140625,0.69268798828125,0.47064208984375,0.0598,-17.0,27.1875,-15.875,9.26,-1.95,nothing,6
2.09,2.026898072,26,3,3,3,3,-344.0,9.05,-2.78,-0.9,-0.21,-0.81,0.96,0.9375,2.25,432.625,0.34649658203125,0.69293212890625,0.47039794921875,0.0598,-17.0,27.1875,-15.875,9.26,-1.96,nothing,6
2.1,2.026898072,26,3,3,3,3,-337.0,8.69,-2.45,-0.83,-0.57,-0.48,1.01,1.3125,1.5625,432.3125,0.3468017578125,0.69317626953125,0.4700927734375,0.0601,-16.1875,26.375,-15.875,9.26,-1.97,nothing,6
2.11,2.05636316,26,3,3,3,3,-333.0,8.38,-2.3,-0.79,-0.87,-0.31,0.93,2.625,0.375,431.9375,0.34686279296875,0.69354248046875,0.4698486328125,0.0601,-16.1875,26.375,-15.875,9.26,-1.98,nothing,6
2.12,2.05636316,26,3,3,3,3,-334.0,8.16,-2.17,-0.8,-1.08,-0.17,0.7,4.9375,-0.5,431.5,0.34686279296875,0.69390869140625,0.4697265625,0.0601,-16.1875,26.375,-15.8125,9.25,-1.99,nothing,6
2.13,2.070609051,26,3,3,3,3,-319.0,7.99,-2.11,-0.65,-1.26,-0.11,0.37,4.3125,-1.5625,431.25,0.3466796875,0.6942138671875,0.4696044921875,0.0601,-16.1875,26.375,-15.875,9.25,-2.0,nothing,6
2.14,2.070609051,26,3,3,3,3,-310.0,7.99,-2.07,-0.56,-1.25,-0.06,-0.07,3.0,-2.5625,431.125,0.34637451171875,0.69439697265625,0.4696044921875,0.0601,-16.1875,26.375,-15.875,9.25,-2.0,nothing,6
2.15,2.085977052,26,3,3,3,3,-304.0,8.05,-1.98,-0.49,-1.2,0.01,-0.58,2.9375,-3.5,431.1875,0.34588623046875,0.6944580078125,0.46978759765625,0.0601,-15.875,26.75,-15.875,9.25,-1.99,nothing,6
2.16,2.085977052,26,3,3,3,3,-306.0,8.2,-1.87,-0.51,-1.05,0.12,-0.95,3.5,-4.1875,431.375,0.34527587890625,0.69451904296875,0.4700927734375,0.0601,-15.875,26.75,-15.9375,9.25,-1.99,nothing,6
2.17,2.117357789,26,3,3,3,3,-301.0,8.74,-1.82,-0.45,-0.5,0.15,-1.15,3.3125,-4.75,431.5625,0.3446044921875,0.6944580078125,0.470458984375,0.0601,-15.875,26.75,-16.0,9.25,-1.98,nothing,6
2.18,2.117357789,26,3,3,3,3,-297.0,8.88,-1.93,-0.41,-0.37,0.03,-1.22,2.5,-5.1875,431.875,0.3438720703125,0.69439697265625,0.4708251953125,0.0601,-15.875,26.75,-16.0,9.25,-1.97,nothing,6
2.19,2.13084961,26,3,3,3,3,-287.0,9.02,-2.0,-0.29,-0.23,-0.04,-1.25,2.0625,-5.25,432.1875,0.34320068359375,0.6943359375,0.47113037109375,0.0601,-15.875,26.75,-16.0625,9.25,-1.95,nothing,6
2.2,2.13084961,26,3,3,3,3,-280.0,9.14,-2.09,-0.22,-0.11,-0.14,-1.25,0.6875,-4.9375,432.625,0.34259033203125,0.6942138671875,0.471435546875,0.0615,-16.5625,26.0,-16.125,9.25,-1.94,nothing,6
2.21,2.162593588,26,3,3,3,3,-272.0,9.61,-2.23,-0.12,0.35,-0.29,-1.18,-1.25,-4.125,433.0625,0.34210205078125,0.6939697265625,0.4716796875,0.0615,-16.5625,26.0,-16.1875,9.25,-1.93,nothing,6
2.22,2.162593588,26,3,3,3,3,-270.0,9.77,-2.17,-0.1,0.51,-0.25,-0.95,-0.875,-3.4375,433.5,0.34173583984375,0.69378662109375,0.47186279296875,0.0615,-16.5625,26.0,-16.1875,9.25,-1.92,nothing,6
2.23,2.176465089,26,3,3,3,3,-272.0,9.77,-2.23,-0.11,0.52,-0.32,-0.72,1.5625,-2.75,433.625,0.34130859375,0.69378662109375,0.47210693359375,0.0615,-16.5625,26.0,-16.25,9.25,-1.91,nothing,6
2.24,2.176465089,26,3,3,3,3,-272.0,9.74,-2.3,-0.11,0.48,-0.38,-0.35,2.9375,-2.1875,433.625,0.3409423828125,0.69384765625,0.47222900390625,0.0615,-16.5625,26.0,-16.25,9.25,-1.91,nothing,6
2.25,2.192275229,26,3,3,3,3,-264.0,9.55,-2.33,-0.04,0.29,-0.41,0.0,3.5625,-1.625,433.4375,0.3406982421875,0.69403076171875,0.4722900390625,0.0605,-16.1875,26.375,-16.25,9.25,-1.91,nothing,6
2.26,2.192275229,26,3,3,3,3,-269.0,9.5,-2.24,-0.08,0.24,-0.32,0.23,4.0625,-1.6875,433.25,0.34051513671875,0.6943359375,0.47222900390625,0.0605,-16.1875,26.375,-16.25,9.25,-1.92,nothing,6
2.27,2.206234946,26,3,3,3,3,-276.0,9.5,-2.07,-0.15,0.24,-0.14,0.41,4.4375,-1.875,432.9375,0.34027099609375,0.69464111328125,0.47210693359375,0.0605,-16.1875,26.375,-16.25,9.25,-1.92,nothing,6
2.28,2.206234946,26,3,3,3,3,-272.0,9.34,-1.98,-0.11,0.09,-0.04,0.6,4.3125,-2.3125,432.6875,0.340087890625,0.695068359375,0.471923828125,0.0605,-16.1875,26.375,-16.3125,9.25,-1.93,nothing,6
2.29,2.235993654,26,3,3,3,3,-270.0,9.29,-1.95,-0.09,0.04,0.0,0.76,5.0,-2.25,432.3125,0.33990478515625,0.69549560546875,0.4716796875,0.0605,-16.1875,26.375,-16.3125,9.24,-1.94,nothing,6
2.3,2.235993654,26,3,3,3,3,-261.0,9.25,-1.93,0.0,0.0,0.02,0.79,5.6875,-2.3125,431.875,0.3397216796875,0.69598388671875,0.471435546875,0.0601,-15.5,26.0,-16.3125,9.24,-1.95,nothing,6
2.31,2.251169313,26,3,3,3,3,-253.0,9.19,-1.89,0.08,-0.04,0.06,0.59,6.0,-2.25,431.5,0.3394775390625,0.69647216796875,0.4713134765625,0.0601,-15.5,26.0,-16.3125,9.24,-1.96,nothing,6
2.32,2.251169313,26,3,3,3,3,-239.0,9.31,-1.78,0.22,0.07,0.18,0.34,5.625,-2.375,431.1875,0.33917236328125,0.69683837890625,0.47125244140625,0.0601,-15.5,26.0,-16.3125,9.24,-1.97,nothing,6
2.33,2.266420289,26,3,3,3,3,-234.0,9.3,-1.68,0.27,0.06,0.28,0.1,5.4375,-2.0,430.875,0.3388671875,0.6971435546875,0.4713134765625,0.0601,-15.5,26.0,-16.375,9.24,-1.97,nothing,6
2.34,2.266420289,26,3,3,3,3,-229.0,9.31,-1.64,0.32,0.07,0.33,-0.06,5.75,-1.75,430.625,0.3385009765625,0.6973876953125,0.47137451171875,0.0601,-15.5,26.0,-16.375,9.23,-1.98,nothing,6
2.35,2.296837363,26,3,3,3,3,-227.0,9.29,-1.63,0.35,0.06,0.34,-0.25,5.375,-1.3125,430.375,0.338134765625,0.69757080078125,0.47161865234375,0.0598,-15.5,26.75,-16.375,9.23,-1.98,nothing,6
2.36,2.296837363,26,3,3,3,3,-242.0,9.33,-1.61,0.19,0.09,0.36,-0.48,4.8125,-0.6875,430.1875,0.3377685546875,0.6976318359375,0.47186279296875,0.0598,-15.5,26.75,-16.375,9.24,-1.97,nothing,6
2.37,2.311493938,26,3,3,3,3,-255.0,9.38,-1.56,0.06,0.14,0.4,-0.72,4.0,-0.3125,430.0625,0.33746337890625,0.6976318359375,0.4722900390625,0.0598,-15.5,26.75,-16.375,9.24,-1.97,nothing,6
2.38,2.311493938,26,3,3,3,3,-265.0,9.4,-1.55,-0.03,0.16,0.4,-0.85,3.1875,-0.1875,430.125,0.33709716796875,0.69732666015625,0.472900390625,0.0598,-15.5,26.75,-16.3125,9.24,-1.95,nothing,6
2.39,2.326314292,26,3,3,3,3,-268.0,9.45,-1.56,-0.06,0.2,0.38,-0.8,2.75,-0.125,430.125,0.3367919921875,0.697265625,0.4732666015625,0.0598,-15.5,26.75,-16.3125,9.24,-1.95,nothing,6
2.4,2.326314292,26,3,3,3,3,-258.0,9.43,-1.67,0.03,0.18,0.27,-0.65,2.125,-0.25,430.125,0.3365478515625,0.6971435546875,0.47357177734375,0.0591,-15.5,26.75,-16.3125,9.24,-1.94,nothing,6
2.41,2.356294394,26,3,3,3,3,-249.0,9.33,-1.67,0.12,0.08,0.26,-0.53,1.875,-0.6875,430.125,0.3363037109375,0.69708251953125,0.47381591796875,0.0591,-15.5,26.75,-16.3125,9.24,-1.94,nothing,6
2.42,2.356294394,26,3,3,3,3,-248.0,9.23,-1.64,0.13,-0.01,0.28,-0.53,1.375,-0.625,430.25,0.3360595703125,0.6968994140625,0.47418212890625,0.0591,-15.5,26.75,-16.3125,9.25,-1.93,nothing,6
2.43,2.371114503,26,3,3,3,3,-238.0,9.04,-1.41,0.23,-0.21,0.51,-0.55,0.5625,-0.6875,430.375,0.33587646484375,0.6966552734375,0.47454833984375,0.0591,-15.5,26.75,-16.3125,9.25,-1.92,nothing,6
2.44,2.371114503,26,3,3,3,3,-235.0,8.99,-1.3,0.26,-0.25,0.61,-0.56,0.125,-0.3125,430.5,0.33575439453125,0.696533203125,0.47479248046875,0.0591,-15.5,26.75,-16.3125,9.25,-1.91,nothing,6
2.45,2.385625774,26,3,3,3,3,-234.0,8.98,-1.24,0.27,-0.27,0.66,-0.66,-0.3125,0.0,430.625,0.3355712890625,0.69635009765625,0.47503662109375,0.0601,-15.5625,27.5625,-16.3125,9.25,-1.91,nothing,6
2.46,2.385625774,26,3,3,3,3,-228.0,8.99,-1.26,0.33,-0.25,0.64,-0.71,-0.75,0.1875,430.8125,0.33544921875,0.69610595703125,0.47528076171875,0.0601,-15.5625,27.5625,-16.3125,9.25,-1.9,nothing,6
2.47,2.415761883,26,3,3,3,3,-219.0,9.02,-1.4,0.42,-0.23,0.49,-0.76,-1.3125,0.75,431.0,0.33538818359375,0.69586181640625,0.47552490234375,0.0601,-15.5625,27.5625,-16.3125,9.25,-1.89,nothing,6
2.48,2.415761883,26,3,3,3,3,-218.0,9.03,-1.47,0.43,-0.22,0.41,-0.8,-1.375,1.0625,431.1875,0.3353271484375,0.695556640625,0.475830078125,0.0601,-15.5625,27.5625,-16.3125,9.26,-1.88,nothing,6
2.49,2.430662843,26,3,3,3,3,-221.0,9.05,-1.53,0.39,-0.21,0.33,-0.81,-1.875,1.625,431.375,0.33538818359375,0.69500732421875,0.47650146484375,0.0601,-15.5625,27.5625,-16.25,9.26,-1.87,nothing,6
2.5,2.430662843,26,3,3,3,3,-226.0,9.07,-1.56,0.33,-0.19,0.29,-0.8,-2.4375,1.75,431.625,0.33544921875,0.6944580078125,0.47698974609375,0.0598,-15.5,28.0,-16.25,9.27,-1.85,nothing,6
2.51,2.46317741,26,3,3,3,3,-233.0,9.0,-1.59,0.26,-0.27,0.25,-0.76,-3.0,2.125,431.8125,0.3355712890625,0.6939697265625,0.4774169921875,0.0598,-15.5,28.0,-16.1875,9.27,-1.84,nothing,6
2.52,2.46317741,26,3,3,3,3,-234.0,9.03,-1.59,0.25,-0.24,0.24,-0.6,-3.5625,2.375,432.0625,0.33575439453125,0.6934814453125,0.477783203125,0.0598,-15.5,28.0,-16.1875,9.27,-1.83,nothing,6
2.53,2.476790813,26,3,3,3,3,-234.0,9.01,-1.58,0.24,-0.26,0.24,-0.38,-4.3125,3.0,432.25,0.3360595703125,0.69305419921875,0.47802734375,0.0598,-15.5,28.0,-16.125,9.28,-1.83,nothing,6
2.54,2.476790813,26,3,3,3,3,-232.0,8.97,-1.57,0.25,-0.3,0.25,-0.19,-4.6875,3.25,432.4375,0.33642578125,0.69268798828125,0.4781494140625,0.0598,-15.5,28.0,-16.125,9.28,-1.82,nothing,6
2.55,2.49243152,26,3,3,3,3,-229.0,8.98,-1.48,0.27,-0.29,0.33,-0.03,-5.125,3.875,432.625,0.3369140625,0.6922607421875,0.478271484375,0.0601,-15.5,26.75,-16.0625,9.28,-1.81,nothing,6
2.56,2.49243152,26,3,3,3,3,-235.0,9.06,-1.43,0.21,-0.22,0.37,-0.02,-5.6875,4.375,432.8125,0.33746337890625,0.69183349609375,0.4783935546875,0.0601,-15.5,26.75,-16.0,9.28,-1.81,nothing,6
2.57,2.521243084,26,3,3,3,3,-240.0,9.18,-1.41,0.15,-0.1,0.39,-0.08,-6.0625,4.875,433.0,0.3380126953125,0.6912841796875,0.47857666015625,0.0601,-15.5,26.75,-16.0,9.29,-1.8,nothing,6
2.58,2.521243084,26,3,3,3,3,-248.0,9.52,-1.47,0.07,0.23,0.32,-0.21,-6.5,5.375,433.25,0.33856201171875,0.69085693359375,0.4786376953125,0.0601,-15.5,26.75,-15.9375,9.29,-1.8,nothing,6
2.59,2.535854534,26,3,3,3,3,-249.0,9.65,-1.56,0.05,0.36,0.23,-0.33,-6.875,5.9375,433.5,0.339111328125,0.6903076171875,0.47882080078125,0.0601,-15.5,26.75,-15.875,9.29,-1.79,nothing,6
2.6,2.535854534,26,3,3,3,3,-249.0,9.73,-1.65,0.04,0.42,0.13,-0.4,-6.625,6.5625,433.6875,0.33966064453125,0.68975830078125,0.47900390625,0.0605,-16.1875,26.375,-15.8125,9.3,-1.78,nothing,6
2.61,2.55221041,26,3,3,3,3,-245.0,9.75,-1.76,0.07,0.44,0.02,-0.34,-6.125,7.0,433.8125,0.34027099609375,0.68927001953125,0.47918701171875,0.0605,-16.1875,26.375,-15.75,9.3,-1.78,nothing,6
2.62,2.55221041,26,3,3,3,3,-246.0,9.48,-1.96,0.05,0.17,-0.18,-0.32,-6.0,7.875,433.9375,0.3409423828125,0.688720703125,0.47943115234375,0.0605,-16.1875,26.375,-15.6875,9.3,-1.77,nothing,6
2.63,2.581867433,26,3,3,3,3,-251.0,9.47,-1.93,0.0,0.15,-0.16,-0.36,-6.25,8.6875,434.0,0.34161376953125,0.6881103515625,0.479736328125,0.0605,-16.1875,26.375,-15.625,9.31,-1.76,nothing,6
2.64,2.581867433,26,3,3,3,3,-253.0,9.51,-1.77,-0.04,0.19,-0.01,-0.57,-7.125,9.5625,434.125,0.3424072265625,0.68743896484375,0.4801025390625,0.0605,-16.1875,26.375,-15.5625,9.31,-1.76,nothing,6
2.65,2.596302532,26,3,3,3,3,-258.0,9.64,-1.62,-0.1,0.31,0.12,-0.98,-9.8125,10.0,434.5,0.3431396484375,0.6865234375,0.48052978515625,0.0601,-16.5625,26.75,-15.4375,9.32,-1.74,nothing,6
2.66,2.596302532,26,3,3,3,3,-248.0,10.07,-1.62,-0.01,0.74,0.09,-1.27,-16.125,10.1875,435.3125,0.34417724609375,0.68524169921875,0.48089599609375,0.0601,-16.5625,26.75,-15.375,9.33,-1.72,nothing,6
2.67,2.611792197,26,3,3,3,3,-248.0,10.14,-1.67,-0.02,0.8,0.02,-1.19,-23.0,10.375,436.5,0.345458984375,0.68377685546875,0.4810791015625,0.0601,-16.5625,26.75,-15.3125,9.33,-1.7,nothing,6
2.68,2.611792197,26,3,3,3,3,-236.0,10.22,-1.73,0.08,0.88,-0.05,-0.69,-29.5625,10.6875,438.0,0.34716796875,0.68212890625,0.4808349609375,0.0601,-16.5625,26.75,-15.25,9.34,-1.68,nothing,6
2.69,2.626692628,26,3,3,3,3,-204.0,10.3,-1.88,0.38,0.94,-0.22,0.0,-37.75,12.4375,439.75,0.3494873046875,0.68035888671875,0.48016357421875,0.0601,-16.5625,26.75,-15.1875,9.35,-1.66,nothing,6
2.7,2.626692628,26,3,3,3,3,-149.0,10.32,-2.33,0.93,0.96,-0.68,0.42,-42.6875,14.25,441.625,0.35223388671875,0.67840576171875,0.479248046875,0.0601,-16.5625,25.25,-15.125,9.35,-1.65,nothing,6
2.71,2.655862265,26,3,3,3,3,-141.0,10.3,-2.58,0.99,0.94,-0.94,0.65,-44.0,16.125,443.5,0.355224609375,0.67645263671875,0.47821044921875,0.0601,-16.5625,25.25,-15.0625,9.36,-1.64,nothing,6
2.72,2.655862265,26,3,3,3,3,-153.0,10.15,-2.77,0.86,0.78,-1.13,0.72,-43.625,18.0625,445.1875,0.3582763671875,0.67437744140625,0.477294921875,0.0601,-16.5625,25.25,-14.9375,9.36,-1.63,nothing,6
2.73,2.670813234,26,3,3,3,3,-159.0,9.87,-2.76,0.78,0.5,-1.14,0.91,-43.125,18.875,446.8125,0.36138916015625,0.67242431640625,0.476318359375,0.0601,-16.5625,25.25,-14.8125,9.37,-1.62,nothing,6
2.74,2.670813234,26,3,3,3,3,-149.0,9.15,-2.36,0.86,-0.22,-0.74,1.4,-45.4375,19.1875,448.4375,0.36474609375,0.67041015625,0.47509765625,0.0601,-16.5625,25.25,-14.6875,9.38,-1.61,nothing,6
2.75,2.701306439,26,3,3,3,3,-134.0,8.86,-2.01,0.99,-0.51,-0.39,2.18,-49.6875,19.625,450.125,0.36846923828125,0.66845703125,0.47344970703125,0.0608,-18.0625,24.5,-14.625,9.38,-1.62,nothing,6
2.76,2.701306439,26,3,3,3,3,-120.0,8.76,-1.57,1.12,-0.62,0.05,2.94,-54.3125,20.1875,451.875,0.37261962890625,0.66650390625,0.471435546875,0.0608,-18.0625,24.5,-14.5,9.38,-1.62,nothing,6
2.77,2.716539878,26,3,3,3,3,-101.0,8.67,-0.88,1.28,-0.71,0.75,3.43,-58.625,21.0,453.75,0.3770751953125,0.6644287109375,0.46905517578125,0.0608,-18.0625,24.5,-14.375,9.38,-1.63,nothing,6
2.78,2.716539878,26,3,3,3,3,-94.0,8.78,-0.68,1.34,-0.6,0.96,3.67,-63.625,21.875,455.8125,0.3818359375,0.66217041015625,0.46649169921875,0.0608,-18.0625,24.5,-14.25,9.39,-1.65,nothing,6
2.79,2.731770875,26,3,3,3,3,-84.0,8.99,-0.57,1.42,-0.4,1.08,3.4,-69.5,23.0625,458.25,0.38677978515625,0.6595458984375,0.4638671875,0.0608,-18.0625,24.5,-14.125,9.39,-1.65,nothing,6
2.8,2.731770875,26,3,3,3,3,-87.0,9.24,-0.59,1.37,-0.15,1.06,2.8,-73.625,24.0,460.9375,0.391845703125,0.65655517578125,0.4613037109375,0.0615,-18.0625,21.375,-14.0625,9.39,-1.65,nothing,6
2.81,2.746954184,26,3,3,3,3,-119.0,9.67,-0.62,1.03,0.26,1.03,2.13,-74.0625,24.875,463.8125,0.39678955078125,0.65325927734375,0.458984375,0.0615,-18.0625,21.375,-13.9375,9.4,-1.65,nothing,6
2.82,2.746954184,26,3,3,3,3,-147.0,10.03,-0.63,0.73,0.62,0.99,1.5,-72.5625,25.6875,466.625,0.4014892578125,0.64990234375,0.4569091796875,0.0615,-18.0625,21.375,-13.8125,9.41,-1.63,nothing,6
2.83,2.777317791,26,3,3,3,3,-160.0,10.1,-0.74,0.58,0.68,0.88,1.09,-73.9375,25.625,469.625,0.40618896484375,0.64630126953125,0.4549560546875,0.0615,-18.0625,21.375,-13.625,9.42,-1.62,nothing,6
2.84,2.777317791,26,3,3,3,3,-163.0,10.1,-0.88,0.53,0.68,0.72,1.16,-76.9375,24.875,472.75,0.41094970703125,0.642578125,0.45281982421875,0.0615,-18.0625,21.375,-13.5,9.42,-1.6,nothing,6
2.85,2.791145794,26,3,3,3,3,-161.0,10.04,-1.19,0.53,0.6,0.38,1.51,-80.1875,23.9375,476.0,0.41583251953125,0.63885498046875,0.45037841796875,0.0626,-19.5,17.5,-13.4375,9.43,-1.58,nothing,6
2.86,2.791145794,26,3,3,3,3,-157.0,9.95,-1.32,0.56,0.51,0.25,1.77,-83.25,22.625,479.4375,0.4207763671875,0.63507080078125,0.4476318359375,0.0626,-19.5,17.5,-13.3125,9.44,-1.57,nothing,6
2.87,2.820881715,26,3,3,3,3,-157.0,9.89,-1.44,0.55,0.45,0.11,1.81,-85.25,21.0625,483.0,0.42578125,0.6312255859375,0.44476318359375,0.0626,-19.5,17.5,-13.25,9.44,-1.56,nothing,6
2.88,2.820881715,26,3,3,3,3,-154.0,9.79,-1.44,0.57,0.34,0.1,1.68,-86.75,19.125,486.6875,0.43060302734375,0.6273193359375,0.44171142578125,0.0626,-19.5,17.5,-13.1875,9.44,-1.54,nothing,6
2.89,2.835764609,26,3,3,3,3,-146.0,9.67,-1.28,0.64,0.22,0.24,1.67,-86.75,17.625,490.4375,0.43536376953125,0.62347412109375,0.43865966796875,0.0626,-19.5,17.5,-13.1875,9.45,-1.53,nothing,6
2.9,2.835764609,26,3,3,3,3,-139.0,9.57,-1.18,0.7,0.12,0.33,1.99,-85.9375,16.375,494.0625,0.4400634765625,0.61968994140625,0.43536376953125,0.0632,-20.1875,13.1875,-13.125,9.45,-1.52,nothing,6
2.91,2.851636028,26,3,3,3,3,-134.0,9.53,-1.16,0.75,0.08,0.35,2.56,-85.5,15.375,497.5625,0.44476318359375,0.6160888671875,0.431884765625,0.0632,-20.1875,13.1875,-13.125,9.45,-1.51,nothing,6
2.92,2.851636028,26,3,3,3,3,-115.0,9.41,-1.25,0.94,-0.04,0.26,3.14,-85.5625,14.625,500.875,0.44964599609375,0.61260986328125,0.4281005859375,0.0632,-20.1875,13.1875,-13.125,9.45,-1.51,nothing,6
2.93,2.8660011,26,3,3,3,3,-109.0,9.38,-1.28,1.0,-0.07,0.23,3.51,-86.0625,14.0625,504.1875,0.45452880859375,0.60919189453125,0.4241943359375,0.0632,-20.1875,13.1875,-13.125,9.45,-1.52,nothing,6
2.94,2.8660011,26,3,3,3,3,-106.0,9.38,-1.43,1.03,-0.07,0.09,3.68,-88.3125,13.625,507.5,0.45953369140625,0.60565185546875,0.4200439453125,0.0632,-20.1875,13.1875,-13.125,9.45,-1.52,nothing,6
2.95,2.896646893,26,3,3,3,3,-103.0,9.37,-1.62,1.07,-0.07,-0.08,3.75,-92.0625,12.8125,511.0,0.46453857421875,0.60198974609375,0.4156494140625,0.063,-21.6875,8.25,-13.125,9.45,-1.53,nothing,6
2.96,2.896646893,26,3,3,3,3,-94.0,9.33,-1.83,1.16,-0.11,-0.29,3.92,-95.0,12.0625,514.625,0.4697265625,0.59820556640625,0.4110107421875,0.063,-21.6875,8.25,-13.125,9.45,-1.53,nothing,6
2.97,2.911113242,26,3,3,3,3,-93.0,9.28,-1.74,1.17,-0.16,-0.19,4.38,-96.625,11.6875,518.1875,0.4749755859375,0.59442138671875,0.4061279296875,0.063,-21.6875,8.25,-13.1875,9.44,-1.54,nothing,6
2.98,2.911113242,26,3,3,3,3,-91.0,9.32,-1.59,1.2,-0.11,-0.03,5.08,-97.875,11.6875,521.5625,0.48046875,0.59075927734375,0.40093994140625,0.063,-21.6875,8.25,-13.25,9.44,-1.56,nothing,6
2.99,2.94210425,26,3,3,3,3,-86.0,9.38,-1.42,1.26,-0.05,0.16,5.82,-99.8125,12.0,524.8125,0.48614501953125,0.5870361328125,0.39544677734375,0.063,-21.6875,8.25,-13.3125,9.43,-1.58,nothing,6
3.0,2.94210425,26,3,3,3,3,-63.0,9.48,-1.19,1.5,0.05,0.41,6.23,-103.9375,12.5,528.0625,0.49212646484375,0.58319091796875,0.38958740234375,0.0647,-22.0625,3.6875,-13.3125,9.43,-1.61,nothing,6
3.01,2.956465211,26,3,3,3,3,-53.0,9.5,-1.2,1.61,0.07,0.42,6.31,-108.625,13.125,531.5,0.49822998046875,0.57904052734375,0.38348388671875,0.0647,-22.0625,3.6875,-13.375,9.42,-1.63,nothing,6
3.02,2.956465211,26,3,3,3,3,-45.0,9.55,-1.25,1.7,0.13,0.4,6.25,-112.3125,13.9375,535.0625,0.50445556640625,0.5745849609375,0.37725830078125,0.0647,-22.0625,3.6875,-13.4375,9.42,-1.65,nothing,6
3.03,2.971298586,26,3,3,3,3,-49.0,9.63,-1.3,1.66,0.21,0.38,6.4,-114.6875,15.125,538.625,0.51080322265625,0.5699462890625,0.37091064453125,0.0647,-22.0625,3.6875,-13.5,9.41,-1.68,nothing,6
3.04,2.971298586,26,3,3,3,3,-69.0,9.77,-1.34,1.47,0.36,0.35,6.56,-116.5625,16.5,542.0625,0.51727294921875,0.565185546875,0.36444091796875,0.0647,-22.0625,3.6875,-13.5625,9.41,-1.7,nothing,6
3.05,2.986477703,26,3,3,3,3,-78.0,9.86,-1.33,1.39,0.45,0.39,6.79,-119.4375,17.9375,545.5,0.52386474609375,0.56011962890625,0.3577880859375,0.0654,-23.5,-2.0625,-13.5625,9.4,-1.72,nothing,6
3.06,2.986477703,26,3,3,3,3,-86.0,10.02,-1.33,1.31,0.62,0.41,7.04,-123.1875,18.875,548.9375,0.53070068359375,0.55487060546875,0.35089111328125,0.0654,-23.5,-2.0625,-13.625,9.39,-1.75,nothing,6
3.07,3.016385337,26,3,3,3,3,-103.0,10.21,-1.33,1.14,0.82,0.44,7.44,-126.75,19.9375,552.375,0.53765869140625,0.54937744140625,0.34368896484375,0.0654,-23.5,-2.0625,-13.625,9.39,-1.78,nothing,6
3.08,3.016385337,26,3,3,3,3,-117.0,10.27,-1.3,1.02,0.89,0.5,7.93,-129.9375,20.625,555.6875,0.54486083984375,0.54376220703125,0.336181640625,0.0654,-23.5,-2.0625,-13.6875,9.38,-1.81,nothing,6
3.09,3.031935101,26,3,3,3,3,-137.0,10.19,-1.3,0.82,0.81,0.54,8.22,-133.125,21.6875,558.9375,0.55218505859375,0.537841796875,0.32843017578125,0.0654,-23.5,-2.0625,-13.75,9.37,-1.84,nothing,6
3.1,3.031935101,26,3,3,3,3,-159.0,10.1,-1.29,0.6,0.73,0.58,8.27,-135.25,22.8125,562.125,0.5595703125,0.53173828125,0.320556640625,0.064,-24.1875,-8.375,-13.75,9.36,-1.88,nothing,6
3.11,3.062075441,26,3,3,3,3,-199.0,9.79,-1.17,0.22,0.43,0.74,8.14,-136.4375,23.75,565.3125,0.56689453125,0.525390625,0.31268310546875,0.064,-24.1875,-8.375,-13.8125,9.36,-1.91,nothing,6
3.12,3.062075441,26,3,3,3,3,-207.0,9.64,-1.2,0.13,0.29,0.72,7.93,-138.875,24.9375,568.5625,0.57421875,0.518798828125,0.30474853515625,0.064,-24.1875,-8.375,-13.8125,9.35,-1.93,nothing,6
3.13,3.075892295,26,3,3,3,3,-204.0,9.55,-1.25,0.18,0.21,0.7,7.61,-141.4375,26.25,571.9375,0.5814208984375,0.5118408203125,0.2967529296875,0.064,-24.1875,-8.375,-13.875,9.34,-1.96,nothing,6
3.14,3.075892295,26,3,3,3,3,-193.0,9.49,-1.28,0.28,0.14,0.69,7.06,-143.375,27.5625,575.375,0.58843994140625,0.5045166015625,0.28887939453125,0.064,-24.1875,-8.375,-13.875,9.34,-1.97,nothing,6
3.15,3.091274416,26,3,3,3,3,-188.0,9.02,-1.34,0.34,-0.31,0.64,6.3,-144.1875,29.0,579.0,0.59527587890625,0.49688720703125,0.2811279296875,0.063,-26.5625,-14.5625,-13.875,9.34,-1.98,nothing,6
3.16,3.091274416,26,3,3,3,3,-194.0,8.7,-1.27,0.27,-0.63,0.71,5.54,-143.875,29.875,582.75,0.60174560546875,0.48907470703125,0.27362060546875,0.063,-26.5625,-14.5625,-13.875,9.34,-1.98,nothing,6
3.17,3.121238039,26,3,3,3,3,-207.0,8.42,-1.11,0.14,-0.91,0.86,5.06,-144.0,30.3125,586.5,0.6080322265625,0.48101806640625,0.2662353515625,0.063,-26.5625,-14.5625,-13.875,9.34,-1.98,nothing,6
3.18,3.121238039,26,3,3,3,3,-224.0,8.18,-0.95,-0.01,-1.15,1.02,5.03,-144.5625,31.0625,590.1875,0.61419677734375,0.47283935546875,0.2587890625,0.063,-26.5625,-14.5625,-13.875,9.34,-1.97,nothing,6
3.19,3.135771812,26,3,3,3,3,-254.0,7.74,-0.64,-0.31,-1.6,1.32,5.23,-146.25,30.9375,593.8125,0.62042236328125,0.4644775390625,0.25115966796875,0.063,-26.5625,-14.5625,-13.875,9.34,-1.97,nothing,6
3.2,3.135771812,26,3,3,3,3,-270.0,7.6,-0.62,-0.47,-1.73,1.35,5.54,-149.125,30.625,597.3125,0.6265869140625,0.45599365234375,0.24322509765625,0.0588,-29.1875,-21.5625,-13.875,9.34,-1.97,nothing,6
3.21,3.150916302,26,3,3,3,3,-289.0,7.57,-0.65,-0.66,-1.77,1.31,5.69,-151.4375,29.5,600.8125,0.63275146484375,0.4473876953125,0.23504638671875,0.0588,-29.1875,-21.5625,-13.9375,9.34,-1.97,nothing,6
3.22,3.150916302,26,3,3,3,3,-347.0,7.82,-0.71,-1.23,-1.51,1.25,5.57,-151.8125,28.5625,604.25,0.63873291015625,0.43865966796875,0.22674560546875,0.0588,-29.1875,-21.5625,-13.9375,9.34,-1.96,nothing,6
3.23,3.181381105,26,3,3,3,3,-381.0,7.97,-0.78,-1.56,-1.36,1.18,5.35,-150.6875,27.375,607.625,0.6444091796875,0.42999267578125,0.218505859375,0.0588,-29.1875,-21.5625,-14.0,9.34,-1.96,nothing,6
3.24,3.181381105,26,3,3,3,3,-411.0,8.33,-0.84,-1.86,-1.0,1.11,5.06,-150.3125,26.8125,610.9375,0.64990234375,0.4212646484375,0.21026611328125,0.0588,-29.1875,-21.5625,-14.0,9.34,-1.95,nothing,6
3.25,3.196534222,26,3,3,3,3,-438.0,8.87,-0.9,-2.12,-0.46,1.04,4.81,-150.875,26.375,614.3125,0.6551513671875,0.41241455078125,0.20196533203125,0.0554,-32.75,-28.5,-14.0625,9.34,-1.94,nothing,6
3.26,3.196534222,26,3,3,3,3,-470.0,10.14,-1.23,-2.44,0.8,0.7,4.65,-151.8125,26.375,617.6875,0.66021728515625,0.4034423828125,0.193603515625,0.0554,-32.75,-28.5,-14.125,9.34,-1.93,nothing,6
3.27,3.21065495,26,3,3,3,3,-479.0,10.71,-1.46,-2.51,1.37,0.45,4.54,-152.625,26.25,621.0,0.6651611328125,0.39434814453125,0.1851806640625,0.0554,-32.75,-28.5,-14.1875,9.34,-1.92,nothing,6
3.28,3.21065495,26,3,3,3,3,-487.0,11.08,-1.87,-2.59,1.73,0.03,4.58,-153.9375,26.4375,624.25,0.66998291015625,0.38507080078125,0.1766357421875,0.0554,-32.75,-28.5,-14.25,9.34,-1.9,nothing,6
3.29,3.241414512,26,3,3,3,3,-484.0,11.22,-2.3,-2.55,1.87,-0.4,4.85,-155.625,26.6875,627.3125,0.67486572265625,0.37567138671875,0.16796875,0.0554,-32.75,-28.5,-14.3125,9.34,-1.89,nothing,6
3.3,3.241414512,26,3,3,3,3,-440.0,11.04,-2.93,-2.1,1.7,-1.05,5.52,-157.375,26.625,630.0,0.6798095703125,0.36614990234375,0.15899658203125,0.0511,-34.5625,-35.0625,-14.3125,9.34,-1.88,nothing,6
3.31,3.257013877,26,3,3,3,3,-399.0,10.79,-3.02,-1.69,1.45,-1.13,6.55,-160.0,26.9375,632.3125,0.68499755859375,0.35650634765625,0.14959716796875,0.0511,-34.5625,-35.0625,-14.375,9.34,-1.88,nothing,6
3.32,3.257013877,26,3,3,3,3,-364.0,10.57,-2.94,-1.32,1.23,-1.04,7.45,-160.375,27.5625,634.125,0.69036865234375,0.3468017578125,0.14007568359375,0.0511,-34.5625,-35.0625,-14.4375,9.33,-1.9,nothing,6
3.33,3.270992759,26,3,3,3,3,-352.0,10.31,-2.53,-1.2,0.98,-0.62,7.48,-155.5625,27.875,635.625,0.69561767578125,0.33721923828125,0.1307373046875,0.0511,-34.5625,-35.0625,-14.5,9.33,-1.91,nothing,6
3.34,3.270992759,26,3,3,3,3,-357.0,9.59,-1.69,-1.25,0.26,0.22,6.5,-150.0625,27.5625,637.25,0.70025634765625,0.327880859375,0.1219482421875,0.0511,-34.5625,-35.0625,-14.5,9.33,-1.91,nothing,6
3.35,3.301097454,26,3,3,3,3,-360.0,9.43,-1.53,-1.26,0.1,0.37,5.52,-148.25,27.125,639.125,0.70440673828125,0.3184814453125,0.11334228515625,0.0452,-36.6875,-40.5,-14.5625,9.33,-1.91,nothing,6
3.36,3.301097454,26,3,3,3,3,-346.0,9.27,-1.51,-1.13,-0.05,0.39,5.19,-149.75,27.8125,641.0,0.7083740234375,0.30889892578125,0.104736328125,0.0452,-36.6875,-40.5,-14.5625,9.33,-1.9,nothing,6
3.37,3.315737469,26,3,3,3,3,-334.0,9.03,-1.58,-1.0,-0.29,0.31,5.41,-149.75,29.125,642.625,0.7122802734375,0.2991943359375,0.09619140625,0.0452,-36.6875,-40.5,-14.5625,9.33,-1.9,nothing,6
3.38,3.315737469,26,3,3,3,3,-336.0,8.66,-1.84,-1.02,-0.66,0.05,5.63,-148.3125,29.8125,644.0625,0.7161865234375,0.28948974609375,0.087646484375,0.0452,-36.6875,-40.5,-14.5625,9.33,-1.89,nothing,6
3.39,3.330562013,26,3,3,3,3,-337.0,8.62,-1.81,-1.03,-0.7,0.07,5.59,-148.9375,30.0625,645.375,0.71990966796875,0.27972412109375,0.0791015625,0.0452,-36.6875,-40.5,-14.625,9.33,-1.89,nothing,6
3.4,3.330562013,26,3,3,3,3,-339.0,8.5,-1.68,-1.05,-0.82,0.2,5.29,-150.25,29.625,646.6875,0.72344970703125,0.269775390625,0.07049560546875,0.0378,-39.1875,-46.25,-14.625,9.33,-1.88,nothing,6
3.41,3.361596152,26,3,3,3,3,-344.0,8.13,-1.31,-1.1,-1.2,0.56,5.0,-149.4375,28.5,648.0625,0.7266845703125,0.25994873046875,0.0618896484375,0.0378,-39.1875,-46.25,-14.625,9.33,-1.87,nothing,6
3.42,3.361596152,26,3,3,3,3,-336.0,7.99,-1.19,-1.01,-1.34,0.67,5.02,-147.375,28.0,649.25,0.72979736328125,0.25018310546875,0.0533447265625,0.0378,-39.1875,-46.25,-14.625,9.33,-1.86,nothing,6
3.43,3.376282228,26,3,3,3,3,-319.0,8.0,-1.18,-0.84,-1.33,0.67,5.4,-148.625,28.25,650.1875,0.73291015625,0.24029541015625,0.04473876953125,0.0378,-39.1875,-46.25,-14.625,9.33,-1.86,nothing,6
3.44,3.376282228,26,3,3,3,3,-298.0,8.1,-1.25,-0.63,-1.23,0.59,5.73,-151.5,28.9375,650.875,0.73602294921875,0.23016357421875,0.035888671875,0.0378,-39.1875,-46.25,-14.6875,9.33,-1.85,nothing,6
3.45,3.391371421,26,3,3,3,3,-279.0,8.4,-1.31,-0.43,-0.92,0.53,5.8,-153.375,29.375,651.5,0.739013671875,0.2198486328125,0.02691650390625,0.0312,-42.375,-48.25,-14.6875,9.33,-1.85,nothing,6
3.46,3.391371421,26,3,3,3,3,-284.0,8.49,-1.2,-0.49,-0.84,0.63,5.68,-153.6875,30.0625,652.0625,0.7418212890625,0.20947265625,0.01800537109375,0.0312,-42.375,-48.25,-14.6875,9.33,-1.84,nothing,6
3.47,3.421912355,26,3,3,3,3,-294.0,8.62,-1.08,-0.58,-0.71,0.75,5.65,-153.5625,30.875,652.5,0.7445068359375,0.198974609375,0.00909423828125,0.0312,-42.375,-48.25,-14.6875,9.34,-1.84,nothing,6
3.48,3.421912355,26,3,3,3,3,-300.0,8.71,-0.94,-0.65,-0.63,0.89,5.85,-155.0625,32.0625,652.6875,0.7471923828125,0.18829345703125,0.00018310546875,0.0312,-42.375,-48.25,-14.6875,9.34,-1.83,nothing,6
3.49,3.435700889,26,3,3,3,3,-335.0,8.7,-0.75,-1.0,-0.64,1.07,6.01,-156.5,33.4375,652.75,0.74969482421875,0.17742919921875,-0.0087890625,0.0312,-42.375,-48.25,-14.625,9.34,-1.83,nothing,6
3.5,3.435700889,26,3,3,3,3,-348.0,8.74,-0.74,-1.14,-0.6,1.09,5.98,-158.25,34.3125,652.75,0.75213623046875,0.16632080078125,-0.017822265625,0.0238,-44.875,-51.6875,-14.625,9.34,-1.83,nothing,6
3.51,3.451464764,26,3,3,3,3,-355.0,8.85,-0.79,-1.22,-0.48,1.03,5.72,-160.25,34.6875,652.6875,0.7542724609375,0.15509033203125,-0.02691650390625,0.0238,-44.875,-51.6875,-14.5625,9.34,-1.82,nothing,6
3.52,3.451464764,26,3,3,3,3,-364.0,9.22,-0.85,-1.31,-0.12,0.95,5.5,-161.75,34.5625,652.625,0.75616455078125,0.14373779296875,-0.0361328125,0.0238,-44.875,-51.6875,-14.5625,9.35,-1.81,nothing,6
3.53,3.481486737,26,3,3,3,3,-359.0,9.4,-1.07,-1.26,0.04,0.73,5.37,-162.3125,34.625,652.5,0.75787353515625,0.13232421875,-0.04534912109375,0.0238,-44.875,-51.6875,-14.5,9.35,-1.8,nothing,6
3.54,3.481486737,26,3,3,3,3,-341.0,9.29,-1.32,-1.09,-0.06,0.46,5.43,-162.1875,34.5,652.1875,0.75946044921875,0.120849609375,-0.0545654296875,0.0238,-44.875,-51.6875,-14.5,9.35,-1.79,nothing,6
3.55,3.496967328,26,3,3,3,3,-342.0,9.63,-1.55,-1.1,0.27,0.22,5.55,-161.5625,34.625,651.6875,0.7608642578125,0.10943603515625,-0.06365966796875,0.0158,-47.5,-52.0625,-14.4375,9.36,-1.78,nothing,6
3.56,3.496967328,26,3,3,3,3,-370.0,10.6,-1.6,-1.39,1.24,0.16,5.62,-160.125,34.5,651.0,0.76214599609375,0.0980224609375,-0.07275390625,0.0158,-47.5,-52.0625,-14.4375,9.36,-1.77,nothing,6
3.57,3.526238893,26,3,3,3,3,-365.0,10.68,-1.56,-1.35,1.31,0.2,5.6,-157.4375,33.6875,650.1875,0.7633056640625,0.08685302734375,-0.0816650390625,0.0158,-47.5,-52.0625,-14.375,9.36,-1.76,nothing,6
3.58,3.526238893,26,3,3,3,3,-351.0,10.62,-1.63,-1.21,1.25,0.12,5.53,-154.875,32.6875,649.1875,0.7642822265625,0.07586669921875,-0.09039306640625,0.0158,-47.5,-52.0625,-14.3125,9.36,-1.76,nothing,6
3.59,3.540824627,26,3,3,3,3,-331.0,10.55,-1.77,-1.02,1.18,-0.01,5.69,-153.0625,32.125,648.0,0.76519775390625,0.06494140625,-0.09906005859375,0.0158,-47.5,-52.0625,-14.3125,9.37,-1.75,nothing,6
3.6,3.540824627,26,3,3,3,3,-295.0,10.07,-2.24,-0.66,0.69,-0.48,5.88,-150.9375,31.5,646.625,0.7659912109375,0.05419921875,-0.10760498046875,0.0077,-48.875,-53.25,-14.25,9.37,-1.75,nothing,6
3.61,3.556620892,26,3,3,3,3,-275.0,9.71,-2.4,-0.47,0.33,-0.64,5.8,-148.1875,30.125,645.0625,0.76666259765625,0.043701171875,-0.11602783203125,0.0077,-48.875,-53.25,-14.25,9.37,-1.75,nothing,6
3.62,3.556620892,26,3,3,3,3,-247.0,9.34,-2.43,-0.19,-0.03,-0.67,5.44,-145.75,28.1875,643.5625,0.76708984375,0.033447265625,-0.1243896484375,0.0077,-48.875,-53.25,-14.25,9.37,-1.75,nothing,6
3.63,3.570792767,26,3,3,3,3,-205.0,9.05,-2.21,0.22,-0.31,-0.46,4.98,-142.625,25.9375,642.125,0.76727294921875,0.0235595703125,-0.132568359375,0.0077,-48.875,-53.25,-14.25,9.37,-1.74,nothing,6
3.64,3.570792767,26,3,3,3,3,-137.0,8.73,-1.61,0.9,-0.64,0.12,4.71,-138.875,24.25,640.625,0.7672119140625,0.0140380859375,-0.140625,0.0077,-48.875,-53.25,-14.25,9.37,-1.74,nothing,6
3.65,3.602240033,26,3,3,3,3,-125.0,8.78,-1.41,1.04,-0.59,0.32,4.47,-134.5625,23.6875,639.125,0.76708984375,0.0047607421875,-0.14837646484375,-0.002,-51.0625,-51.0,-14.3125,9.37,-1.73,nothing,6
3.66,3.602240033,26,3,3,3,3,-122.0,8.97,-1.34,1.06,-0.4,0.37,4.13,-131.4375,23.25,637.6875,0.7667236328125,-0.0042724609375,-0.1558837890625,-0.002,-51.0625,-51.0,-14.3125,9.37,-1.72,nothing,6
3.67,3.616199261,26,3,3,3,3,-135.0,9.23,-1.42,0.93,-0.14,0.27,3.74,-130.25,22.625,636.3125,0.76617431640625,-0.01318359375,-0.16339111328125,-0.002,-51.0625,-51.0,-14.3125,9.37,-1.7,nothing,6
3.68,3.616199261,26,3,3,3,3,-192.0,9.55,-1.84,0.37,0.17,-0.14,3.54,-129.9375,22.5625,634.9375,0.765380859375,-0.02203369140625,-0.17083740234375,-0.002,-51.0625,-51.0,-14.3125,9.38,-1.69,nothing,6
3.69,3.630478517,26,3,3,3,3,-227.0,9.52,-2.09,0.02,0.13,-0.41,3.84,-128.8125,23.0625,633.375,0.76470947265625,-0.0308837890625,-0.1781005859375,-0.002,-51.0625,-51.0,-14.3125,9.38,-1.68,nothing,6
3.7,3.630478517,26,3,3,3,3,-252.0,9.41,-2.27,-0.23,0.03,-0.59,4.62,-127.5625,24.0625,631.375,0.76416015625,-0.03985595703125,-0.18524169921875,-0.0081,-52.1875,-49.375,-14.3125,9.38,-1.67,nothing,6
3.71,3.662202394,26,3,3,3,3,-272.0,9.13,-2.32,-0.43,-0.24,-0.64,5.53,-125.9375,24.25,628.9375,0.7637939453125,-0.04876708984375,-0.19219970703125,-0.0081,-52.1875,-49.375,-14.3125,9.38,-1.68,nothing,6
3.72,3.662202394,26,3,3,3,3,-272.0,8.97,-2.18,-0.43,-0.4,-0.49,6.09,-124.0,23.75,626.1875,0.76361083984375,-0.0576171875,-0.19903564453125,-0.0081,-52.1875,-49.375,-14.25,9.38,-1.69,nothing,6
3.73,3.676737917,26,3,3,3,3,-267.0,8.99,-2.02,-0.38,-0.38,-0.31,6.28,-122.5625,22.4375,623.25,0.763427734375,-0.06634521484375,-0.205810546875,-0.0081,-52.1875,-49.375,-14.25,9.38,-1.71,nothing,6
3.74,3.676737917,26,3,3,3,3,-262.0,8.95,-1.87,-0.33,-0.41,-0.14,6.19,-121.25,21.0,620.25,0.76312255859375,-0.0748291015625,-0.2125244140625,-0.0081,-52.1875,-49.375,-14.3125,9.37,-1.72,nothing,6
3.75,3.691782757,26,3,3,3,3,-246.0,8.93,-1.82,-0.17,-0.44,-0.08,6.15,-119.5,19.625,617.1875,0.76275634765625,-0.08319091796875,-0.21917724609375,-0.0152,-52.875,-47.875,-14.3125,9.37,-1.73,nothing,6
3.76,3.691782757,26,3,3,3,3,-233.0,8.98,-1.98,-0.03,-0.38,-0.22,6.26,-117.6875,18.875,614.0,0.76239013671875,-0.09136962890625,-0.2257080078125,-0.0152,-52.875,-47.875,-14.375,9.36,-1.75,nothing,6
3.77,3.721337811,26,3,3,3,3,-215.0,8.88,-2.2,0.15,-0.47,-0.43,6.22,-115.875,18.6875,610.75,0.76190185546875,-0.09942626953125,-0.232177734375,-0.0152,-52.875,-47.875,-14.375,9.36,-1.77,nothing,6
3.78,3.721337811,26,3,3,3,3,-202.0,8.78,-2.36,0.28,-0.57,-0.57,6.08,-113.0625,18.6875,607.5,0.76141357421875,-0.1072998046875,-0.23834228515625,-0.0152,-52.875,-47.875,-14.4375,9.36,-1.78,nothing,6
3.79,3.766415204,26,3,3,3,3,-178.0,8.68,-2.48,0.53,-0.66,-0.68,5.99,-110.9375,18.6875,604.25,0.76080322265625,-0.11505126953125,-0.244384765625,-0.0152,-52.875,-47.875,-14.4375,9.35,-1.8,nothing,6
3.8,3.766415204,26,3,3,3,3,-186.0,8.85,-2.36,0.45,-0.49,-0.54,6.07,-109.3125,18.875,600.9375,0.76019287109375,-0.12274169921875,-0.25030517578125,-0.0205,-54.75,-43.6875,-14.4375,9.35,-1.82,nothing,6
3.81,3.769701703,26,3,3,3,3,-208.0,9.03,-2.13,0.23,-0.31,-0.29,6.05,-106.625,18.375,597.5625,0.75958251953125,-0.1302490234375,-0.2559814453125,-0.0205,-54.75,-43.6875,-14.5,9.34,-1.84,nothing,6
3.82,3.769701703,26,3,3,3,3,-229.0,9.26,-2.0,0.02,-0.07,-0.14,6.02,-104.9375,17.4375,594.1875,0.7589111328125,-0.1375732421875,-0.26165771484375,-0.0205,-54.75,-43.6875,-14.5,9.34,-1.86,nothing,6
3.83,3.772522056,26,3,3,3,3,-250.0,9.5,-2.1,-0.16,0.16,-0.22,6.15,-104.8125,17.0,590.6875,0.7581787109375,-0.1448974609375,-0.26727294921875,-0.0205,-54.75,-43.6875,-14.5625,9.33,-1.88,nothing,6
3.84,3.772522056,26,3,3,3,3,-251.0,9.54,-2.3,-0.17,0.21,-0.4,6.35,-104.25,16.375,587.0,0.75750732421875,-0.152099609375,-0.2728271484375,-0.0205,-54.75,-43.6875,-14.625,9.33,-1.9,nothing,6
3.85,3.796877565,26,3,3,3,3,-247.0,9.49,-2.52,-0.12,0.17,-0.59,6.47,-102.125,16.0,583.25,0.7568359375,-0.15924072265625,-0.2781982421875,-0.025,-55.1875,-39.375,-14.6875,9.32,-1.92,nothing,6
3.86,3.796877565,26,3,3,3,3,-235.0,9.4,-2.69,0.0,0.08,-0.74,6.43,-99.8125,15.75,579.4375,0.75616455078125,-0.16619873046875,-0.283447265625,-0.025,-55.1875,-39.375,-14.6875,9.31,-1.95,nothing,6
3.87,3.811599815,26,3,3,3,3,-204.0,9.2,-2.66,0.32,-0.1,-0.68,6.24,-97.5625,15.8125,575.75,0.75543212890625,-0.17303466796875,-0.28851318359375,-0.025,-55.1875,-39.375,-14.75,9.3,-1.97,nothing,6
3.88,3.811599815,26,3,3,3,3,-199.0,9.14,-2.39,0.37,-0.16,-0.39,5.93,-94.75,15.6875,572.1875,0.75457763671875,-0.17962646484375,-0.29345703125,-0.025,-55.1875,-39.375,-14.8125,9.3,-1.99,nothing,6
3.89,3.842482424,26,3,3,3,3,-201.0,9.14,-2.13,0.36,-0.15,-0.12,5.65,-92.0625,15.375,568.6875,0.753662109375,-0.18603515625,-0.2982177734375,-0.025,-55.1875,-39.375,-14.875,9.29,-2.01,nothing,6
3.9,3.842482424,26,3,3,3,3,-193.0,9.21,-2.07,0.44,-0.07,-0.04,5.42,-90.5625,15.25,565.3125,0.752685546875,-0.1922607421875,-0.3028564453125,-0.0289,-56.25,-35.5625,-14.875,9.29,-2.03,nothing,6
3.91,3.85602759,26,3,3,3,3,-186.0,9.4,-2.19,0.53,0.11,-0.14,5.28,-89.125,15.0625,561.9375,0.75164794921875,-0.19842529296875,-0.30743408203125,-0.0289,-56.25,-35.5625,-14.9375,9.28,-2.04,nothing,6
3.92,3.85602759,26,3,3,3,3,-176.0,9.57,-2.42,0.63,0.29,-0.36,5.16,-88.9375,15.3125,558.5625,0.75054931640625,-0.20452880859375,-0.31195068359375,-0.0289,-56.25,-35.5625,-15.0,9.28,-2.06,nothing,6
3.93,3.871541262,26,3,3,3,3,-176.0,9.55,-2.6,0.64,0.28,-0.53,5.13,-88.25,15.5,555.25,0.74932861328125,-0.21063232421875,-0.31640625,-0.0289,-56.25,-35.5625,-15.0625,9.27,-2.07,nothing,6
3.94,3.871541262,26,3,3,3,3,-195.0,9.18,-2.69,0.45,-0.08,-0.6,5.26,-86.75,16.125,551.8125,0.7481689453125,-0.2166748046875,-0.3206787109375,-0.0289,-56.25,-35.5625,-15.0625,9.27,-2.09,nothing,6
3.95,3.902388226,26,3,3,3,3,-203.0,8.93,-2.58,0.38,-0.33,-0.47,5.59,-86.1875,16.875,548.3125,0.7470703125,-0.22283935546875,-0.32489013671875,-0.0331,-57.375,-31.1875,-15.0625,9.26,-2.11,nothing,6
3.96,3.902388226,26,3,3,3,3,-209.0,8.71,-2.34,0.33,-0.54,-0.21,5.94,-85.8125,17.5625,544.625,0.7459716796875,-0.22900390625,-0.32891845703125,-0.0331,-57.375,-31.1875,-15.125,9.25,-2.13,nothing,6
3.97,3.917212811,26,3,3,3,3,-234.0,8.62,-2.07,0.08,-0.62,0.08,5.95,-84.8125,18.0625,540.9375,0.744873046875,-0.23516845703125,-0.33282470703125,-0.0331,-57.375,-31.1875,-15.125,9.25,-2.16,nothing,6
3.98,3.917212811,26,3,3,3,3,-283.0,9.48,-1.56,-0.4,0.23,0.61,5.67,-83.0,17.6875,537.3125,0.74371337890625,-0.2412109375,-0.336669921875,-0.0331,-57.375,-31.1875,-15.125,9.24,-2.18,nothing,6
3.99,3.94810486,26,3,3,3,3,-329.0,10.09,-1.34,-0.86,0.84,0.85,5.31,-82.25,17.1875,533.8125,0.742431640625,-0.2470703125,-0.34051513671875,-0.0331,-57.375,-31.1875,-15.1875,9.24,-2.2,nothing,6
4.0,3.94810486,26,3,3,3,3,-353.0,10.09,-1.29,-1.09,0.86,0.92,5.04,-81.8125,16.4375,530.4375,0.7410888671875,-0.25274658203125,-0.3443603515625,-0.0349,-57.375,-28.5625,-15.1875,9.23,-2.21,nothing,6
4.01,3.96142383,26,3,3,3,3,-366.0,9.48,-1.47,-1.22,0.25,0.75,5.05,-82.875,16.0625,526.9375,0.7396240234375,-0.25848388671875,-0.34832763671875,-0.0349,-57.375,-28.5625,-15.25,9.23,-2.23,nothing,6
4.02,3.96142383,26,3,3,3,3,-419.0,8.8,-1.88,-1.74,-0.42,0.35,5.07,-83.0625,16.5625,523.4375,0.7381591796875,-0.26422119140625,-0.3521728515625,-0.0349,-57.375,-28.5625,-15.25,9.22,-2.24,nothing,6
4.03,3.976963991,26,3,3,3,3,-404.0,8.77,-1.98,-1.59,-0.44,0.27,4.39,-81.3125,16.8125,520.25,0.7364501953125,-0.269775390625,-0.35601806640625,-0.0349,-57.375,-28.5625,-15.3125,9.22,-2.25,nothing,6
4.04,3.976963991,26,3,3,3,3,-387.0,8.65,-2.06,-1.41,-0.56,0.18,3.21,-80.125,15.6875,517.4375,0.73443603515625,-0.27496337890625,-0.3599853515625,-0.0349,-57.375,-28.5625,-15.375,9.22,-2.25,nothing,6
4.05,3.997363121,26,3,3,3,3,-375.0,8.55,-2.02,-1.28,-0.66,0.22,2.22,-78.4375,13.75,515.0625,0.73223876953125,-0.27972412109375,-0.36407470703125,-0.038,-57.5625,-23.0625,-15.375,9.22,-2.24,nothing,6
4.06,3.997363121,26,3,3,3,3,-363.0,8.65,-1.86,-1.15,-0.56,0.36,2.17,-76.4375,12.875,512.6875,0.7301025390625,-0.2843017578125,-0.36810302734375,-0.038,-57.5625,-23.0625,-15.4375,9.22,-2.23,nothing,6
4.07,4.021140139,26,3,3,3,3,-344.0,8.63,-1.74,-0.95,-0.58,0.48,3.03,-76.375,12.875,509.875,0.7281494140625,-0.2890625,-0.37188720703125,-0.038,-57.5625,-23.0625,-15.5,9.21,-2.23,nothing,6
4.08,4.021140139,26,3,3,3,3,-345.0,8.64,-1.68,-0.95,-0.57,0.55,3.96,-77.25,13.6875,506.75,0.726318359375,-0.29412841796875,-0.3756103515625,-0.038,-57.5625,-23.0625,-15.5625,9.21,-2.23,nothing,6
4.09,4.036141685,26,3,3,3,3,-435.0,9.07,-1.67,-1.85,-0.13,0.56,4.35,-76.0,15.0625,503.4375,0.724609375,-0.2991943359375,-0.3790283203125,-0.038,-57.5625,-23.0625,-15.625,9.21,-2.24,nothing,6
4.1,4.036141685,26,3,3,3,3,-500.0,9.47,-1.82,-2.5,0.26,0.43,3.96,-74.5625,15.9375,500.375,0.7227783203125,-0.30419921875,-0.3824462890625,-0.0397,-56.875,-19.1875,-15.625,9.2,-2.25,nothing,6
4.11,4.052385663,26,3,3,3,3,-546.0,9.76,-2.08,-2.95,0.56,0.17,3.31,-74.5625,16.125,497.5625,0.720703125,-0.30908203125,-0.38592529296875,-0.0397,-56.875,-19.1875,-15.625,9.2,-2.25,nothing,6
4.12,4.052385663,26,3,3,3,3,-571.0,9.76,-2.28,-3.19,0.56,-0.02,3.01,-74.375,15.75,494.8125,0.71856689453125,-0.3138427734375,-0.389404296875,-0.0397,-56.875,-19.1875,-15.6875,9.2,-2.25,nothing,6
4.13,4.081584678,26,3,3,3,3,-573.0,9.49,-2.53,-3.21,0.28,-0.28,3.4,-73.0,14.5,491.875,0.716552734375,-0.31854248046875,-0.392822265625,-0.0397,-56.875,-19.1875,-15.6875,9.2,-2.25,nothing,6
4.14,4.081584678,26,3,3,3,3,-545.0,9.33,-2.53,-2.92,0.13,-0.26,4.22,-69.4375,13.1875,488.6875,0.71490478515625,-0.32318115234375,-0.3958740234375,-0.0397,-56.875,-19.1875,-15.75,9.2,-2.26,nothing,6
4.15,4.096532432,26,3,3,3,3,-518.0,9.19,-2.54,-2.65,0.0,-0.25,4.68,-64.5625,11.875,485.375,0.71356201171875,-0.32757568359375,-0.3985595703125,-0.0405,-56.1875,-16.0625,-15.8125,9.19,-2.28,nothing,6
4.16,4.096532432,26,3,3,3,3,-495.0,9.03,-2.58,-2.41,-0.15,-0.28,4.45,-60.8125,10.5,482.1875,0.7122802734375,-0.3316650390625,-0.401123046875,-0.0405,-56.1875,-16.0625,-15.875,9.18,-2.3,nothing,6
4.17,4.1112369,26,3,3,3,3,-443.0,8.73,-2.69,-1.88,-0.44,-0.37,3.82,-57.25,9.0625,479.25,0.71099853515625,-0.33544921875,-0.4036865234375,-0.0405,-56.1875,-16.0625,-15.875,9.18,-2.31,nothing,6
4.18,4.1112369,26,3,3,3,3,-431.0,8.61,-2.62,-1.76,-0.56,-0.3,3.14,-52.4375,8.4375,476.75,0.709716796875,-0.3387451171875,-0.406005859375,-0.0405,-56.1875,-16.0625,-15.9375,9.17,-2.32,nothing,6
4.19,4.141497032,26,3,3,3,3,-427.0,8.43,-2.51,-1.71,-0.74,-0.18,2.66,-46.6875,8.125,474.5625,0.70843505859375,-0.34173583984375,-0.4080810546875,-0.0405,-56.1875,-16.0625,-16.0,9.17,-2.32,nothing,6
4.2,4.141497032,26,3,3,3,3,-407.0,8.08,-2.27,-1.5,-1.08,0.06,2.5,-43.75,7.875,472.5,0.707275390625,-0.34454345703125,-0.4100341796875,-0.0425,-56.875,-12.5625,-16.0625,9.17,-2.33,nothing,6
4.21,4.155932253,26,3,3,3,3,-400.0,8.0,-2.09,-1.42,-1.16,0.24,2.43,-43.25,7.6875,470.4375,0.70611572265625,-0.3472900390625,-0.4119873046875,-0.0425,-56.875,-12.5625,-16.0625,9.16,-2.33,nothing,6
4.22,4.155932253,26,3,3,3,3,-398.0,7.92,-1.98,-1.4,-1.24,0.35,2.34,-41.6875,7.375,468.5,0.70501708984375,-0.34991455078125,-0.413818359375,-0.0425,-56.875,-12.5625,-16.125,9.16,-2.34,nothing,6
4.23,4.1707275,26,3,3,3,3,-400.0,7.8,-1.92,-1.41,-1.35,0.42,1.99,-40.3125,7.0625,466.6875,0.70379638671875,-0.35235595703125,-0.4156494140625,-0.0425,-56.875,-12.5625,-16.125,9.16,-2.34,nothing,6
4.24,4.1707275,26,3,3,3,3,-402.0,7.76,-1.99,-1.43,-1.39,0.34,1.42,-40.0625,6.5625,465.125,0.7025146484375,-0.35467529296875,-0.4176025390625,-0.0425,-56.875,-12.5625,-16.1875,9.16,-2.34,nothing,6
4.25,4.200960858,26,3,3,3,3,-401.0,7.73,-2.02,-1.41,-1.42,0.3,1.12,-39.4375,6.25,463.625,0.701171875,-0.35687255859375,-0.4195556640625,-0.0422,-57.25,-10.6875,-16.25,9.16,-2.33,nothing,6
4.26,4.200960858,26,3,3,3,3,-401.0,7.73,-2.03,-1.41,-1.42,0.28,1.19,-38.4375,6.375,462.1875,0.6998291015625,-0.3590087890625,-0.42144775390625,-0.0422,-57.25,-10.6875,-16.25,9.16,-2.32,nothing,6
4.27,4.215681195,26,3,3,3,3,-397.0,7.8,-2.07,-1.36,-1.35,0.24,1.47,-37.5625,6.3125,460.625,0.6986083984375,-0.3612060546875,-0.4232177734375,-0.0422,-57.25,-10.6875,-16.3125,9.16,-2.32,nothing,6
4.28,4.215681195,26,3,3,3,3,-393.0,7.86,-2.03,-1.31,-1.29,0.28,1.84,-36.6875,6.625,458.9375,0.697509765625,-0.3634033203125,-0.42486572265625,-0.0422,-57.25,-10.6875,-16.3125,9.15,-2.32,nothing,6
4.29,4.230973635,26,3,3,3,3,-394.0,7.86,-2.01,-1.26,-1.27,0.31,2.13,-36.0,6.8125,455.75,0.69720458984375,-0.36419677734375,-0.42803955078125,-0.0422,-57.25,-10.6875,-16.6875,9.14,-2.32,nothing,6
4.3,4.230973635,26,3,3,3,3,-397.0,7.91,-1.99,-1.24,-1.21,0.33,2.39,-34.75,7.0625,452.5625,0.6968994140625,-0.364990234375,-0.4310302734375,-0.0425,-55.75,-7.5625,-17.0,9.12,-2.33,nothing,6
4.31,4.261099327,26,3,3,3,3,-394.0,7.9,-1.97,-1.16,-1.2,0.36,2.58,-33.5,7.6875,449.4375,0.6966552734375,-0.36590576171875,-0.433837890625,-0.0425,-55.75,-7.5625,-17.3125,9.1,-2.33,nothing,6
4.32,4.261099327,26,3,3,3,3,-400.0,7.83,-1.91,-1.17,-1.25,0.42,2.62,-32.5625,8.0,446.375,0.69635009765625,-0.36676025390625,-0.4365234375,-0.0425,-55.75,-7.5625,-17.625,9.09,-2.34,nothing,6
4.33,4.275679242,26,3,3,3,3,-410.0,8.39,-1.76,-1.27,-0.7,0.58,2.52,-32.125,8.1875,444.625,0.6954345703125,-0.36907958984375,-0.437744140625,-0.0425,-55.75,-7.5625,-17.625,9.09,-2.35,nothing,6
4.34,4.275679242,26,3,3,3,3,-438.0,9.2,-1.54,-1.55,0.11,0.81,2.17,-31.5,8.125,443.0625,0.69451904296875,-0.37127685546875,-0.43890380859375,-0.0425,-55.75,-7.5625,-17.625,9.08,-2.35,nothing,6
4.35,4.290902671,26,3,3,3,3,-438.0,9.2,-1.54,-1.55,0.11,0.81,2.17,-31.5,8.125,443.0625,0.69451904296875,-0.37127685546875,-0.43890380859375,-0.0425,-55.75,-7.5625,-17.625,9.08,-2.35,nothing,6
4.35,4.290902671,26,3,3,3,3,-452.0,9.52,-1.36,-1.69,0.44,0.99,1.75,-30.5625,7.8125,441.625,0.6934814453125,-0.373291015625,-0.44012451171875,-0.0436,-55.0,-5.5,-17.625,9.08,-2.35,nothing,6
4.36,4.306156334,26,3,3,3,3,-427.0,8.89,-1.87,-1.44,-0.18,0.48,1.64,-33.25,7.25,440.125,0.6923828125,-0.37530517578125,-0.44158935546875,-0.0436,-55.0,-5.5,-17.6875,9.08,-2.35,nothing,6
4.37,4.306156334,26,3,3,3,3,-443.0,9.31,-2.3,-1.59,0.22,0.05,1.97,-34.9375,7.625,438.5,0.69122314453125,-0.3775634765625,-0.44305419921875,-0.0436,-55.0,-5.5,-17.6875,9.08,-2.36,nothing,6
4.38,4.321655398,26,3,3,3,3,-442.0,9.72,-2.56,-1.59,0.64,-0.2,2.02,-32.6875,7.4375,436.875,0.690185546875,-0.37969970703125,-0.4443359375,-0.0436,-55.0,-5.5,-17.6875,9.08,-2.36,nothing,6
4.39,4.321655398,26,3,3,3,3,-391.0,9.52,-2.84,-1.07,0.44,-0.48,1.6,-29.9375,5.9375,435.4375,0.689208984375,-0.38153076171875,-0.44561767578125,-0.0436,-55.0,-5.5,-17.75,9.08,-2.36,nothing,6
4.4,4.352111493,26,3,3,3,3,-367.0,9.23,-2.88,-0.82,0.15,-0.52,1.17,-27.4375,4.5,434.25,0.68829345703125,-0.383056640625,-0.4468994140625,-0.0436,-55.25,-2.75,-17.75,9.08,-2.36,nothing,6
4.41,4.352111493,26,3,3,3,3,-352.0,9.01,-2.7,-0.67,-0.06,-0.34,0.94,-23.75,3.875,433.1875,0.68743896484375,-0.3843994140625,-0.447998046875,-0.0436,-55.25,-2.75,-17.8125,9.08,-2.36,nothing,6
4.42,4.366632245,26,3,3,3,3,-332.0,8.93,-2.65,-0.47,-0.14,-0.29,0.98,-20.0,3.75,432.25,0.686767578125,-0.38555908203125,-0.44891357421875,-0.0436,-55.25,-2.75,-17.8125,9.08,-2.35,nothing,6
4.43,4.366632245,26,3,3,3,3,-300.0,8.69,-2.57,-0.15,-0.38,-0.21,0.89,-17.375,3.625,431.4375,0.6861572265625,-0.3865966796875,-0.44964599609375,-0.0436,-55.25,-2.75,-17.8125,9.07,-2.35,nothing,6
4.44,4.381880455,26,3,3,3,3,-293.0,8.6,-2.52,-0.07,-0.47,-0.16,0.45,-14.25,3.8125,430.9375,0.68560791015625,-0.387451171875,-0.45025634765625,-0.0436,-55.25,-2.75,-17.8125,9.08,-2.35,nothing,6
4.45,4.381880455,26,3,3,3,3,-296.0,8.57,-2.48,-0.11,-0.5,-0.13,0.06,-10.75,3.625,430.6875,0.68505859375,-0.38800048828125,-0.4508056640625,-0.0444,-55.0,-2.5,-17.8125,9.08,-2.35,nothing,6
4.46,4.41160779,26,3,3,3,3,-303.0,8.53,-2.4,-0.18,-0.55,-0.06,-0.22,-7.8125,3.6875,430.625,0.6845703125,-0.388427734375,-0.45123291015625,-0.0444,-55.0,-2.5,-17.8125,9.08,-2.34,nothing,6
4.47,4.41160779,26,3,3,3,3,-331.0,8.53,-2.29,-0.46,-0.54,0.04,-0.35,-5.875,3.5,430.6875,0.68414306640625,-0.3887939453125,-0.4515380859375,-0.0444,-55.0,-2.5,-17.8125,9.08,-2.33,nothing,6
4.48,4.426681684,26,3,3,3,3,-345.0,8.65,-2.21,-0.6,-0.43,0.12,-0.23,-4.0625,3.5625,430.75,0.683837890625,-0.3890380859375,-0.4517822265625,-0.0444,-55.0,-2.5,-17.75,9.08,-2.33,nothing,6
4.49,4.426681684,26,3,3,3,3,-352.0,8.73,-2.13,-0.67,-0.36,0.19,-0.11,-2.125,3.0625,430.8125,0.68359375,-0.3892822265625,-0.45184326171875,-0.0444,-55.0,-2.5,-17.75,9.09,-2.33,nothing,6
4.5,4.457990033,26,3,3,3,3,-354.0,8.77,-2.11,-0.7,-0.31,0.21,-0.04,0.1875,2.8125,430.9375,0.68353271484375,-0.389404296875,-0.45172119140625,-0.0452,-55.25,-2.0625,-17.75,9.09,-2.33,nothing,6
4.51,4.457990033,26,3,3,3,3,-343.0,8.88,-2.16,-0.59,-0.2,0.16,-0.07,2.125,2.3125,431.0625,0.68353271484375,-0.38946533203125,-0.4515380859375,-0.0452,-55.25,-2.0625,-17.6875,9.09,-2.33,nothing,6
4.52,4.4706803,26,3,3,3,3,-330.0,8.98,-2.3,-0.46,-0.1,0.02,-0.19,2.9375,1.8125,431.3125,0.68353271484375,-0.38934326171875,-0.45135498046875,-0.0452,-55.25,-2.0625,-17.6875,9.09,-2.33,nothing,6
4.53,4.4706803,26,3,3,3,3,-320.0,9.01,-2.46,-0.37,-0.08,-0.13,-0.36,3.8125,1.5,431.625,0.68359375,-0.38922119140625,-0.451171875,-0.0452,-55.25,-2.0625,-17.6875,9.09,-2.32,nothing,6
4.54,4.486778201,26,3,3,3,3,-306.0,9.04,-2.68,-0.24,-0.05,-0.36,-0.52,5.0,0.875,432.0,0.68365478515625,-0.388916015625,-0.45098876953125,-0.0452,-55.25,-2.0625,-17.625,9.09,-2.32,nothing,6
4.55,4.486778201,26,3,3,3,3,-298.0,9.03,-2.7,-0.15,-0.06,-0.37,-0.53,5.875,0.5625,432.4375,0.6837158203125,-0.38861083984375,-0.45074462890625,-0.0452,-54.6875,-1.1875,-17.625,9.09,-2.32,nothing,6
4.56,4.501939415,26,3,3,3,3,-289.0,9.06,-2.59,-0.07,-0.03,-0.27,-0.42,6.5625,0.375,432.8125,0.68389892578125,-0.38818359375,-0.45050048828125,-0.0452,-54.6875,-1.1875,-17.625,9.09,-2.32,nothing,6
4.57,4.501939415,26,3,3,3,3,-286.0,9.06,-2.5,-0.04,-0.03,-0.17,-0.32,7.3125,0.4375,433.1875,0.68408203125,-0.3878173828125,-0.45013427734375,-0.0452,-54.6875,-1.1875,-17.625,9.09,-2.32,nothing,6
4.58,4.53217143,26,3,3,3,3,-287.0,9.09,-2.36,-0.05,0.0,-0.03,-0.28,8.125,0.8125,433.5625,0.684326171875,-0.38751220703125,-0.44970703125,-0.0452,-54.6875,-1.1875,-17.5625,9.1,-2.32,nothing,6
4.59,4.53217143,26,3,3,3,3,-287.0,9.09,-2.41,-0.05,0.0,-0.09,-0.34,8.0,1.0625,434.0,0.6845703125,-0.38714599609375,-0.44927978515625,-0.0452,-54.6875,-1.1875,-17.5625,9.1,-2.32,nothing,6
4.6,4.547368777,26,3,3,3,3,-288.0,9.05,-2.51,-0.07,-0.04,-0.18,-0.48,7.6875,1.375,434.5,0.6846923828125,-0.3868408203125,-0.44891357421875,-0.0461,-55.0,-1.875,-17.5,9.1,-2.32,nothing,6
4.61,4.547368777,26,3,3,3,3,-284.0,8.99,-2.59,-0.04,-0.11,-0.27,-0.61,7.375,1.375,434.9375,0.68487548828125,-0.386474609375,-0.44854736328125,-0.0461,-55.0,-1.875,-17.5,9.1,-2.32,nothing,6
4.62,4.561590904,26,3,3,3,3,-294.0,8.9,-2.56,-0.14,-0.19,-0.24,-0.63,7.5,1.625,435.375,0.68505859375,-0.3861083984375,-0.44818115234375,-0.0461,-55.0,-1.875,-17.5,9.1,-2.32,nothing,6
4.63,4.561590904,26,3,3,3,3,-295.0,8.91,-2.46,-0.15,-0.19,-0.14,-0.57,7.75,1.75,435.8125,0.68524169921875,-0.3857421875,-0.44775390625,-0.0461,-55.0,-1.875,-17.4375,9.1,-2.32,nothing,6
4.64,4.591514529,26,3,3,3,3,-297.0,8.86,-2.38,-0.17,-0.24,-0.06,-0.54,8.1875,1.5,436.25,0.68548583984375,-0.3853759765625,-0.44732666015625,-0.0461,-55.0,-1.875,-17.4375,9.1,-2.32,nothing,6
4.65,4.591514529,26,3,3,3,3,-299.0,8.83,-2.3,-0.2,-0.27,0.01,-0.58,8.375,1.125,436.75,0.6856689453125,-0.3848876953125,-0.44696044921875,-0.0459,-55.0,-2.0,-17.4375,9.11,-2.32,nothing,6
4.66,4.6065824,26,3,3,3,3,-295.0,8.79,-2.27,-0.16,-0.31,0.04,-0.64,8.3125,0.8125,437.1875,0.68585205078125,-0.3843994140625,-0.4466552734375,-0.0459,-55.0,-2.0,-17.375,9.11,-2.31,nothing,6
4.67,4.6065824,26,3,3,3,3,-295.0,8.78,-2.3,-0.16,-0.32,0.0,-0.73,7.75,0.5625,437.6875,0.68603515625,-0.3839111328125,-0.44635009765625,-0.0459,-55.0,-2.0,-17.375,9.11,-2.31,nothing,6
4.68,4.621820193,26,3,3,3,3,-295.0,8.8,-2.32,-0.16,-0.31,-0.01,-0.85,7.5,0.1875,438.1875,0.6861572265625,-0.38336181640625,-0.4461669921875,-0.0459,-55.0,-2.0,-17.375,9.11,-2.31,nothing,6
4.69,4.621820193,26,3,3,3,3,-295.0,8.89,-2.45,-0.17,-0.21,-0.15,-1.0,7.0625,0.0,438.75,0.686279296875,-0.3828125,-0.44598388671875,-0.0459,-55.0,-2.0,-17.375,9.11,-2.3,nothing,6
4.7,4.652749636,26,3,3,3,3,-302.0,8.97,-2.44,-0.24,-0.14,-0.15,-1.09,6.9375,-0.125,439.25,0.6864013671875,-0.3822021484375,-0.44586181640625,-0.0463,-55.25,-2.6875,-17.375,9.11,-2.29,nothing,6
4.71,4.652749636,26,3,3,3,3,-305.0,9.04,-2.47,-0.26,-0.07,-0.18,-1.08,7.1875,-0.625,439.75,0.6865234375,-0.381591796875,-0.4456787109375,-0.0463,-55.25,-2.6875,-17.375,9.11,-2.29,nothing,6
4.72,4.666611575,26,3,3,3,3,-310.0,9.08,-2.43,-0.31,-0.03,-0.14,-0.97,7.0625,-0.9375,440.1875,0.68670654296875,-0.38092041015625,-0.445556640625,-0.0463,-55.25,-2.6875,-17.375,9.11,-2.28,nothing,6
4.73,4.666611575,26,3,3,3,3,-307.0,9.1,-2.42,-0.28,-0.01,-0.14,-0.83,6.6875,-1.3125,440.5625,0.6868896484375,-0.38037109375,-0.4454345703125,-0.0463,-55.25,-2.6875,-17.4375,9.11,-2.28,nothing,6
4.74,4.681733686,26,3,3,3,3,-303.0,9.12,-2.45,-0.23,0.0,-0.17,-0.72,6.75,-1.8125,440.875,0.6871337890625,-0.3797607421875,-0.4453125,-0.0463,-55.25,-2.6875,-17.4375,9.11,-2.28,nothing,6
4.75,4.681733686,26,3,3,3,3,-305.0,9.05,-2.47,-0.25,-0.06,-0.19,-0.69,6.9375,-1.8125,441.1875,0.6873779296875,-0.379150390625,-0.44512939453125,-0.0451,-55.1875,-3.5,-17.4375,9.11,-2.27,nothing,6
4.76,4.711746991,26,3,3,3,3,-307.0,9.05,-2.51,-0.27,-0.06,-0.23,-0.7,7.6875,-2.0,441.4375,0.68768310546875,-0.37847900390625,-0.4449462890625,-0.0451,-55.1875,-3.5,-17.5,9.11,-2.27,nothing,6
4.77,4.711746991,26,3,3,3,3,-305.0,9.01,-2.48,-0.24,-0.1,-0.2,-0.75,8.4375,-2.0,441.8125,0.68804931640625,-0.3778076171875,-0.4447021484375,-0.0451,-55.1875,-3.5,-17.5,9.11,-2.27,nothing,6
4.78,4.726857872,26,3,3,3,3,-306.0,9.0,-2.44,-0.25,-0.11,-0.16,-0.76,9.125,-2.25,442.125,0.6883544921875,-0.3770751953125,-0.44439697265625,-0.0451,-55.1875,-3.5,-17.5,9.11,-2.27,nothing,6
4.79,4.726857872,26,3,3,3,3,-308.0,9.05,-2.37,-0.27,-0.06,-0.1,-0.75,9.9375,-2.25,442.5625,0.688720703125,-0.3763427734375,-0.444091796875,-0.0451,-55.1875,-3.5,-17.5,9.11,-2.27,nothing,6
4.8,4.7419421,26,3,3,3,3,-305.0,9.11,-2.38,-0.23,0.0,-0.11,-0.75,10.125,-2.3125,443.0,0.6890869140625,-0.37554931640625,-0.44378662109375,-0.0451,-55.1875,-3.0625,-17.5625,9.11,-2.27,nothing,6
4.81,4.7419421,26,3,3,3,3,-295.0,9.17,-2.36,-0.14,0.05,-0.09,-0.83,10.4375,-2.5,443.5,0.689453125,-0.374755859375,-0.4434814453125,-0.0451,-55.1875,-3.0625,-17.5625,9.11,-2.27,nothing,6
4.82,4.77133179,26,3,3,3,3,-304.0,9.15,-2.25,-0.23,0.04,0.01,-0.88,11.25,-2.625,444.0625,0.68975830078125,-0.3739013671875,-0.443115234375,-0.0451,-55.1875,-3.0625,-17.5625,9.11,-2.26,nothing,6
4.83,4.77133179,26,3,3,3,3,-314.0,9.09,-2.23,-0.33,-0.01,0.03,-0.87,11.8125,-2.3125,444.625,0.69012451171875,-0.373046875,-0.4427490234375,-0.0451,-55.1875,-3.0625,-17.5625,9.11,-2.26,nothing,6
4.84,4.787171226,26,3,3,3,3,-307.0,8.95,-2.34,-0.25,-0.15,-0.08,-0.84,10.5625,-2.0625,445.125,0.69049072265625,-0.37225341796875,-0.4423828125,-0.0451,-55.1875,-3.0625,-17.5625,9.11,-2.26,nothing,6
4.85,4.787171226,26,3,3,3,3,-310.0,8.87,-2.31,-0.28,-0.24,-0.05,-0.76,9.375,-2.0625,445.5625,0.6907958984375,-0.37152099609375,-0.442138671875,-0.0464,-55.1875,-3.5,-17.625,9.11,-2.25,nothing,6
4.86,4.802990237,26,3,3,3,3,-314.0,8.86,-2.26,-0.32,-0.25,-0.01,-0.8,9.5,-2.0625,445.9375,0.69110107421875,-0.3707275390625,-0.44189453125,-0.0464,-55.1875,-3.5,-17.625,9.11,-2.25,nothing,6
4.87,4.802990237,26,3,3,3,3,-315.0,8.84,-2.25,-0.32,-0.27,0.0,-0.83,8.5,-2.25,446.3125,0.69140625,-0.36993408203125,-0.4417724609375,-0.0464,-55.1875,-3.5,-17.625,9.11,-2.25,nothing,6
4.88,4.832961672,26,3,3,3,3,-313.0,8.85,-2.12,-0.29,-0.25,0.11,-0.86,8.0625,-2.625,446.6875,0.691650390625,-0.369140625,-0.441650390625,-0.0464,-55.1875,-3.5,-17.6875,9.11,-2.24,nothing,6
4.89,4.832961672,26,3,3,3,3,-314.0,8.91,-2.07,-0.3,-0.2,0.16,-0.95,8.625,-2.6875,447.125,0.69189453125,-0.3682861328125,-0.44158935546875,-0.0464,-55.1875,-3.5,-17.6875,9.11,-2.24,nothing,6
4.9,4.847102419,26,3,3,3,3,-314.0,8.98,-2.1,-0.3,-0.12,0.12,-1.02,8.5,-2.625,447.5625,0.69207763671875,-0.36737060546875,-0.44158935546875,-0.0451,-55.1875,-3.875,-17.75,9.11,-2.23,nothing,6
4.91,4.847102419,26,3,3,3,3,-314.0,9.06,-2.21,-0.29,-0.05,0.0,-1.11,8.1875,-2.4375,448.0625,0.6922607421875,-0.36651611328125,-0.4415283203125,-0.0451,-55.1875,-3.875,-17.75,9.11,-2.22,nothing,6
4.92,4.862327883,26,3,3,3,3,-315.0,9.18,-2.35,-0.29,0.06,-0.13,-1.18,8.5625,-2.1875,448.625,0.69244384765625,-0.36572265625,-0.44140625,-0.0451,-55.1875,-3.875,-17.8125,9.11,-2.22,nothing,6
4.93,4.862327883,26,3,3,3,3,-312.0,9.13,-2.39,-0.26,0.01,-0.17,-1.11,9.125,-1.875,449.1875,0.692626953125,-0.36492919921875,-0.441162109375,-0.0451,-55.1875,-3.875,-17.8125,9.11,-2.21,nothing,6
4.94,4.891851036,26,3,3,3,3,-308.0,9.08,-2.4,-0.22,-0.02,-0.19,-0.83,8.9375,-1.75,449.625,0.69293212890625,-0.36419677734375,-0.44091796875,-0.0451,-55.1875,-3.875,-17.8125,9.11,-2.21,nothing,6
4.95,4.891851036,26,3,3,3,3,-302.0,9.03,-2.32,-0.17,-0.08,-0.11,-0.47,8.125,-1.375,449.9375,0.6932373046875,-0.3636474609375,-0.44061279296875,-0.0454,-55.5625,-5.875,-17.8125,9.11,-2.21,nothing,6
4.96,4.906840619,26,3,3,3,3,-307.0,8.95,-2.15,-0.22,-0.16,0.06,-0.25,8.125,-1.3125,450.1875,0.69354248046875,-0.3631591796875,-0.44024658203125,-0.0454,-55.5625,-5.875,-17.8125,9.11,-2.21,nothing,6
4.97,4.906840619,26,3,3,3,3,-305.0,8.94,-2.08,-0.19,-0.17,0.13,-0.16,7.8125,-1.25,450.375,0.69390869140625,-0.3626708984375,-0.43994140625,-0.0454,-55.5625,-5.875,-17.8125,9.11,-2.21,nothing,6
4.98,4.937684369,26,3,3,3,3,-307.0,8.95,-2.06,-0.21,-0.15,0.15,-0.23,7.375,-1.25,450.625,0.69415283203125,-0.36212158203125,-0.439697265625,-0.0454,-55.5625,-5.875,-17.875,9.11,-2.21,nothing,6
4.99,4.937684369,26,3,3,3,3,-310.0,8.94,-2.03,-0.24,-0.16,0.17,-0.33,7.3125,-1.125,450.9375,0.69439697265625,-0.3616943359375,-0.43939208984375,-0.0454,-55.5625,-5.875,-17.875,9.11,-2.21,nothing,6
5.0,4.953647748,26,3,3,3,3,-315.0,9.0,-2.08,-0.29,-0.1,0.13,-0.42,7.25,-1.125,451.25,0.69464111328125,-0.36126708984375,-0.4390869140625,-0.0447,-55.5625,-5.375,-17.8125,9.11,-2.21,nothing,6
5.01,4.953647748,26,3,3,3,3,-313.0,9.06,-2.16,-0.27,-0.04,0.04,-0.47,6.5625,-1.0625,451.625,0.69482421875,-0.36077880859375,-0.4388427734375,-0.0447,-55.5625,-5.375,-17.8125,9.11,-2.21,nothing,6
5.02,4.966742963,26,3,3,3,3,-315.0,9.08,-2.21,-0.29,-0.03,0.0,-0.48,5.6875,-0.9375,451.875,0.69500732421875,-0.36029052734375,-0.438720703125,-0.0447,-55.5625,-5.375,-17.875,9.11,-2.21,nothing,6
5.03,4.966742963,26,3,3,3,3,-317.0,9.07,-2.27,-0.3,-0.03,-0.06,-0.42,4.8125,-0.8125,452.0625,0.69512939453125,-0.35986328125,-0.43865966796875,-0.0447,-55.5625,-5.375,-17.875,9.11,-2.21,nothing,6
5.04,4.981328901,26,3,3,3,3,-318.0,9.05,-2.29,-0.31,-0.05,-0.08,-0.33,4.375,-0.875,452.1875,0.6953125,-0.3594970703125,-0.43853759765625,-0.0447,-55.5625,-5.375,-17.875,9.11,-2.2,nothing,6
5.05,4.981328901,26,3,3,3,3,-320.0,9.03,-2.27,-0.33,-0.08,-0.06,-0.17,4.0,-0.875,452.25,0.69549560546875,-0.359130859375,-0.4384765625,-0.0447,-54.875,-5.875,-17.9375,9.11,-2.21,nothing,6
5.06,5.011835167,26,3,3,3,3,-321.0,8.97,-2.22,-0.33,-0.13,-0.01,-0.04,3.8125,-0.9375,452.1875,0.69573974609375,-0.35882568359375,-0.4383544921875,-0.0447,-54.875,-5.875,-17.9375,9.11,-2.21,nothing,6
5.07,5.011835167,26,3,3,3,3,-319.0,8.95,-2.14,-0.31,-0.14,0.06,0.0,3.125,-1.25,452.125,0.69598388671875,-0.35845947265625,-0.4383544921875,-0.0447,-54.875,-5.875,-17.9375,9.1,-2.21,nothing,6
5.08,5.026738691,26,3,3,3,3,-318.0,8.92,-2.13,-0.29,-0.18,0.08,-0.05,2.3125,-1.1875,452.0,0.6961669921875,-0.35821533203125,-0.43841552734375,-0.0447,-54.875,-5.875,-18.0,9.1,-2.21,nothing,6
5.09,5.026738691,26,3,3,3,3,-315.0,8.94,-2.1,-0.26,-0.16,0.1,-0.12,1.1875,-1.125,452.0,0.69622802734375,-0.35791015625,-0.43853759765625,-0.0447,-54.875,-5.875,-18.0,9.1,-2.21,nothing,6
5.1,5.04202523,26,3,3,3,3,-311.0,8.92,-2.09,-0.22,-0.17,0.11,-0.12,0.625,-1.0625,451.9375,0.6962890625,-0.357666015625,-0.43865966796875,-0.0443,-54.875,-6.5625,-18.0625,9.1,-2.21,nothing,6
5.11,5.04202523,26,3,3,3,3,-311.0,8.96,-2.14,-0.21,-0.13,0.06,-0.12,0.625,-1.0625,451.875,0.69635009765625,-0.35748291015625,-0.43878173828125,-0.0443,-54.875,-6.5625,-18.0625,9.1,-2.21,nothing,6
5.12,5.071826297,26,3,3,3,3,-306.0,8.94,-2.16,-0.15,-0.15,0.04,-0.03,0.375,-0.875,451.75,0.6964111328125,-0.35736083984375,-0.43890380859375,-0.0443,-54.875,-6.5625,-18.125,9.1,-2.21,nothing,6
5.13,5.071826297,26,3,3,3,3,-305.0,8.93,-2.15,-0.15,-0.17,0.05,-0.04,-0.1875,-0.5,451.75,0.69647216796875,-0.3572998046875,-0.43896484375,-0.0443,-54.875,-6.5625,-18.125,9.1,-2.21,nothing,6
5.14,5.086919924,26,3,3,3,3,-309.0,8.93,-2.14,-0.19,-0.17,0.06,-0.06,-0.9375,-0.1875,451.625,0.6964111328125,-0.35723876953125,-0.43914794921875,-0.0443,-54.875,-6.5625,-18.125,9.1,-2.2,nothing,6
5.15,5.086919924,26,3,3,3,3,-320.0,8.9,-2.25,-0.29,-0.19,-0.04,-0.21,-2.1875,-0.0625,451.5625,0.69635009765625,-0.357177734375,-0.43939208984375,-0.0443,-55.5625,-6.1875,-18.1875,9.1,-2.2,nothing,6
5.16,5.101918948,26,3,3,3,3,-324.0,8.95,-2.29,-0.33,-0.14,-0.08,-0.21,-2.1875,-0.0625,451.5,0.6962890625,-0.35711669921875,-0.43963623046875,-0.0443,-55.5625,-6.1875,-18.1875,9.1,-2.2,nothing,6
5.17,5.101918948,26,3,3,3,3,-329.0,8.93,-2.3,-0.37,-0.16,-0.09,-0.21,-1.1875,0.0,451.375,0.69622802734375,-0.3570556640625,-0.4398193359375,-0.0443,-55.5625,-6.1875,-18.1875,9.09,-2.2,nothing,6
5.18,5.134416059,26,3,3,3,3,-325.0,8.92,-2.28,-0.32,-0.17,-0.08,-0.18,-0.875,0.0,451.25,0.69622802734375,-0.35693359375,-0.44000244140625,-0.0443,-55.5625,-6.1875,-18.25,9.09,-2.19,nothing,6
5.19,5.134416059,26,3,3,3,3,-322.0,8.93,-2.28,-0.29,-0.16,-0.08,-0.08,-1.1875,0.0625,451.125,0.6962890625,-0.35687255859375,-0.440185546875,-0.0443,-55.5625,-6.1875,-18.25,9.09,-2.2,nothing,6
5.2,5.146611087,26,3,3,3,3,-322.0,8.95,-2.25,-0.29,-0.14,-0.05,-0.03,-1.3125,-0.125,450.9375,0.6962890625,-0.3568115234375,-0.4403076171875,-0.0447,-55.5625,-5.375,-18.3125,9.09,-2.2,nothing,6
5.21,5.146611087,26,3,3,3,3,-323.0,8.96,-2.24,-0.29,-0.12,-0.04,-0.03,-1.3125,-0.125,450.75,0.69635009765625,-0.3568115234375,-0.44049072265625,-0.0447,-55.5625,-5.375,-18.3125,9.09,-2.2,nothing,6
5.22,5.16198572,26,3,3,3,3,-320.0,8.94,-2.22,-0.26,-0.15,-0.02,-0.04,-1.4375,0.0,450.625,0.69635009765625,-0.35675048828125,-0.440673828125,-0.0447,-55.5625,-5.375,-18.3125,9.09,-2.19,nothing,6
5.23,5.16198572,26,3,3,3,3,-320.0,8.88,-2.22,-0.26,-0.2,-0.02,-0.06,-1.375,-0.125,450.4375,0.69635009765625,-0.35675048828125,-0.44085693359375,-0.0447,-55.5625,-5.375,-18.375,9.09,-2.19,nothing,6
5.24,5.191634117,26,3,3,3,3,-319.0,8.91,-2.23,-0.25,-0.17,-0.04,-0.1,-1.4375,-0.0625,450.375,0.69635009765625,-0.356689453125,-0.4410400390625,-0.0447,-55.5625,-5.375,-18.375,9.09,-2.19,nothing,6
5.25,5.191634117,26,3,3,3,3,-318.0,8.94,-2.26,-0.24,-0.14,-0.06,-0.29,-1.625,-0.375,450.3125,0.69622802734375,-0.35662841796875,-0.44122314453125,-0.0454,-55.5625,-7.0,-18.375,9.09,-2.19,nothing,6
5.26,5.206359622,26,3,3,3,3,-319.0,9.01,-2.31,-0.24,-0.07,-0.11,-0.39,-1.5625,-0.5,450.3125,0.6961669921875,-0.35650634765625,-0.44146728515625,-0.0454,-55.5625,-7.0,-18.4375,9.09,-2.19,nothing,6
5.27,5.206359622,26,3,3,3,3,-318.0,9.07,-2.33,-0.23,-0.02,-0.15,-0.44,-1.6875,-0.625,450.3125,0.696044921875,-0.35638427734375,-0.44171142578125,-0.0454,-55.5625,-7.0,-18.4375,9.09,-2.18,nothing,6
5.28,5.22288017,26,3,3,3,3,-318.0,9.07,-2.35,-0.23,-0.02,-0.17,-0.44,-1.6875,-0.5,450.3125,0.6959228515625,-0.35626220703125,-0.44195556640625,-0.0454,-55.5625,-7.0,-18.4375,9.09,-2.18,nothing,6
5.29,5.22288017,26,3,3,3,3,-321.0,9.04,-2.37,-0.25,-0.04,-0.19,-0.43,-1.625,-0.5,450.3125,0.69586181640625,-0.356201171875,-0.442138671875,-0.0454,-55.5625,-7.0,-18.5,9.09,-2.17,nothing,6
5.3,5.253893028,26,3,3,3,3,-313.0,8.95,-2.44,-0.16,-0.13,-0.26,-0.4,-1.8125,-0.5625,450.25,0.69580078125,-0.3560791015625,-0.4423828125,-0.0447,-56.0,-5.875,-18.5,9.09,-2.17,nothing,6
5.31,5.253893028,26,3,3,3,3,-309.0,8.9,-2.46,-0.12,-0.18,-0.29,-0.37,-1.5,-0.375,450.1875,0.69580078125,-0.35601806640625,-0.44256591796875,-0.0447,-56.0,-5.875,-18.5,9.08,-2.17,nothing,6
5.32,5.267762006,26,3,3,3,3,-307.0,8.85,-2.46,-0.1,-0.22,-0.29,-0.38,-1.0,-0.5,450.125,0.69580078125,-0.35595703125,-0.442626953125,-0.0447,-56.0,-5.875,-18.5625,9.08,-2.17,nothing,6
5.33,5.267762006,26,3,3,3,3,-301.0,8.77,-2.48,-0.03,-0.31,-0.31,-0.34,-1.0,-0.5625,450.0,0.69586181640625,-0.3558349609375,-0.4427490234375,-0.0447,-56.0,-5.875,-18.5625,9.08,-2.17,nothing,6
5.34,5.281547895,26,3,3,3,3,-298.0,8.74,-2.51,0.0,-0.34,-0.33,-0.32,-0.4375,-0.8125,449.875,0.69598388671875,-0.355712890625,-0.4427490234375,-0.0447,-56.0,-5.875,-18.5625,9.08,-2.17,nothing,6
5.35,5.281547895,26,3,3,3,3,-298.0,8.74,-2.52,0.0,-0.33,-0.34,-0.27,0.0625,-1.0625,449.6875,0.6961669921875,-0.3555908203125,-0.4427490234375,-0.0443,-54.875,-6.5625,-18.625,9.08,-2.17,nothing,6
5.36,5.311706464,26,3,3,3,3,-297.0,8.74,-2.52,0.0,-0.33,-0.33,-0.25,0.25,-1.375,449.5,0.69635009765625,-0.35552978515625,-0.4427490234375,-0.0443,-54.875,-6.5625,-18.625,9.08,-2.18,nothing,6
5.37,5.311706464,26,3,3,3,3,-299.0,8.9,-2.54,0.0,-0.17,-0.35,-0.23,0.0625,-1.625,449.3125,0.696533203125,-0.35540771484375,-0.4427490234375,-0.0443,-54.875,-6.5625,-18.625,9.08,-2.18,nothing,6
5.38,5.326504967,26,3,3,3,3,-302.0,9.01,-2.51,-0.02,-0.06,-0.32,-0.21,0.1875,-1.9375,449.125,0.69671630859375,-0.355224609375,-0.4427490234375,-0.0443,-54.875,-6.5625,-18.6875,9.07,-2.18,nothing,6
5.39,5.326504967,26,3,3,3,3,-306.0,9.07,-2.46,-0.06,0.0,-0.27,-0.18,0.5,-1.9375,449.0,0.69683837890625,-0.3551025390625,-0.44281005859375,-0.0443,-54.875,-6.5625,-18.6875,9.07,-2.19,nothing,6
5.4,5.341262047,26,3,3,3,3,-310.0,9.09,-2.46,-0.1,0.01,-0.27,-0.18,0.125,-1.9375,449.0,0.69683837890625,-0.35491943359375,-0.44287109375,-0.044,-55.5625,-7.75,-18.75,9.07,-2.18,nothing,6
5.41,5.341262047,26,3,3,3,3,-314.0,9.15,-2.52,-0.13,0.08,-0.33,-0.18,-0.125,-2.0,449.0,0.6968994140625,-0.354736328125,-0.4429931640625,-0.044,-55.5625,-7.75,-18.75,9.07,-2.18,nothing,6
5.42,5.372189659,26,3,3,3,3,-315.0,9.17,-2.56,-0.14,0.1,-0.38,-0.2,-0.75,-2.0625,448.9375,0.69683837890625,-0.3546142578125,-0.44317626953125,-0.044,-55.5625,-7.75,-18.75,9.07,-2.18,nothing,6
5.43,5.372189659,26,3,3,3,3,-313.0,9.22,-2.59,-0.12,0.15,-0.41,-0.21,-1.0625,-2.1875,448.875,0.69683837890625,-0.35443115234375,-0.44342041015625,-0.044,-55.5625,-7.75,-18.8125,9.07,-2.18,nothing,6
5.44,5.386935916,26,3,3,3,3,-314.0,9.2,-2.6,-0.12,0.13,-0.42,-0.15,-1.3125,-2.1875,448.625,0.69696044921875,-0.3543701171875,-0.4434814453125,-0.044,-55.5625,-7.75,-18.8125,9.07,-2.18,nothing,6
5.45,5.386935916,26,3,3,3,3,-312.0,9.07,-2.55,-0.09,0.01,-0.36,-0.12,-1.3125,-2.375,448.375,0.69708251953125,-0.354248046875,-0.443603515625,-0.0436,-55.1875,-6.1875,-18.875,9.06,-2.18,nothing,6
5.46,5.417803958,26,3,3,3,3,-309.0,8.94,-2.57,-0.07,-0.12,-0.38,-0.06,-1.4375,-2.4375,448.0625,0.697265625,-0.35418701171875,-0.44366455078125,-0.0436,-55.1875,-6.1875,-18.875,9.06,-2.19,nothing,6
5.47,5.417803958,26,3,3,3,3,-306.0,8.85,-2.53,-0.03,-0.2,-0.34,-0.11,-1.375,-2.4375,447.8125,0.69744873046875,-0.3541259765625,-0.44378662109375,-0.0436,-55.1875,-6.1875,-18.9375,9.06,-2.19,nothing,6
5.48,5.431919274,26,3,3,3,3,-302.0,8.73,-2.49,0.01,-0.32,-0.3,-0.27,-1.1875,-2.375,447.75,0.69744873046875,-0.35394287109375,-0.44403076171875,-0.0436,-55.1875,-6.1875,-18.9375,9.06,-2.19,nothing,6
5.49,5.431919274,26,3,3,3,3,-300.0,8.62,-2.4,0.03,-0.44,-0.21,-0.43,-1.25,-2.625,447.75,0.69732666015625,-0.35369873046875,-0.44427490234375,-0.0436,-55.1875,-6.1875,-19.0,9.06,-2.18,nothing,6
5.5,5.4468713,26,3,3,3,3,-297.0,8.57,-2.37,0.07,-0.48,-0.19,-0.55,-0.875,-2.8125,447.8125,0.697265625,-0.35345458984375,-0.444580078125,-0.0451,-56.375,-5.875,-19.0,9.06,-2.17,nothing,6
5.51,5.4468713,26,3,3,3,3,-298.0,8.61,-2.41,0.06,-0.44,-0.24,-0.6,-0.5625,-3.0625,447.875,0.69720458984375,-0.35308837890625,-0.44482421875,-0.0451,-56.375,-5.875,-19.0625,9.06,-2.17,nothing,6
5.52,5.478305911,26,3,3,3,3,-302.0,8.71,-2.53,0.03,-0.35,-0.36,-0.62,0.0625,-3.25,448.0,0.69720458984375,-0.35272216796875,-0.445068359375,-0.0451,-56.375,-5.875,-19.0625,9.06,-2.16,nothing,6
5.53,5.478305911,26,3,3,3,3,-306.0,8.81,-2.59,0.0,-0.24,-0.43,-0.64,0.125,-3.625,448.125,0.6971435546875,-0.35235595703125,-0.44537353515625,-0.0451,-56.375,-5.875,-19.125,9.06,-2.16,nothing,6
5.54,5.492389773,26,3,3,3,3,-308.0,8.88,-2.62,-0.01,-0.17,-0.46,-0.64,0.375,-4.0,447.9375,0.69732666015625,-0.35205078125,-0.4454345703125,-0.0451,-56.375,-5.875,-19.1875,9.05,-2.16,nothing,6
5.55,5.492389773,26,3,3,3,3,-305.0,8.92,-2.69,0.02,-0.12,-0.52,-0.61,1.25,-4.25,447.75,0.6976318359375,-0.3516845703125,-0.4454345703125,-0.0447,-56.0,-7.375,-19.1875,9.05,-2.16,nothing,6
5.56,5.506940066,26,3,3,3,3,-310.0,8.95,-2.52,-0.01,-0.09,-0.35,-0.57,2.625,-4.3125,447.6875,0.69793701171875,-0.35125732421875,-0.44537353515625,-0.0447,-56.0,-7.375,-19.25,9.05,-2.16,nothing,6
5.57,5.506940066,26,3,3,3,3,-317.0,8.94,-2.48,-0.07,-0.1,-0.31,-0.58,2.625,-4.3125,447.625,0.6982421875,-0.35076904296875,-0.44537353515625,-0.0447,-56.0,-7.375,-19.3125,9.05,-2.16,nothing,6
5.58,5.537575808,26,3,3,3,3,-316.0,8.98,-2.46,-0.06,-0.06,-0.3,-0.61,1.6875,-4.4375,447.5625,0.69842529296875,-0.350341796875,-0.4454345703125,-0.0447,-56.0,-7.375,-19.3125,9.04,-2.16,nothing,6
5.59,5.537575808,26,3,3,3,3,-304.0,8.97,-2.49,0.05,-0.06,-0.33,-0.66,1.375,-4.5,447.5625,0.6986083984375,-0.349853515625,-0.445556640625,-0.0447,-56.0,-7.375,-19.375,9.04,-2.16,nothing,6
5.6,5.551691816,26,3,3,3,3,-304.0,8.88,-2.56,0.06,-0.16,-0.4,-0.69,0.3125,-4.4375,447.5,0.69873046875,-0.3494873046875,-0.44573974609375,-0.044,-56.0,-6.5625,-19.4375,9.04,-2.16,nothing,6
5.61,5.551691816,26,3,3,3,3,-298.0,8.88,-2.64,0.13,-0.15,-0.47,-0.72,-0.75,-4.4375,447.375,0.69879150390625,-0.34918212890625,-0.4459228515625,-0.044,-56.0,-6.5625,-19.4375,9.04,-2.16,nothing,6
5.62,5.566523969,26,3,3,3,3,-295.0,8.87,-2.73,0.16,-0.16,-0.56,-0.73,-0.0625,-4.375,447.3125,0.698974609375,-0.348876953125,-0.4459228515625,-0.044,-56.0,-6.5625,-19.5,9.04,-2.16,nothing,6
5.63,5.566523969,26,3,3,3,3,-298.0,8.87,-2.71,0.14,-0.15,-0.54,-0.74,0.875,-4.125,447.25,0.69921875,-0.34857177734375,-0.4459228515625,-0.044,-56.0,-6.5625,-19.5,9.03,-2.16,nothing,6
5.64,5.597494225,26,3,3,3,3,-308.0,8.83,-2.55,0.04,-0.2,-0.38,-0.8,1.875,-4.0,447.1875,0.699462890625,-0.34820556640625,-0.44586181640625,-0.044,-56.0,-6.5625,-19.5625,9.03,-2.16,nothing,6
5.65,5.597494225,26,3,3,3,3,-314.0,8.81,-2.49,0.0,-0.21,-0.33,-0.86,2.75,-3.9375,447.3125,0.69964599609375,-0.34771728515625,-0.44580078125,-0.0451,-56.6875,-8.1875,-19.5625,9.03,-2.16,nothing,6
5.66,5.61213135,26,3,3,3,3,-311.0,8.83,-2.44,0.03,-0.19,-0.28,-0.86,2.75,-4.0,447.375,0.6998291015625,-0.34722900390625,-0.44586181640625,-0.0451,-56.6875,-8.1875,-19.625,9.03,-2.16,nothing,6
5.67,5.61213135,26,3,3,3,3,-299.0,8.83,-2.4,0.15,-0.2,-0.24,-0.85,3.0,-3.9375,447.5625,0.70001220703125,-0.3466796875,-0.44586181640625,-0.0451,-56.6875,-8.1875,-19.625,9.03,-2.16,nothing,6
5.68,5.626124108,26,3,3,3,3,-299.0,8.83,-2.41,0.15,-0.2,-0.25,-0.85,3.0,-3.9375,447.6875,0.70013427734375,-0.34619140625,-0.44586181640625,-0.0451,-56.6875,-8.1875,-19.6875,9.03,-2.15,nothing,6
5.69,5.626124108,26,3,3,3,3,-299.0,8.89,-2.44,0.16,-0.13,-0.29,-0.86,2.9375,-4.0,447.9375,0.70025634765625,-0.345703125,-0.44586181640625,-0.0451,-56.6875,-8.1875,-19.6875,9.03,-2.15,nothing,6
5.7,5.673746707,26,3,3,3,3,-306.0,8.95,-2.48,0.09,-0.06,-0.33,-0.89,3.25,-4.125,448.125,0.70037841796875,-0.34515380859375,-0.44586181640625,-0.0436,-56.6875,-7.375,-19.75,9.02,-2.15,nothing,6
5.71,5.673746707,26,3,3,3,3,-315.0,8.96,-2.57,0.01,-0.05,-0.43,-0.92,3.8125,-4.25,448.3125,0.7005615234375,-0.3446044921875,-0.44586181640625,-0.0436,-56.6875,-7.375,-19.75,9.02,-2.14,nothing,6
5.72,5.68051046,26,3,3,3,3,-320.0,8.89,-2.59,-0.03,-0.12,-0.44,-0.91,4.5625,-4.125,448.4375,0.70086669921875,-0.343994140625,-0.44573974609375,-0.0436,-56.6875,-7.375,-19.8125,9.02,-2.14,nothing,6
5.73,5.68051046,26,3,3,3,3,-322.0,8.86,-2.52,-0.05,-0.15,-0.37,-0.88,5.0,-4.3125,448.5625,0.70111083984375,-0.3433837890625,-0.44561767578125,-0.0436,-56.6875,-7.375,-19.8125,9.02,-2.14,nothing,6
5.74,5.687537763,26,3,3,3,3,-322.0,8.84,-2.44,-0.04,-0.18,-0.3,-0.9,5.0,-4.4375,448.75,0.701416015625,-0.3427734375,-0.44549560546875,-0.0436,-56.6875,-7.375,-19.875,9.02,-2.14,nothing,6
5.75,5.687537763,26,3,3,3,3,-317.0,8.81,-2.22,0.01,-0.21,-0.08,-0.97,5.0,-4.5,449.0,0.70159912109375,-0.34210205078125,-0.44549560546875,-0.0422,-56.375,-8.1875,-19.875,9.02,-2.14,nothing,6
5.76,5.717633833,26,3,3,3,3,-316.0,8.81,-2.21,0.03,-0.2,-0.07,-1.02,5.125,-4.5625,449.375,0.70172119140625,-0.34136962890625,-0.445556640625,-0.0422,-56.375,-8.1875,-19.9375,9.02,-2.13,nothing,6
5.77,5.717633833,26,3,3,3,3,-315.0,8.8,-2.23,0.04,-0.22,-0.1,-1.05,5.5625,-4.1875,449.75,0.7017822265625,-0.34063720703125,-0.445556640625,-0.0422,-56.375,-8.1875,-19.9375,9.02,-2.12,nothing,6
5.78,5.734099897,26,3,3,3,3,-316.0,8.75,-2.28,0.04,-0.26,-0.16,-1.05,5.8125,-4.0,450.1875,0.701904296875,-0.33990478515625,-0.445556640625,-0.0422,-56.375,-8.1875,-20.0,9.02,-2.12,nothing,6
5.79,5.734099897,26,3,3,3,3,-316.0,8.61,-2.37,0.04,-0.4,-0.25,-1.09,5.6875,-3.6875,450.625,0.70196533203125,-0.33917236328125,-0.445556640625,-0.0422,-56.375,-8.1875,-20.0,9.02,-2.11,nothing,6
5.8,5.747243574,26,3,3,3,3,-310.0,8.55,-2.33,0.1,-0.46,-0.22,-1.16,5.9375,-3.1875,451.0,0.7021484375,-0.3385009765625,-0.4454345703125,-0.0422,-56.375,-8.1875,-20.0625,9.02,-2.11,nothing,6
5.81,5.747243574,26,3,3,3,3,-307.0,8.52,-2.25,0.13,-0.49,-0.14,-1.23,6.25,-3.0,451.4375,0.7022705078125,-0.3377685546875,-0.4453125,-0.0422,-56.375,-8.1875,-20.0625,9.02,-2.1,nothing,6
5.82,5.778034183,26,3,3,3,3,-310.0,8.39,-2.15,0.1,-0.63,-0.06,-1.28,6.625,-2.5625,452.0,0.70233154296875,-0.3370361328125,-0.44525146484375,-0.0422,-56.375,-8.1875,-20.0625,9.02,-2.09,nothing,6
5.83,5.778034183,26,3,3,3,3,-315.0,8.33,-2.08,0.05,-0.68,0.0,-1.32,7.125,-2.0625,452.6875,0.70233154296875,-0.33636474609375,-0.44512939453125,-0.0422,-56.375,-8.1875,-20.0625,9.02,-2.08,nothing,6
5.84,5.797879357,26,3,3,3,3,-319.0,8.24,-2.01,0.01,-0.78,0.06,-1.38,7.875,-1.9375,453.375,0.702392578125,-0.3355712890625,-0.44500732421875,-0.0422,-56.375,-8.1875,-20.0625,9.02,-2.07,walking_forward,6
5.85,5.797879357,26,3,3,3,3,-326.0,8.15,-2.02,-0.04,-0.87,0.04,-1.42,8.0,-1.6875,454.0625,0.702392578125,-0.3348388671875,-0.44482421875,-0.0425,-56.6875,-7.75,-20.0625,9.03,-2.06,walking_forward,6
5.86,5.807595014,26,3,3,3,3,-351.0,8.15,-2.15,-0.29,-0.87,-0.09,-1.46,7.875,-1.625,454.8125,0.70245361328125,-0.33404541015625,-0.4447021484375,-0.0425,-56.6875,-7.75,-20.0625,9.03,-2.05,walking_forward,6
5.87,5.807595014,26,3,3,3,3,-351.0,8.15,-2.15,-0.29,-0.87,-0.09,-1.46,7.875,-1.625,454.8125,0.70245361328125,-0.33404541015625,-0.4447021484375,-0.0425,-56.6875,-7.75,-20.0625,9.03,-2.05,walking_forward,6
5.87,5.8213866,26,3,3,3,3,-370.0,8.26,-2.19,-0.49,-0.76,-0.14,-1.51,7.5,-1.625,455.5625,0.702392578125,-0.33331298828125,-0.444580078125,-0.0425,-56.6875,-7.75,-20.0625,9.03,-2.04,walking_forward,6
5.88,5.8213866,26,3,3,3,3,-389.0,8.46,-2.21,-0.68,-0.57,-0.17,-1.5,6.25,-2.125,456.25,0.70233154296875,-0.33251953125,-0.44451904296875,-0.0425,-56.6875,-7.75,-20.0625,9.03,-2.03,walking_forward,6
5.89,5.836948733,26,3,3,3,3,-408.0,8.73,-2.24,-0.86,-0.29,-0.22,-1.41,5.5625,-2.5625,456.8125,0.70233154296875,-0.33184814453125,-0.44451904296875,-0.0425,-56.6875,-7.75,-20.0625,9.03,-2.02,walking_forward,6
5.9,5.836948733,26,3,3,3,3,-426.0,9.09,-2.44,-1.03,0.05,-0.42,-1.26,6.1875,-2.9375,457.375,0.70233154296875,-0.33111572265625,-0.44451904296875,-0.0415,-57.0625,-10.0625,-20.125,9.03,-2.01,walking_forward,6
5.91,5.851310916,26,3,3,3,3,-430.0,9.2,-2.54,-1.07,0.16,-0.52,-1.03,6.375,-3.5,457.8125,0.70245361328125,-0.33038330078125,-0.44439697265625,-0.0415,-57.0625,-10.0625,-20.125,9.03,-2.01,walking_forward,6
5.92,5.851310916,26,3,3,3,3,-422.0,9.26,-2.61,-0.99,0.22,-0.6,-0.76,5.0625,-3.4375,458.125,0.70257568359375,-0.32977294921875,-0.44439697265625,-0.0415,-57.0625,-10.0625,-20.125,9.03,-2.0,walking_forward,6
5.93,5.882218916,26,3,3,3,3,-407.0,9.3,-2.69,-0.83,0.26,-0.69,-0.46,3.0625,-2.8125,458.25,0.70269775390625,-0.329345703125,-0.44439697265625,-0.0415,-57.0625,-10.0625,-20.1875,9.03,-2.0,walking_forward,6
5.94,5.882218916,26,3,3,3,3,-398.0,9.38,-3.06,-0.75,0.34,-1.06,-0.37,3.0,-1.75,458.4375,0.7027587890625,-0.32904052734375,-0.4443359375,-0.0415,-57.0625,-10.0625,-20.1875,9.03,-2.0,walking_forward,6
5.95,5.899707482,26,3,3,3,3,-391.0,9.33,-3.33,-0.68,0.29,-1.32,-0.39,4.3125,-0.75,458.6875,0.702880859375,-0.3287353515625,-0.44415283203125,-0.042,-56.75,-9.375,-20.1875,9.03,-2.0,walking_forward,6
5.96,5.899707482,26,3,3,3,3,-406.0,9.23,-3.4,-0.83,0.19,-1.4,-0.53,6.375,0.0625,459.0625,0.7030029296875,-0.32830810546875,-0.44390869140625,-0.042,-56.75,-9.375,-20.1875,9.03,-2.0,walking_forward,6
5.97,5.911777428,26,3,3,3,3,-419.0,9.08,-3.25,-0.96,0.04,-1.25,-0.45,6.25,0.8125,459.4375,0.703125,-0.3280029296875,-0.44354248046875,-0.042,-56.75,-9.375,-20.1875,9.04,-2.0,walking_forward,6
5.98,5.911777428,26,3,3,3,3,-433.0,8.85,-2.77,-1.1,-0.18,-0.76,-0.25,5.9375,1.3125,459.75,0.7032470703125,-0.32781982421875,-0.44317626953125,-0.042,-56.75,-9.375,-20.125,9.04,-2.0,walking_forward,6
5.99,5.942142215,26,3,3,3,3,-439.0,8.79,-2.55,-1.16,-0.25,-0.55,-0.34,6.125,1.0,460.0625,0.70343017578125,-0.3275146484375,-0.44281005859375,-0.042,-56.75,-9.375,-20.125,9.04,-2.0,walking_forward,6
6.0,5.942142215,26,3,3,3,3,-441.0,8.74,-2.47,-1.19,-0.3,-0.47,-0.71,6.1875,0.5625,460.5625,0.7034912109375,-0.3271484375,-0.4425048828125,-0.0424,-56.75,-10.5,-20.0625,9.04,-1.99,walking_forward,6
6.01,5.959034956,26,3,3,3,3,-430.0,8.82,-2.82,-1.08,-0.22,-0.83,-1.37,5.9375,-0.125,461.25,0.703369140625,-0.32659912109375,-0.4423828125,-0.0424,-56.75,-10.5,-20.0625,9.04,-1.98,walking_forward,6
6.02,5.959034956,26,3,3,3,3,-414.0,8.84,-3.12,-0.92,-0.2,-1.14,-1.86,6.5,-0.5625,462.125,0.70318603515625,-0.32586669921875,-0.4423828125,-0.0424,-56.75,-10.5,-20.0625,9.05,-1.97,walking_forward,6
6.03,5.98705526,26,3,3,3,3,-403.0,8.84,-3.3,-0.82,-0.21,-1.34,-1.92,8.875,-0.25,463.125,0.70306396484375,-0.32501220703125,-0.442138671875,-0.0424,-56.75,-10.5,-20.0625,9.05,-1.96,walking_forward,6
6.04,5.98705526,26,3,3,3,3,-397.0,8.74,-3.34,-0.76,-0.31,-1.38,-1.65,11.3125,0.375,464.0625,0.703125,-0.32415771484375,-0.4417724609375,-0.0424,-56.75,-10.5,-20.0625,9.05,-1.95,walking_forward,6
6.05,6.00210417,26,3,3,3,3,-393.0,8.46,-3.01,-0.73,-0.59,-1.07,-1.41,12.875,0.6875,465.0,0.7032470703125,-0.3233642578125,-0.441162109375,-0.0413,-56.75,-8.875,-20.0,9.06,-1.94,walking_forward,6
6.06,6.00210417,26,3,3,3,3,-385.0,8.29,-2.8,-0.65,-0.77,-0.86,-1.38,13.8125,0.6875,465.9375,0.70343017578125,-0.322509765625,-0.4405517578125,-0.0413,-56.75,-8.875,-20.0,9.06,-1.93,walking_forward,6
6.07,6.015990766,26,3,3,3,3,-381.0,8.22,-2.61,-0.62,-0.84,-0.68,-1.64,14.8125,0.5,467.0,0.70361328125,-0.321533203125,-0.43994140625,-0.0413,-56.75,-8.875,-19.9375,9.06,-1.93,walking_forward,6
6.08,6.015990766,26,3,3,3,3,-386.0,8.2,-2.47,-0.67,-0.86,-0.55,-2.02,15.625,0.25,468.1875,0.7037353515625,-0.3204345703125,-0.4393310546875,-0.0413,-56.75,-8.875,-19.9375,9.07,-1.92,walking_forward,6
6.09,6.046920617,26,3,3,3,3,-405.0,8.22,-2.39,-0.86,-0.85,-0.48,-2.35,15.4375,-0.125,469.5625,0.70379638671875,-0.3192138671875,-0.43878173828125,-0.0413,-56.75,-8.875,-19.875,9.07,-1.9,walking_forward,6
6.1,6.046920617,26,3,3,3,3,-417.0,8.26,-2.47,-0.99,-0.81,-0.58,-2.58,14.3125,-0.1875,470.9375,0.70367431640625,-0.3179931640625,-0.4383544921875,-0.0416,-56.5,-12.375,-19.875,9.08,-1.88,walking_forward,6
6.11,6.062062462,26,3,3,3,3,-423.0,8.29,-2.57,-1.05,-0.79,-0.7,-2.61,13.75,-0.375,472.375,0.70355224609375,-0.31683349609375,-0.43798828125,-0.0416,-56.5,-12.375,-19.8125,9.08,-1.87,walking_forward,6
6.12,6.062062462,26,3,3,3,3,-427.0,8.26,-2.63,-1.09,-0.82,-0.77,-2.55,13.4375,-0.3125,473.6875,0.7034912109375,-0.315673828125,-0.43756103515625,-0.0416,-56.5,-12.375,-19.8125,9.09,-1.85,walking_forward,6
6.13,6.076312137,26,3,3,3,3,-428.0,8.27,-2.55,-1.11,-0.82,-0.71,-2.46,13.3125,-0.0625,475.0,0.703369140625,-0.31451416015625,-0.43719482421875,-0.0416,-56.5,-12.375,-19.75,9.09,-1.83,walking_forward,6
6.14,6.076312137,26,3,3,3,3,-428.0,8.43,-2.53,-1.11,-0.66,-0.71,-2.52,13.3125,-0.125,476.375,0.7032470703125,-0.31341552734375,-0.436767578125,-0.0416,-56.5,-12.375,-19.75,9.1,-1.82,walking_forward,6
6.15,6.106127119,26,3,3,3,3,-421.0,8.38,-2.61,-1.05,-0.72,-0.8,-2.54,13.5625,-0.8125,477.6875,0.70318603515625,-0.31219482421875,-0.4364013671875,-0.0413,-56.75,-11.25,-19.75,9.1,-1.8,walking_forward,6
6.16,6.106127119,26,3,3,3,3,-412.0,8.27,-2.6,-0.92,-0.81,-0.79,-2.58,14.0,-0.875,477.25,0.70440673828125,-0.31011962890625,-0.4364013671875,-0.0413,-56.75,-11.25,-19.9375,9.09,-1.81,walking_forward,6
6.17,6.121853804,26,3,3,3,3,-404.0,8.2,-2.6,-0.82,-0.87,-0.78,-2.7,14.1875,-0.8125,476.875,0.70556640625,-0.30816650390625,-0.43634033203125,-0.0413,-56.75,-11.25,-20.125,9.08,-1.81,walking_forward,6
6.18,6.121853804,26,3,3,3,3,-392.0,8.16,-2.62,-0.67,-0.9,-0.79,-2.69,13.5,-0.4375,476.5625,0.7066650390625,-0.30633544921875,-0.4361572265625,-0.0413,-56.75,-11.25,-20.25,9.07,-1.82,walking_forward,6
6.19,6.136315229,26,3,3,3,3,-385.0,8.16,-2.68,-0.61,-0.91,-0.87,-2.61,13.125,0.0,477.9375,0.70648193359375,-0.30517578125,-0.43572998046875,-0.0413,-56.75,-11.25,-20.25,9.07,-1.81,walking_forward,6
6.2,6.136315229,26,3,3,3,3,-391.0,8.29,-2.59,-0.67,-0.78,-0.8,-2.6,13.3125,0.375,479.3125,0.70635986328125,-0.30401611328125,-0.43536376953125,-0.0413,-56.75,-13.5625,-20.25,9.08,-1.79,walking_forward,6
6.21,6.166725955,26,3,3,3,3,-392.0,8.36,-2.54,-0.68,-0.72,-0.76,-2.68,13.0,0.375,480.6875,0.7061767578125,-0.3028564453125,-0.43499755859375,-0.0413,-56.75,-13.5625,-20.1875,9.08,-1.77,walking_forward,6
6.22,6.166725955,26,3,3,3,3,-395.0,8.44,-2.52,-0.69,-0.63,-0.74,-2.82,13.0,0.625,480.5625,0.7071533203125,-0.3011474609375,-0.43475341796875,-0.0413,-56.75,-13.5625,-20.3125,9.07,-1.77,walking_forward,6
6.23,6.182214806,26,3,3,3,3,-402.0,8.5,-2.6,-0.75,-0.56,-0.82,-2.8,12.0625,0.75,480.4375,0.7080078125,-0.299560546875,-0.43450927734375,-0.0413,-56.75,-13.5625,-20.4375,9.06,-1.78,walking_forward,6
6.24,6.182214806,26,3,3,3,3,-411.0,8.42,-2.71,-0.82,-0.63,-0.92,-2.59,11.625,0.8125,480.1875,0.708984375,-0.2979736328125,-0.43426513671875,-0.0413,-56.75,-13.5625,-20.5625,9.05,-1.79,walking_forward,6
6.25,6.197814416,26,3,3,3,3,-418.0,8.37,-2.71,-0.86,-0.67,-0.91,-2.43,11.5,0.875,479.8125,0.7100830078125,-0.29644775390625,-0.43402099609375,-0.0398,-55.6875,-13.1875,-20.6875,9.04,-1.8,walking_forward,6
6.26,6.197814416,26,3,3,3,3,-419.0,8.37,-2.66,-0.85,-0.66,-0.85,-2.35,11.375,0.9375,479.375,0.71112060546875,-0.294921875,-0.43377685546875,-0.0398,-55.6875,-13.1875,-20.875,9.03,-1.81,walking_forward,6
6.27,6.227307213,26,3,3,3,3,-413.0,8.37,-2.55,-0.77,-0.65,-0.72,-2.4,10.8125,1.0,479.0625,0.71209716796875,-0.29339599609375,-0.43359375,-0.0398,-55.6875,-13.1875,-21.0,9.02,-1.82,walking_forward,6
6.28,6.227307213,26,3,3,3,3,-407.0,8.46,-2.47,-0.69,-0.55,-0.64,-2.38,10.1875,1.25,478.8125,0.712890625,-0.29193115234375,-0.4334716796875,-0.0398,-55.6875,-13.1875,-21.125,9.01,-1.83,walking_forward,6
6.29,6.257554365,26,3,3,3,3,-401.0,8.58,-2.5,-0.61,-0.43,-0.66,-2.27,8.875,1.75,478.625,0.713623046875,-0.2906494140625,-0.433349609375,-0.0398,-55.6875,-13.1875,-21.25,9.01,-1.83,walking_forward,6
6.3,6.257554365,26,3,3,3,3,-396.0,8.7,-2.62,-0.54,-0.3,-0.78,-2.08,8.125,2.625,478.4375,0.71435546875,-0.28961181640625,-0.43304443359375,-0.0406,-56.0625,-15.5,-21.3125,9.0,-1.84,walking_forward,6
6.31,6.262956627,26,3,3,3,3,-392.0,8.87,-2.69,-0.51,-0.13,-0.86,-1.8,8.4375,3.375,479.5,0.71417236328125,-0.28900146484375,-0.43267822265625,-0.0406,-56.0625,-15.5,-21.25,9.01,-1.83,walking_forward,6
6.32,6.262956627,26,3,3,3,3,-403.0,8.93,-2.77,-0.63,-0.08,-0.94,-1.45,8.0625,4.1875,480.375,0.7139892578125,-0.28857421875,-0.4322509765625,-0.0406,-56.0625,-15.5,-21.1875,9.01,-1.82,walking_forward,6
6.33,6.289039228,26,3,3,3,3,-410.0,8.98,-2.8,-0.71,-0.03,-0.98,-1.04,7.1875,5.0625,481.1875,0.71392822265625,-0.288330078125,-0.4317626953125,-0.0406,-56.0625,-15.5,-21.125,9.02,-1.82,walking_forward,6
6.34,6.289039228,26,3,3,3,3,-410.0,9.06,-2.82,-0.73,0.03,-1.0,-0.59,6.8125,5.5625,481.75,0.7138671875,-0.28826904296875,-0.43115234375,-0.0406,-56.0625,-15.5,-21.0625,9.02,-1.81,walking_forward,6
6.35,6.317503503,26,3,3,3,3,-406.0,9.01,-2.68,-0.69,-0.01,-0.86,0.0,6.125,6.25,482.125,0.7139892578125,-0.28839111328125,-0.4305419921875,-0.0413,-57.0625,-14.6875,-21.0,9.02,-1.82,walking_forward,6
6.36,6.317503503,26,3,3,3,3,-402.0,8.96,-2.69,-0.66,-0.06,-0.86,0.53,4.875,7.0,482.25,0.71417236328125,-0.28875732421875,-0.42987060546875,-0.0413,-57.0625,-14.6875,-20.9375,9.03,-1.83,walking_forward,6
6.37,6.323641605,26,3,3,3,3,-397.0,8.91,-2.68,-0.63,-0.11,-0.84,0.9,4.875,7.5,482.3125,0.71441650390625,-0.28924560546875,-0.4290771484375,-0.0413,-57.0625,-14.6875,-20.875,9.03,-1.84,walking_forward,6
6.38,6.323641605,26,3,3,3,3,-388.0,8.73,-2.69,-0.54,-0.28,-0.81,1.13,4.125,8.0,481.0,0.71563720703125,-0.28955078125,-0.42828369140625,-0.0413,-57.0625,-14.6875,-20.875,9.02,-1.88,walking_forward,6
6.39,6.347719608,26,3,3,3,3,-380.0,8.7,-2.76,-0.46,-0.31,-0.83,1.34,3.5625,8.6875,479.625,0.71685791015625,-0.28997802734375,-0.4273681640625,-0.0413,-57.0625,-14.6875,-20.875,9.01,-1.92,walking_forward,6
6.4,6.347719608,26,3,3,3,3,-385.0,8.87,-2.66,-0.51,-0.13,-0.7,1.63,4.0,9.5625,478.3125,0.71807861328125,-0.29052734375,-0.4263916015625,-0.0416,-56.6875,-14.0,-20.875,9.0,-1.96,walking_forward,6
6.42,6.365369144,26,3,3,3,3,-395.0,9.17,-2.5,-0.61,0.17,-0.5,2.1,5.125,10.5,477.1875,0.7191162109375,-0.291259765625,-0.42529296875,-0.0416,-56.6875,-14.0,-20.8125,9.0,-1.99,walking_forward,6
6.42,6.365369144,26,3,3,3,3,-395.0,9.17,-2.5,-0.61,0.17,-0.5,2.1,5.125,10.5,477.1875,0.7191162109375,-0.291259765625,-0.42529296875,-0.0416,-56.6875,-14.0,-20.8125,9.0,-1.99,walking_forward,6
6.43,6.370912357,26,3,3,3,3,-403.0,9.63,-2.35,-0.71,0.62,-0.32,2.8,5.5625,11.5,476.625,0.71978759765625,-0.2923583984375,-0.42401123046875,-0.0416,-56.6875,-14.0,-20.6875,9.0,-2.03,walking_forward,6
6.43,6.370912357,26,3,3,3,3,-448.0,11.08,-2.12,-1.18,2.08,-0.05,3.61,3.5625,11.875,475.6875,0.7205810546875,-0.2938232421875,-0.4227294921875,-0.0416,-56.6875,-14.0,-20.5625,9.0,-2.06,walking_forward,6
6.44,6.39162598,26,3,3,3,3,-427.0,11.02,-2.13,-0.99,2.03,-0.01,4.49,-0.6875,12.0,474.25,0.72137451171875,-0.29559326171875,-0.42156982421875,-0.0416,-56.6875,-14.0,-20.4375,8.99,-2.11,walking_forward,6
6.45,6.39162598,26,3,3,3,3,-411.0,10.75,-2.17,-0.85,1.76,0.0,5.33,-3.1875,12.5,472.4375,0.7222900390625,-0.2977294921875,-0.42041015625,-0.0406,-56.0,-12.875,-20.375,8.99,-2.16,walking_forward,6
6.46,6.407050622,26,3,3,3,3,-397.0,10.89,-2.28,-0.73,1.9,-0.06,5.59,-3.875,12.9375,470.5625,0.7232666015625,-0.29998779296875,-0.41925048828125,-0.0406,-56.0,-12.875,-20.25,8.98,-2.21,walking_forward,6
6.47,6.407050622,26,3,3,3,3,-364.0,11.25,-2.2,-0.41,2.27,0.06,5.27,-1.75,12.5625,468.8125,0.72418212890625,-0.30206298828125,-0.41796875,-0.0406,-56.0,-12.875,-20.125,8.97,-2.26,walking_forward,6
6.48,6.437501183,26,3,3,3,3,-337.0,10.93,-2.03,-0.16,1.96,0.28,4.65,0.25,11.625,467.3125,0.72509765625,-0.3038330078125,-0.416748046875,-0.0406,-56.0,-12.875,-20.0,8.97,-2.31,walking_forward,6
6.5,6.437501183,26,3,3,3,3,-307.0,10.74,-1.82,0.11,1.77,0.53,4.21,1.1875,10.375,466.0,0.72589111328125,-0.30535888671875,-0.41558837890625,-0.0406,-56.0,-12.875,-19.9375,8.96,-2.35,walking_forward,6
6.51,6.452385623,26,3,3,3,3,-221.0,10.69,-1.61,0.95,1.73,0.78,3.89,0.0625,9.1875,464.75,0.72662353515625,-0.30682373046875,-0.41455078125,-0.042,-56.6875,-11.375,-19.8125,8.96,-2.39,walking_forward,6
6.51,6.452385623,26,3,3,3,3,-162.0,10.55,-1.55,1.53,1.6,0.86,3.46,-3.4375,8.125,463.5,0.7271728515625,-0.30828857421875,-0.41387939453125,-0.042,-56.6875,-11.375,-19.75,8.95,-2.42,walking_forward,6
6.52,6.467363773,26,3,3,3,3,-116.0,10.43,-1.61,1.98,1.48,0.83,2.96,-9.6875,8.0,462.3125,0.72735595703125,-0.309814453125,-0.4136962890625,-0.042,-56.6875,-11.375,-19.6875,8.95,-2.45,walking_forward,6
6.53,6.467363773,26,3,3,3,3,-81.0,10.39,-1.66,2.33,1.43,0.8,2.58,-14.0625,8.5625,461.1875,0.727294921875,-0.3115234375,-0.413818359375,-0.042,-56.6875,-11.375,-19.6875,8.95,-2.47,walking_forward,6
6.54,6.497024458,26,3,3,3,3,-91.0,10.11,-1.46,2.23,1.16,1.01,2.6,-15.3125,10.5,460.0625,0.72705078125,-0.3133544921875,-0.4139404296875,-0.042,-56.6875,-11.375,-19.625,8.95,-2.48,walking_forward,6
6.55,6.497024458,26,3,3,3,3,-117.0,9.95,-1.33,1.95,1.0,1.17,2.81,-16.0,12.25,458.875,0.72686767578125,-0.31536865234375,-0.4139404296875,-0.0427,-55.875,-9.5,-19.5,8.94,-2.5,walking_forward,6
6.56,6.511812869,26,3,3,3,3,-139.0,9.73,-1.19,1.71,0.78,1.32,2.98,-18.125,13.6875,457.6875,0.7265625,-0.317626953125,-0.4140625,-0.0427,-55.875,-9.5,-19.4375,8.94,-2.52,walking_forward,6
6.58,6.511812869,26,3,3,3,3,-158.0,9.69,-1.2,1.51,0.74,1.33,2.77,-20.9375,14.1875,456.4375,0.72607421875,-0.32000732421875,-0.41436767578125,-0.0427,-55.875,-9.5,-19.375,8.94,-2.54,walking_forward,6
6.59,6.526658328,26,3,3,3,3,-222.0,9.69,-1.42,0.86,0.74,1.11,2.0,-23.125,13.9375,455.5,0.725341796875,-0.32220458984375,-0.4149169921875,-0.0427,-55.875,-9.5,-19.3125,8.95,-2.54,walking_forward,6
6.59,6.526658328,26,3,3,3,3,-249.0,9.54,-1.51,0.58,0.59,1.03,0.99,-22.625,12.5,454.875,0.72442626953125,-0.3240966796875,-0.41571044921875,-0.0427,-55.875,-9.5,-19.25,8.95,-2.54,walking_forward,6
6.6,6.557819054,26,3,3,3,3,-274.0,9.27,-1.53,0.33,0.31,0.99,0.06,-20.5625,10.25,454.6875,0.723388671875,-0.3255615234375,-0.41656494140625,-0.0416,-55.875,-7.5,-19.1875,8.95,-2.53,walking_forward,6
6.61,6.557819054,26,3,3,3,3,-283.0,8.91,-1.57,0.24,-0.04,0.94,-0.43,-18.875,8.0625,454.5625,0.722412109375,-0.32672119140625,-0.41754150390625,-0.0416,-55.875,-7.5,-19.1875,8.96,-2.52,walking_forward,6
6.63,6.572532108,26,3,3,3,3,-297.0,8.76,-1.64,0.09,-0.2,0.86,-0.62,-18.0625,5.4375,454.5,0.721435546875,-0.32757568359375,-0.4185791015625,-0.0416,-55.875,-7.5,-19.1875,8.96,-2.5,walking_forward,6
6.63,6.572532108,26,3,3,3,3,-279.0,8.47,-1.67,0.27,-0.49,0.81,-0.71,-17.625,2.5,454.375,0.72052001953125,-0.32830810546875,-0.41973876953125,-0.0416,-55.875,-7.5,-19.1875,8.97,-2.48,walking_forward,6
6.65,6.588405195,26,3,3,3,3,-256.0,8.32,-1.66,0.52,-0.64,0.8,-0.71,-18.125,0.0,454.125,0.7197265625,-0.32879638671875,-0.4210205078125,-0.0416,-55.875,-7.5,-19.25,8.97,-2.47,walking_forward,6
6.66,6.588405195,26,3,3,3,3,-218.0,7.82,-1.92,0.9,-1.15,0.52,-0.71,-18.5,-1.625,453.8125,0.71893310546875,-0.32928466796875,-0.42236328125,-0.0424,-55.5,-5.5,-19.3125,8.97,-2.45,walking_forward,6
6.67,6.632457686,26,3,3,3,3,-203.0,7.5,-1.9,1.07,-1.47,0.53,-0.85,-15.75,-2.5625,453.5625,0.71820068359375,-0.32952880859375,-0.423583984375,-0.0424,-55.5,-5.5,-19.375,8.97,-2.43,walking_forward,6
6.68,6.632457686,26,3,3,3,3,-200.0,7.33,-1.79,1.1,-1.64,0.62,-1.21,-13.0,-2.6875,453.5625,0.717529296875,-0.32958984375,-0.42474365234375,-0.0424,-55.5,-5.5,-19.4375,8.97,-2.42,walking_forward,6
6.68,6.638046471,26,3,3,3,3,-193.0,7.15,-1.66,1.19,-1.82,0.72,-1.68,-13.9375,-3.6875,453.6875,0.7166748046875,-0.3294677734375,-0.426025390625,-0.0424,-55.5,-5.5,-19.5,8.98,-2.39,walking_forward,6
6.69,6.638046471,26,3,3,3,3,-168.0,7.29,-1.63,1.45,-1.68,0.73,-1.94,-16.125,-4.5625,453.8125,0.71575927734375,-0.329345703125,-0.42755126953125,-0.0424,-55.5,-5.5,-19.5625,8.98,-2.36,walking_forward,6
6.71,6.647601688,26,3,3,3,3,-160.0,7.37,-1.72,1.54,-1.6,0.61,-1.92,-16.625,-5.3125,453.875,0.71484375,-0.3292236328125,-0.42913818359375,-0.0427,-55.5,-4.375,-19.6875,8.98,-2.34,walking_forward,6
6.72,6.647601688,26,3,3,3,3,-158.0,7.45,-1.83,1.58,-1.53,0.48,-1.49,-15.875,-5.875,453.75,0.71405029296875,-0.3291015625,-0.4306640625,-0.0427,-55.5,-4.375,-19.8125,8.98,-2.31,walking_forward,6
6.73,6.677934818,26,3,3,3,3,-160.0,7.5,-1.98,1.58,-1.48,0.31,-0.98,-15.0,-6.1875,453.5,0.71337890625,-0.3291015625,-0.4320068359375,-0.0427,-55.5,-4.375,-19.875,8.98,-2.29,walking_forward,6
6.74,6.677934818,26,3,3,3,3,-166.0,7.73,-2.08,1.53,-1.24,0.2,-0.59,-14.625,-6.3125,453.0625,0.712890625,-0.3291015625,-0.43328857421875,-0.0427,-55.5,-4.375,-20.0,8.98,-2.28,walking_forward,6
6.75,6.692073327,26,3,3,3,3,-174.0,7.8,-2.13,1.47,-1.17,0.13,-0.4,-14.625,-6.375,452.5,0.71240234375,-0.3292236328125,-0.43450927734375,-0.0427,-55.5,-4.375,-20.0625,8.98,-2.27,walking_forward,6
6.76,6.692073327,26,3,3,3,3,-182.0,7.77,-2.18,1.4,-1.2,0.07,-0.28,-14.0,-6.5625,452.0,0.7120361328125,-0.32928466796875,-0.4356689453125,-0.042,-55.0625,-4.0,-20.1875,8.97,-2.26,walking_forward,6
6.76,6.706819339,26,3,3,3,3,-192.0,7.78,-2.22,1.32,-1.18,0.02,-0.16,-14.3125,-6.8125,451.375,0.71160888671875,-0.329345703125,-0.43682861328125,-0.042,-55.0625,-4.0,-20.25,8.97,-2.25,walking_forward,6
6.77,6.706819339,26,3,3,3,3,-214.0,7.83,-2.11,1.12,-1.13,0.12,-0.02,-14.625,-7.1875,450.625,0.7113037109375,-0.3294677734375,-0.43804931640625,-0.042,-55.0625,-4.0,-20.375,8.96,-2.24,walking_forward,6
6.78,6.737425785,26,3,3,3,3,-219.0,7.85,-2.04,1.08,-1.11,0.19,0.01,-14.6875,-7.5,449.9375,0.7109375,-0.32958984375,-0.439208984375,-0.042,-55.0625,-4.0,-20.5,8.96,-2.23,walking_forward,6
6.79,6.737425785,26,3,3,3,3,-220.0,7.89,-1.99,1.09,-1.06,0.22,0.0,-14.625,-8.3125,449.1875,0.71063232421875,-0.32965087890625,-0.4404296875,-0.042,-55.0625,-4.0,-20.625,8.96,-2.22,walking_forward,6
6.81,6.756108971,26,3,3,3,3,-206.0,8.04,-2.23,1.25,-0.91,-0.01,-0.11,-14.5625,-8.875,448.4375,0.71026611328125,-0.32958984375,-0.44171142578125,-0.0427,-55.5,-4.0,-20.75,8.95,-2.21,walking_forward,6
6.82,6.756108971,26,3,3,3,3,-196.0,8.13,-2.43,1.37,-0.81,-0.22,-0.37,-14.5,-9.75,447.75,0.70989990234375,-0.3294677734375,-0.44305419921875,-0.0427,-55.5,-4.0,-20.875,8.95,-2.2,walking_forward,6
6.82,6.767099247,26,3,3,3,3,-196.0,8.13,-2.43,1.37,-0.81,-0.22,-0.37,-14.5,-9.75,447.75,0.70989990234375,-0.3294677734375,-0.44305419921875,-0.0427,-55.5,-4.0,-20.875,8.95,-2.2,walking_forward,6
6.83,6.767099247,26,3,3,3,3,-200.0,8.27,-2.69,1.36,-0.67,-0.5,-0.6,-14.5,-10.375,447.1875,0.70947265625,-0.3292236328125,-0.4444580078125,-0.0427,-55.5,-4.0,-21.0,8.94,-2.19,walking_forward,6
6.84,6.781448327,26,3,3,3,3,-212.0,8.46,-2.9,1.26,-0.47,-0.72,-0.67,-14.8125,-10.9375,446.5625,0.70904541015625,-0.3289794921875,-0.44586181640625,-0.0427,-55.5,-4.0,-21.125,8.94,-2.17,walking_forward,6
6.84,6.781448327,26,3,3,3,3,-241.0,8.9,-3.22,0.99,-0.03,-1.05,-0.4,-14.6875,-11.3125,445.8125,0.708740234375,-0.3287353515625,-0.447265625,-0.0427,-55.5,-4.0,-21.3125,8.93,-2.16,walking_forward,6
6.85,6.7964019,26,3,3,3,3,-248.0,8.93,-3.27,0.94,0.0,-1.12,0.15,-14.4375,-11.0625,444.9375,0.70849609375,-0.32867431640625,-0.44854736328125,-0.042,-55.0625,-2.5,-21.4375,8.92,-2.15,walking_forward,6
6.86,6.7964019,26,3,3,3,3,-252.0,8.97,-3.33,0.93,0.05,-1.17,0.83,-13.8125,-10.4375,443.75,0.70849609375,-0.3287353515625,-0.44964599609375,-0.042,-55.0625,-2.5,-21.5625,8.92,-2.15,walking_forward,6
6.87,6.827211226,26,3,3,3,3,-260.0,8.98,-3.27,0.86,0.07,-1.1,1.36,-12.5,-10.0,442.4375,0.7086181640625,-0.32891845703125,-0.4505615234375,-0.042,-55.0625,-2.5,-21.6875,8.91,-2.16,walking_forward,6
6.89,6.827211226,26,3,3,3,3,-273.0,8.96,-3.06,0.75,0.06,-0.89,1.63,-12.375,-9.5625,441.0625,0.708740234375,-0.3292236328125,-0.45135498046875,-0.042,-55.0625,-2.5,-21.8125,8.9,-2.17,walking_forward,6
6.9,6.841385013,26,3,3,3,3,-275.0,9.01,-3.0,0.75,0.12,-0.82,1.68,-12.6875,-9.6875,439.625,0.70892333984375,-0.32952880859375,-0.45220947265625,-0.042,-55.0625,-2.5,-21.9375,8.89,-2.18,walking_forward,6
6.91,6.841385013,26,3,3,3,3,-274.0,9.17,-3.01,0.78,0.29,-0.82,1.72,-13.25,-9.75,438.1875,0.7091064453125,-0.329833984375,-0.45306396484375,-0.0413,-56.25,-0.875,-22.0625,8.88,-2.18,walking_forward,6
6.92,6.860031091,26,3,3,3,3,-277.0,9.33,-3.03,0.77,0.46,-0.83,1.72,-12.9375,-10.0,436.6875,0.70928955078125,-0.33013916015625,-0.45391845703125,-0.0413,-56.25,-0.875,-22.1875,8.87,-2.19,walking_forward,6
6.93,6.860031091,26,3,3,3,3,-301.0,9.82,-3.24,0.55,0.96,-1.03,1.71,-13.75,-10.0625,435.1875,0.70941162109375,-0.33050537109375,-0.454833984375,-0.0413,-56.25,-0.875,-22.3125,8.86,-2.2,walking_forward,6
6.93,6.887401126,26,3,3,3,3,-317.0,10.17,-3.39,0.42,1.32,-1.17,1.67,-14.625,-10.1875,433.6875,0.70953369140625,-0.330810546875,-0.455810546875,-0.0413,-56.25,-0.875,-22.4375,8.85,-2.21,walking_forward,6
6.94,6.887401126,26,3,3,3,3,-332.0,10.43,-3.55,0.28,1.59,-1.33,1.73,-15.1875,-10.5,432.125,0.70965576171875,-0.3311767578125,-0.456787109375,-0.0413,-56.25,-0.875,-22.5625,8.84,-2.22,walking_forward,6
6.95,6.902640995,26,3,3,3,3,-355.0,11.04,-3.88,0.08,2.21,-1.65,1.92,-15.5,-10.6875,430.5,0.70977783203125,-0.33160400390625,-0.457763671875,-0.0416,-55.0625,0.6875,-22.6875,8.82,-2.23,walking_forward,6
6.97,6.902640995,26,3,3,3,3,-364.0,11.36,-3.91,0.01,2.55,-1.67,2.25,-15.6875,-10.6875,428.6875,0.7099609375,-0.33209228515625,-0.458740234375,-0.0416,-55.0625,0.6875,-22.875,8.81,-2.24,walking_forward,6
6.98,6.91675273,26,3,3,3,3,-362.0,11.57,-3.94,0.05,2.77,-1.68,2.73,-15.5625,-10.8125,426.6875,0.7103271484375,-0.3326416015625,-0.45953369140625,-0.0416,-55.0625,0.6875,-23.0,8.8,-2.25,walking_forward,6
6.99,6.91675273,26,3,3,3,3,-360.0,11.77,-3.95,0.1,2.98,-1.67,3.25,-14.8125,-11.125,424.5,0.71075439453125,-0.33331298828125,-0.46026611328125,-0.0416,-55.0625,0.6875,-23.125,8.78,-2.28,walking_forward,6
7.0,6.948254276,26,3,3,3,3,-375.0,12.36,-3.97,-0.02,3.59,-1.66,3.68,-13.4375,-10.6875,422.1875,0.71136474609375,-0.3341064453125,-0.4608154296875,-0.0416,-55.0625,0.6875,-23.25,8.77,-2.3,walking_forward,6
7.01,6.948254276,26,3,3,3,3,-399.0,12.89,-3.96,-0.24,4.14,-1.62,3.94,-13.25,-10.0,419.8125,0.7120361328125,-0.3349609375,-0.46124267578125,-0.0396,-55.875,2.1875,-23.375,8.75,-2.33,walking_forward,6
7.01,6.961639774,26,3,3,3,3,-402.0,13.1,-4.06,-0.25,4.36,-1.69,4.02,-15.25,-9.125,417.375,0.71258544921875,-0.3359375,-0.46173095703125,-0.0396,-55.875,2.1875,-23.5,8.73,-2.36,walking_forward,6
7.02,6.961639774,26,3,3,3,3,-371.0,12.34,-4.29,0.07,3.61,-1.89,4.22,-16.25,-8.625,414.875,0.713134765625,-0.33709716796875,-0.4622802734375,-0.0396,-55.875,2.1875,-23.625,8.72,-2.39,walking_forward,6
7.03,6.977897953,26,3,3,3,3,-326.0,10.62,-3.98,0.53,1.91,-1.55,4.67,-16.0,-7.8125,412.1875,0.7137451171875,-0.33837890625,-0.462646484375,-0.0396,-55.875,2.1875,-23.75,8.7,-2.43,walking_forward,6
7.05,6.977897953,26,3,3,3,3,-331.0,10.03,-3.4,0.5,1.34,-0.94,4.95,-17.0625,-6.625,409.4375,0.71435546875,-0.33978271484375,-0.4630126953125,-0.0396,-55.875,2.1875,-23.875,8.68,-2.46,walking_forward,6
7.06,7.014615279,26,3,3,3,3,-350.0,9.49,-2.8,0.33,0.82,-0.3,5.08,-16.75,-6.0625,406.625,0.7149658203125,-0.34130859375,-0.46331787109375,-0.0385,-56.25,4.1875,-23.9375,8.67,-2.5,walking_forward,6
7.07,7.014615279,26,3,3,3,3,-383.0,9.28,-2.21,0.02,0.62,0.32,4.89,-14.75,-5.9375,404.0,0.715576171875,-0.34271240234375,-0.4635009765625,-0.0385,-56.25,4.1875,-24.0625,8.65,-2.54,walking_forward,6
7.08,7.021805261,26,3,3,3,3,-479.0,9.41,-1.53,-0.92,0.77,1.04,4.59,-11.5625,-5.625,401.5625,0.71624755859375,-0.34393310546875,-0.46356201171875,-0.0385,-56.25,4.1875,-24.125,8.63,-2.57,walking_forward,6
7.09,7.021805261,26,3,3,3,3,-518.0,9.29,-1.41,-1.3,0.66,1.19,4.13,-8.8125,-5.375,399.4375,0.71697998046875,-0.344970703125,-0.4635009765625,-0.0385,-56.25,4.1875,-24.1875,8.62,-2.6,walking_forward,6
7.09,7.036484663,26,3,3,3,3,-543.0,9.21,-1.37,-1.54,0.6,1.26,3.54,-7.8125,-5.625,397.5625,0.71759033203125,-0.34576416015625,-0.4635009765625,-0.0385,-56.25,4.1875,-24.3125,8.6,-2.63,walking_forward,6
7.1,7.036484663,26,3,3,3,2,-533.0,8.81,-1.22,-1.43,0.21,1.43,3.07,-6.8125,-6.5,395.8125,0.7181396484375,-0.34637451171875,-0.4635009765625,-0.0374,-55.5,8.0,-24.375,8.59,-2.66,walking_forward,6
7.11,7.051989099,26,3,3,3,2,-533.0,8.81,-1.22,-1.43,0.21,1.43,3.07,-6.8125,-6.5,395.8125,0.7181396484375,-0.34637451171875,-0.4635009765625,-0.0374,-55.5,8.0,-24.375,8.59,-2.66,walking_forward,6
7.12,7.051989099,26,3,3,3,2,-462.0,8.03,-0.93,-0.71,-0.54,1.75,2.79,-5.4375,-7.3125,394.25,0.71875,-0.34686279296875,-0.46356201171875,-0.0374,-55.5,8.0,-24.4375,8.58,-2.68,walking_forward,6
7.13,7.068015181,26,3,3,3,2,-453.0,7.94,-0.9,-0.6,-0.62,1.79,2.35,-3.25,-7.3125,392.875,0.71929931640625,-0.34710693359375,-0.46356201171875,-0.0374,-55.5,8.0,-24.5,8.56,-2.7,walking_forward,6
7.14,7.068015181,26,3,3,3,2,-459.0,7.72,-0.83,-0.66,-0.83,1.88,1.57,2.1875,-6.25,392.0625,0.71990966796875,-0.3470458984375,-0.46331787109375,-0.0374,-55.5,8.0,-24.5625,8.56,-2.72,walking_forward,6
7.15,7.097786014,26,3,3,3,2,-471.0,7.39,-0.61,-0.77,-1.15,2.12,0.52,7.25,-4.9375,391.875,0.720458984375,-0.34661865234375,-0.462890625,-0.0374,-55.5,8.0,-24.5625,8.55,-2.73,walking_forward,6
7.16,7.097786014,26,3,3,3,2,-487.0,7.4,-0.56,-0.93,-1.14,2.16,-0.46,9.5,-2.6875,392.25,0.7208251953125,-0.34600830078125,-0.46246337890625,-0.0374,-53.75,8.0,-24.5625,8.55,-2.73,walking_forward,6
7.17,7.11178402,26,3,3,3,2,-496.0,7.61,-0.67,-1.02,-0.94,2.05,-1.22,10.625,-0.0625,393.0625,0.72100830078125,-0.34539794921875,-0.4620361328125,-0.0374,-53.75,8.0,-24.5625,8.55,-2.72,walking_forward,6
7.18,7.11178402,26,3,3,3,2,-493.0,7.81,-0.82,-1.0,-0.75,1.89,-2.04,13.1875,1.5625,394.375,0.7210693359375,-0.34454345703125,-0.4615478515625,-0.0374,-53.75,8.0,-24.5,8.56,-2.71,walking_forward,6
7.18,7.127222578,26,3,3,3,2,-507.0,8.45,-1.03,-1.16,-0.12,1.67,-2.64,17.0,2.875,396.125,0.72113037109375,-0.34344482421875,-0.46087646484375,-0.0374,-53.75,8.0,-24.4375,8.57,-2.7,walking_forward,6
7.2,7.127222578,26,3,3,3,2,-504.0,8.7,-1.2,-1.14,0.11,1.48,-2.92,18.1875,3.6875,398.0,0.72113037109375,-0.34234619140625,-0.46014404296875,-0.0374,-53.75,8.0,-24.3125,8.58,-2.69,walking_forward,6
7.21,7.157601607,26,3,3,3,2,-488.0,8.94,-1.49,-1.0,0.34,1.18,-2.78,18.0,4.0,399.8125,0.72113037109375,-0.34130859375,-0.4593505859375,-0.0359,-54.1875,8.375,-24.25,8.59,-2.67,walking_forward,6
7.22,7.157601607,26,3,3,3,2,-479.0,9.2,-1.77,-0.93,0.6,0.89,-2.21,19.625,4.3125,401.5,0.7213134765625,-0.34033203125,-0.4583740234375,-0.0359,-54.1875,8.375,-24.125,8.6,-2.66,walking_forward,6
7.23,7.173453698,26,3,3,3,2,-485.0,9.64,-2.17,-0.99,1.03,0.49,-1.68,20.875,4.3125,403.0,0.72161865234375,-0.3394775390625,-0.457275390625,-0.0359,-54.1875,8.375,-24.0625,8.61,-2.66,walking_forward,6
7.24,7.173453698,26,3,3,3,2,-451.0,9.34,-2.48,-0.67,0.72,0.18,-0.99,19.375,3.75,404.1875,0.72210693359375,-0.33880615234375,-0.4560546875,-0.0359,-54.1875,8.375,-23.9375,8.62,-2.67,walking_forward,6
7.25,7.188837243,26,3,3,3,2,-425.0,9.08,-2.58,-0.43,0.45,0.09,-0.42,19.6875,4.0625,405.125,0.72265625,-0.33831787109375,-0.45477294921875,-0.0359,-54.1875,8.375,-23.875,8.62,-2.68,walking_forward,6
7.26,7.188837243,26,3,3,3,2,-397.0,8.95,-2.54,-0.17,0.32,0.14,-0.75,24.25,3.5625,406.3125,0.72332763671875,-0.33746337890625,-0.4532470703125,-0.0367,-53.5625,8.0,-23.75,8.62,-2.68,walking_forward,6
7.26,7.216875207,26,3,3,3,2,-397.0,8.02,-2.36,-0.18,-0.61,0.32,-1.61,28.875,3.1875,407.9375,0.72406005859375,-0.3363037109375,-0.45159912109375,-0.0367,-53.5625,8.0,-23.625,8.63,-2.69,walking_forward,6
7.28,7.216875207,26,3,3,3,2,-381.0,7.51,-2.29,-0.05,-1.12,0.39,-2.2,29.25,3.5625,409.875,0.724609375,-0.3349609375,-0.4500732421875,-0.0367,-53.5625,8.0,-23.5,8.64,-2.69,walking_forward,6
7.29,7.232010054,26,3,3,3,2,-372.0,7.17,-2.18,0.02,-1.48,0.5,-2.22,29.0,5.0,411.8125,0.72509765625,-0.333740234375,-0.448486328125,-0.0367,-53.5625,8.0,-23.375,8.65,-2.68,walking_forward,6
7.3,7.232010054,26,3,3,3,2,-336.0,6.87,-1.89,0.35,-1.78,0.79,-1.96,30.1875,6.125,413.8125,0.72564697265625,-0.33258056640625,-0.44671630859375,-0.0367,-53.5625,8.0,-23.25,8.66,-2.69,walking_forward,6
7.31,7.247280399,26,3,3,3,2,-320.0,6.71,-1.86,0.48,-1.96,0.82,-1.87,30.25,7.125,415.75,0.7261962890625,-0.33148193359375,-0.44488525390625,-0.0367,-52.5625,7.1875,-23.0625,8.67,-2.69,walking_forward,6
7.32,7.247280399,26,3,3,3,2,-302.0,6.52,-1.76,0.64,-2.16,0.92,-1.87,31.125,8.4375,417.75,0.72674560546875,-0.3304443359375,-0.44293212890625,-0.0367,-52.5625,7.1875,-22.875,8.68,-2.69,walking_forward,6
7.33,7.27757882,26,3,3,3,2,-295.0,6.43,-1.64,0.68,-2.26,1.05,-2.23,32.875,9.875,420.0,0.72723388671875,-0.32940673828125,-0.44091796875,-0.0367,-52.5625,7.1875,-22.6875,8.69,-2.69,walking_forward,6
7.34,7.27757882,26,3,3,3,2,-301.0,6.44,-1.41,0.59,-2.26,1.27,-2.79,33.25,10.9375,422.5625,0.7275390625,-0.32818603515625,-0.43890380859375,-0.0367,-52.5625,7.1875,-22.5,8.71,-2.68,walking_forward,6
7.35,7.291552738,26,3,3,3,2,-317.0,6.42,-1.37,0.4,-2.3,1.3,-3.41,30.875,11.4375,425.3125,0.7276611328125,-0.3270263671875,-0.4371337890625,-0.0367,-52.5625,7.1875,-22.3125,8.73,-2.67,walking_forward,6
7.36,7.291552738,26,3,3,3,2,-318.0,6.46,-1.35,0.35,-2.28,1.3,-3.84,26.375,11.3125,428.125,0.7274169921875,-0.32586669921875,-0.43572998046875,-0.0371,-52.25,5.25,-22.125,8.74,-2.65,walking_forward,6
7.37,7.321696659,26,3,3,3,2,-303.0,6.47,-1.38,0.48,-2.29,1.24,-3.85,20.5,11.6875,430.75,0.72698974609375,-0.324951171875,-0.4346923828125,-0.0371,-52.25,5.25,-21.9375,8.76,-2.63,walking_forward,6
7.38,7.321696659,26,3,3,3,2,-288.0,6.4,-1.87,0.6,-2.38,0.72,-3.85,17.6875,11.375,433.25,0.7264404296875,-0.3240966796875,-0.433837890625,-0.0371,-52.25,5.25,-21.8125,8.78,-2.6,walking_forward,6
7.39,7.336092248,26,3,3,3,2,-299.0,6.64,-1.77,0.46,-2.16,0.79,-4.03,18.75,11.125,435.875,0.72589111328125,-0.3231201171875,-0.4329833984375,-0.0371,-52.25,5.25,-21.625,8.8,-2.57,walking_forward,6
7.4,7.336092248,26,3,3,3,2,-318.0,6.69,-1.61,0.26,-2.12,0.91,-4.58,17.5,10.25,438.4375,0.72515869140625,-0.321533203125,-0.43292236328125,-0.0371,-52.25,5.25,-21.5625,8.82,-2.53,walking_forward,6
7.41,7.3527085,26,3,3,3,2,-318.0,6.69,-1.61,0.26,-2.12,0.91,-4.58,17.5,10.25,438.4375,0.72515869140625,-0.321533203125,-0.43292236328125,-0.0371,-52.25,5.25,-21.5625,8.82,-2.53,walking_forward,6
7.41,7.3527085,26,3,3,3,2,-335.0,6.87,-1.52,0.08,-1.96,0.96,-5.29,15.5,9.75,441.4375,0.7242431640625,-0.3203125,-0.4324951171875,-0.0374,-51.1875,4.875,-21.4375,8.84,-2.49,walking_forward,6
7.42,7.367384444,26,3,3,3,2,-367.0,7.31,-1.9,-0.26,-1.54,0.53,-5.8,13.3125,9.25,444.5,0.72308349609375,-0.31903076171875,-0.432373046875,-0.0374,-51.1875,4.875,-21.3125,8.86,-2.44,walking_forward,6
7.43,7.367384444,26,3,3,3,2,-377.0,7.43,-2.14,-0.38,-1.44,0.24,-5.92,13.3125,9.375,447.625,0.721923828125,-0.31768798828125,-0.43218994140625,-0.0374,-51.1875,4.875,-21.1875,8.88,-2.39,walking_forward,6
7.44,7.382273034,26,3,3,3,2,-381.0,7.5,-2.4,-0.43,-1.39,-0.05,-5.58,13.3125,8.8125,450.625,0.7208251953125,-0.31646728515625,-0.4320068359375,-0.0374,-51.1875,4.875,-21.0625,8.9,-2.34,walking_forward,6
7.45,7.382273034,26,3,3,3,2,-384.0,7.56,-2.58,-0.48,-1.35,-0.27,-4.69,11.375,8.6875,453.1875,0.71990966796875,-0.3154296875,-0.4317626953125,-0.0374,-51.1875,4.875,-20.9375,8.91,-2.3,walking_forward,6
7.46,7.41203455,26,3,3,3,2,-377.0,8.25,-2.53,-0.43,-0.68,-0.25,-3.38,10.5,9.0625,455.1875,0.71923828125,-0.3148193359375,-0.43133544921875,-0.0381,-50.5,3.0,-20.8125,8.93,-2.28,walking_forward,6
7.47,7.41203455,26,3,3,3,2,-385.0,8.59,-2.18,-0.53,-0.35,0.08,-2.16,12.9375,9.1875,456.75,0.71893310546875,-0.31439208984375,-0.4305419921875,-0.0381,-50.5,3.0,-20.75,8.94,-2.26,walking_forward,6
7.48,7.427419275,26,3,3,3,2,-395.0,8.91,-1.98,-0.65,-0.04,0.27,-1.44,15.375,9.0,458.125,0.7188720703125,-0.31396484375,-0.429443359375,-0.0381,-50.5,3.0,-20.625,8.95,-2.26,walking_forward,6
7.49,7.427419275,26,3,3,3,2,-414.0,9.51,-2.16,-0.86,0.55,0.09,-1.27,15.8125,9.0625,459.4375,0.71893310546875,-0.31365966796875,-0.4283447265625,-0.0381,-50.5,3.0,-20.5,8.96,-2.25,walking_forward,6
7.5,7.45814128,26,3,3,3,2,-425.0,9.79,-2.36,-0.99,0.82,-0.11,-1.23,15.0625,9.0,460.6875,0.71893310546875,-0.31329345703125,-0.42724609375,-0.0381,-50.5,3.0,-20.375,8.96,-2.25,walking_forward,6
7.51,7.45814128,26,3,3,3,2,-436.0,10.12,-2.48,-1.12,1.14,-0.22,-1.03,14.25,9.1875,461.875,0.71893310546875,-0.3131103515625,-0.42620849609375,-0.0385,-49.6875,2.1875,-20.25,8.97,-2.25,walking_forward,6
7.52,7.464231001,26,3,3,3,2,-445.0,10.31,-2.49,-1.23,1.33,-0.24,-0.53,14.0625,9.5625,462.8125,0.7191162109375,-0.31298828125,-0.425048828125,-0.0385,-49.6875,2.1875,-20.125,8.98,-2.25,walking_forward,6
7.53,7.464231001,26,3,3,3,2,-446.0,10.44,-2.44,-1.26,1.46,-0.17,0.17,13.125,9.8125,463.5,0.7193603515625,-0.3131103515625,-0.423828125,-0.0385,-49.6875,2.1875,-19.9375,8.98,-2.26,walking_forward,6
7.54,7.488021,26,3,3,3,2,-435.0,10.51,-2.47,-1.17,1.51,-0.19,0.71,11.8125,9.75,463.875,0.71966552734375,-0.31341552734375,-0.42254638671875,-0.0385,-49.6875,2.1875,-19.8125,8.99,-2.27,walking_forward,6
7.55,7.488021,26,3,3,3,2,-423.0,10.63,-2.69,-1.07,1.63,-0.4,0.82,11.8125,9.5625,464.25,0.7200927734375,-0.313720703125,-0.42132568359375,-0.0385,-49.6875,2.1875,-19.75,8.99,-2.29,walking_forward,6
7.56,7.501702518,26,3,3,3,1,-413.0,10.59,-2.89,-0.99,1.59,-0.58,0.79,13.5,9.375,464.6875,0.72052001953125,-0.31396484375,-0.41998291015625,-0.0388,-49.25,4.1875,-19.625,8.99,-2.3,walking_forward,6
7.57,7.501702518,26,3,3,3,1,-414.0,11.3,-2.86,-1.02,2.3,-0.53,1.15,13.875,8.9375,464.9375,0.7210693359375,-0.314208984375,-0.4185791015625,-0.0388,-49.25,4.1875,-19.5,9.0,-2.32,walking_forward,6
7.58,7.517221358,26,3,3,3,1,-448.0,11.95,-2.62,-1.38,2.95,-0.26,1.94,14.3125,8.75,464.875,0.7218017578125,-0.31463623046875,-0.4169921875,-0.0388,-49.25,4.1875,-19.375,9.0,-2.35,walking_forward,6
7.59,7.517221358,26,3,3,3,1,-490.0,12.72,-2.44,-1.82,3.73,-0.05,2.72,13.0,8.6875,464.5,0.72271728515625,-0.3153076171875,-0.41534423828125,-0.0388,-49.25,4.1875,-19.25,8.99,-2.38,walking_forward,6
7.6,7.548766809,26,3,3,3,1,-476.0,12.8,-2.43,-1.7,3.81,0.0,3.41,9.4375,8.1875,463.6875,0.72369384765625,-0.31622314453125,-0.41387939453125,-0.0388,-49.25,4.1875,-19.125,8.99,-2.42,walking_forward,6
7.61,7.548766809,26,3,3,3,1,-348.0,11.62,-2.98,-0.43,2.63,-0.51,3.95,7.6875,8.75,462.625,0.72467041015625,-0.31732177734375,-0.412353515625,-0.0385,-47.75,2.5625,-19.0,8.98,-2.46,walking_forward,6
7.62,7.561270796,26,3,3,3,1,-307.0,11.13,-3.02,-0.04,2.15,-0.51,4.0,9.0625,9.9375,461.625,0.7257080078125,-0.3184814453125,-0.41070556640625,-0.0385,-47.75,2.5625,-18.875,8.98,-2.51,walking_forward,6
