timestamp,android_nano_timestamp,temperature,calib_mag,calib_accel,calib_gyro,calib_sys,acc_x,acc_y,acc_z,lacc_x,lacc_y,lacc_z,gyro_x,gyro_y,gyro_z,quat_w,quat_x,quat_y,quat_z,mag_x,mag_y,mag_z,gravity_x,gravity_y,gravity_z,label,person
1.47,1.432113201,23,3,3,3,3,-874.0,3.8,-3.08,0.09,0.31,-0.65,-3.26,-36.0625,-2.125,580.625,0.54730224609375,0.5697021484375,-0.233154296875,0.0245,-4.375,-3.6875,-55.1875,3.48,-2.43,climb_up,2
1.48,1.432113201,23,3,3,3,3,-876.0,3.8,-3.02,0.09,0.32,-0.65,-3.13,-32.9375,-2.8125,583.1875,0.5455322265625,0.568603515625,-0.23388671875,0.0245,-4.375,-3.6875,-55.3125,3.48,-2.37,climb_up,2
1.49,1.447987672,23,3,3,3,3,-867.0,3.71,-3.0,0.19,0.22,-0.69,-2.97,-30.625,-3.625,585.5625,0.5438232421875,0.56768798828125,-0.234619140625,0.0245,-4.6875,-5.5,-55.375,3.48,-2.31,climb_up,2
1.5,1.447987672,23,3,3,3,3,-851.0,3.65,-3.03,0.36,0.16,-0.77,-2.83,-30.0625,-4.0,587.8125,0.5421142578125,0.56671142578125,-0.2353515625,0.0245,-4.6875,-5.5,-55.5,3.48,-2.25,climb_up,2
1.51,1.453930787,23,3,3,3,3,-820.0,3.55,-3.15,0.69,0.06,-0.95,-2.72,-29.9375,-4.4375,590.0625,0.54046630859375,0.5657958984375,-0.23614501953125,0.0245,-4.6875,-5.5,-55.5625,3.48,-2.2,climb_up,2
1.52,1.453930787,23,3,3,3,3,-807.0,3.53,-3.23,0.83,0.04,-1.09,-2.64,-29.625,-4.5,592.25,0.538818359375,0.56488037109375,-0.2369384765625,0.0245,-4.6875,-5.5,-55.6875,3.48,-2.14,climb_up,2
1.53,1.466765911,23,3,3,3,3,-795.0,3.49,-3.35,0.97,0.0,-1.26,-2.56,-28.8125,-4.9375,594.3125,0.53717041015625,0.56396484375,-0.23773193359375,0.0245,-4.6875,-5.5,-55.75,3.48,-2.09,climb_up,2
1.54,1.466765911,23,3,3,3,3,-783.0,3.48,-3.45,1.1,0.0,-1.41,-2.48,-27.75,-4.8125,596.375,0.53558349609375,0.5631103515625,-0.23846435546875,0.0245,-4.0,-7.0625,-55.8125,3.48,-2.03,climb_up,2
1.55,1.48277291,23,3,3,3,3,-750.0,3.3,-3.71,1.44,-0.17,-1.72,-2.39,-24.6875,-5.1875,598.1875,0.5340576171875,0.56243896484375,-0.2391357421875,0.0245,-4.0,-7.0625,-55.875,3.48,-1.99,climb_up,2
1.56,1.48277291,23,3,3,3,3,-736.0,3.13,-3.73,1.58,-0.34,-1.77,-2.26,-19.875,-5.4375,599.75,0.53265380859375,0.56195068359375,-0.2396240234375,0.0245,-4.0,-7.0625,-55.9375,3.47,-1.95,climb_up,2
1.57,1.513242636,23,3,3,3,3,-723.0,3.0,-3.6,1.73,-0.46,-1.68,-2.1,-13.625,-5.9375,600.875,0.53143310546875,0.56182861328125,-0.23992919921875,0.0245,-4.0,-7.0625,-56.0,3.47,-1.92,climb_up,2
1.58,1.513242636,23,3,3,3,3,-713.0,2.92,-3.43,1.83,-0.53,-1.53,-1.93,-7.8125,-6.375,601.6875,0.5303955078125,0.56201171875,-0.239990234375,0.0245,-4.0,-7.0625,-56.0625,3.46,-1.9,climb_up,2
1.59,1.52692208,23,3,3,3,3,-712.0,2.88,-2.84,1.85,-0.57,-0.94,-1.84,-4.5625,-6.8125,602.3125,0.52935791015625,0.56231689453125,-0.239990234375,0.0231,-3.5625,-9.0,-56.0625,3.45,-1.89,climb_up,2
1.6,1.52692208,23,3,3,3,3,-719.0,2.9,-2.57,1.79,-0.54,-0.69,-1.95,-4.1875,-6.875,602.875,0.5283203125,0.562744140625,-0.23992919921875,0.0231,-3.5625,-9.0,-56.125,3.45,-1.87,climb_up,2
1.61,1.541344565,23,3,3,3,3,-736.0,2.95,-2.52,1.62,-0.48,-0.66,-2.23,-7.875,-6.75,603.8125,0.52716064453125,0.56292724609375,-0.23992919921875,0.0231,-3.5625,-9.0,-56.1875,3.44,-1.85,climb_up,2
1.62,1.541344565,23,3,3,3,3,-764.0,3.08,-2.64,1.35,-0.35,-0.82,-2.64,-14.5,-6.6875,605.125,0.52569580078125,0.5628662109375,-0.2401123046875,0.0231,-3.5625,-9.0,-56.1875,3.44,-1.82,climb_up,2
1.63,1.572447226,23,3,3,3,3,-816.0,3.24,-3.53,0.84,-0.19,-1.75,-3.01,-22.0625,-6.5,606.9375,0.52392578125,0.56243896484375,-0.24053955078125,0.0231,-3.5625,-9.0,-56.25,3.43,-1.78,climb_up,2
1.64,1.572447226,23,3,3,3,3,-851.0,3.29,-4.15,0.5,-0.13,-2.43,-3.42,-28.125,-7.25,609.1875,0.52191162109375,0.561767578125,-0.2410888671875,0.0238,-3.5625,-10.0625,-56.375,3.43,-1.72,climb_up,2
1.65,1.58675582,23,3,3,3,3,-893.0,3.28,-4.76,0.1,-0.14,-3.09,-3.53,-30.6875,-9.0,611.5,0.51971435546875,0.56103515625,-0.24188232421875,0.0238,-3.5625,-10.0625,-56.4375,3.42,-1.66,climb_up,2
1.66,1.58675582,23,3,3,3,3,-939.0,3.34,-5.51,-0.34,-0.06,-3.9,-3.34,-28.125,-12.125,613.625,0.5174560546875,0.56060791015625,-0.24273681640625,0.0238,-3.5625,-10.0625,-56.5625,3.41,-1.6,climb_up,2
1.67,1.601669516,23,3,3,3,3,-941.0,3.57,-5.47,-0.34,0.18,-3.91,-2.73,-20.375,-16.8125,615.0,0.51531982421875,0.5606689453125,-0.24371337890625,0.0238,-3.5625,-10.0625,-56.625,3.39,-1.56,climb_up,2
1.68,1.601669516,23,3,3,3,3,-928.0,3.7,-5.16,-0.2,0.35,-3.62,-1.74,-11.125,-21.625,615.5625,0.51348876953125,0.561279296875,-0.2447509765625,0.0238,-3.5625,-10.0625,-56.75,3.35,-1.54,climb_up,2
1.69,1.617116904,23,3,3,3,3,-904.0,3.9,-4.69,0.05,0.58,-3.16,-0.84,-7.1875,-24.8125,615.625,0.5118408203125,0.56219482421875,-0.24609375,0.0234,-2.5625,-12.0,-56.8125,3.32,-1.53,climb_up,2
1.69,1.617116904,23,3,3,3,3,-904.0,3.9,-4.69,0.05,0.58,-3.16,-0.84,-7.1875,-24.8125,615.625,0.5118408203125,0.56219482421875,-0.24609375,0.0234,-2.5625,-12.0,-56.8125,3.32,-1.53,climb_up,2
1.7,1.648135418,23,3,3,3,3,-858.0,4.17,-3.98,0.53,0.89,-2.47,-0.53,-11.5,-26.4375,615.6875,0.5101318359375,0.5628662109375,-0.247802734375,0.0234,-2.5625,-12.0,-56.9375,3.28,-1.51,climb_up,2
1.71,1.648135418,23,3,3,3,3,-838.0,4.14,-3.86,0.75,0.9,-2.39,-0.83,-24.0,-26.8125,616.5,0.508056640625,0.56292724609375,-0.25,0.0234,-2.5625,-12.0,-57.0625,3.23,-1.47,climb_up,2
1.72,1.661957887,23,3,3,3,3,-823.0,3.98,-3.84,0.93,0.78,-2.44,-1.4,-39.5625,-26.0,618.3125,0.5054931640625,0.56219482421875,-0.252685546875,0.0234,-2.5625,-12.0,-57.25,3.2,-1.4,climb_up,2
1.73,1.661957887,23,3,3,3,3,-820.0,3.81,-3.88,0.98,0.65,-2.56,-1.79,-51.4375,-24.25,620.8125,0.50262451171875,0.560791015625,-0.25567626953125,0.0234,-2.5625,-12.0,-57.375,3.16,-1.31,climb_up,2
1.74,1.677372763,23,3,3,3,3,-819.0,3.81,-3.64,1.02,0.69,-2.41,-1.74,-56.3125,-23.125,623.5,0.4996337890625,0.55908203125,-0.2587890625,0.0239,-2.875,-13.1875,-57.5625,3.12,-1.22,climb_up,2
1.75,1.677372763,23,3,3,3,3,-819.0,3.94,-3.21,1.03,0.85,-2.09,-1.3,-56.3125,-21.9375,626.125,0.49688720703125,0.5572509765625,-0.261962890625,0.0239,-2.875,-13.1875,-57.6875,3.09,-1.12,climb_up,2
1.76,1.692076824,23,3,3,3,3,-822.0,4.16,-2.71,1.03,1.1,-1.68,-0.61,-55.75,-20.25,628.5625,0.49444580078125,0.5552978515625,-0.2652587890625,0.0239,-2.875,-13.1875,-57.8125,3.06,-1.03,climb_up,2
1.77,1.692076824,23,3,3,3,3,-839.0,4.37,-2.2,0.88,1.33,-1.26,-0.01,-57.875,-17.8125,630.9375,0.4923095703125,0.552978515625,-0.2686767578125,0.0239,-2.875,-13.1875,-57.9375,3.03,-0.94,climb_up,2
1.78,1.721958375,23,3,3,3,3,-906.0,4.31,-1.4,0.22,1.3,-0.56,0.32,-63.9375,-14.6875,633.625,0.490234375,0.55010986328125,-0.27227783203125,0.0239,-2.875,-13.1875,-58.0625,3.01,-0.84,climb_up,2
1.79,1.721958375,23,3,3,3,3,-977.0,4.04,-1.26,-0.46,1.05,-0.53,0.44,-71.625,-10.9375,636.6875,0.4881591796875,0.54669189453125,-0.27606201171875,0.0235,-2.1875,-17.0,-58.1875,2.99,-0.72,climb_up,2
1.8,1.736649171,23,3,3,3,3,-1040.0,3.71,-1.24,-1.07,0.73,-0.64,0.32,-78.9375,-8.3125,640.25,0.48602294921875,0.542724609375,-0.2799072265625,0.0235,-2.1875,-17.0,-58.25,2.98,-0.6,climb_up,2
1.81,1.736649171,23,3,3,3,3,-1172.0,3.23,-1.33,-2.39,0.26,-0.86,-0.1,-82.8125,-7.0,644.0625,0.483642578125,0.53851318359375,-0.28375244140625,0.0235,-2.1875,-17.0,-58.3125,2.96,-0.46,climb_up,2
1.82,1.766382163,23,3,3,3,3,-1237.0,3.18,-1.09,-3.02,0.22,-0.75,-0.36,-83.1875,-8.6875,647.875,0.4810791015625,0.534423828125,-0.28759765625,0.0235,-2.1875,-17.0,-58.375,2.95,-0.33,climb_up,2
1.83,1.766382163,23,3,3,3,3,-1287.0,3.43,-0.66,-3.51,0.5,-0.46,-0.33,-78.25,-11.4375,651.3125,0.47845458984375,0.5306396484375,-0.2913818359375,0.0235,-2.1875,-17.0,-58.4375,2.93,-0.2,climb_up,2
1.84,1.782120566,23,3,3,3,3,-1327.0,3.95,-0.15,-3.91,1.03,-0.06,-0.05,-69.0,-13.4375,654.1875,0.47613525390625,0.52740478515625,-0.29498291015625,0.0243,-1.875,-21.1875,-58.5,2.91,-0.09,climb_up,2
1.85,1.782120566,23,3,3,3,3,-1354.0,4.89,0.9,-4.17,1.99,0.9,0.34,-59.4375,-13.625,656.5,0.47412109375,0.52459716796875,-0.29827880859375,0.0243,-1.875,-21.1875,-58.5625,2.89,0.0,climb_up,2
1.86,1.796716228,23,3,3,3,3,-1382.0,5.29,1.38,-4.44,2.42,1.3,0.86,-53.25,-10.875,658.4375,0.4725341796875,0.52197265625,-0.30133056640625,0.0243,-1.875,-21.1875,-58.5625,2.87,0.08,climb_up,2
1.87,1.796716228,23,3,3,3,3,-1404.0,5.53,1.67,-4.67,2.67,1.51,1.28,-50.125,-6.0,660.25,0.471435546875,0.5191650390625,-0.3040771484375,0.0243,-1.875,-21.1875,-58.5625,2.86,0.16,climb_up,2
1.88,1.811502158,23,3,3,3,3,-1428.0,5.47,1.96,-4.9,2.61,1.72,1.46,-50.6875,-0.25,662.1875,0.47064208984375,0.51611328125,-0.3065185546875,0.0243,-1.875,-21.1875,-58.5625,2.86,0.23,climb_up,2
1.89,1.811502158,23,3,3,3,3,-1490.0,4.95,2.09,-5.53,2.07,1.77,1.18,-53.5625,4.6875,664.4375,0.4698486328125,0.5126953125,-0.30877685546875,0.0225,-1.5,-26.1875,-58.5625,2.87,0.32,climb_up,2
1.9,1.84202173,23,3,3,3,3,-1520.0,4.52,2.17,-5.84,1.63,1.75,0.69,-58.0,7.375,667.0625,0.46893310546875,0.509033203125,-0.3109130859375,0.0225,-1.5,-26.1875,-58.5,2.88,0.41,climb_up,2
1.91,1.84202173,23,3,3,3,3,-1576.0,4.31,2.24,-6.4,1.42,1.73,0.04,-60.125,6.0,669.9375,0.46759033203125,0.50537109375,-0.31298828125,0.0225,-1.5,-26.1875,-58.4375,2.89,0.5,climb_up,2
1.92,1.856222454,23,3,3,3,3,-1617.0,4.06,2.53,-6.82,1.16,1.92,-0.74,-56.5625,1.0,672.6875,0.4658203125,0.502197265625,-0.31500244140625,0.0225,-1.5,-26.1875,-58.375,2.89,0.6,climb_up,2
1.93,1.856222454,23,3,3,3,3,-1573.0,3.51,3.29,-6.38,0.62,2.61,-1.53,-44.9375,-6.125,674.875,0.46380615234375,0.50018310546875,-0.31671142578125,0.0225,-1.5,-26.1875,-58.375,2.88,0.68,climb_up,2
1.94,1.888129355,23,3,3,3,3,-1519.0,3.27,3.72,-5.84,0.41,2.99,-2.47,-27.1875,-13.5625,676.375,0.46160888671875,0.49957275390625,-0.31793212890625,0.0226,-0.875,-28.25,-58.4375,2.86,0.73,climb_up,2
1.95,1.888129355,23,3,3,3,3,-1463.0,2.99,4.19,-5.27,0.16,3.43,-3.71,-9.8125,-19.375,677.1875,0.45916748046875,0.50048828125,-0.31842041015625,0.0226,-0.875,-28.25,-58.4375,2.82,0.75,climb_up,2
1.96,1.891284262,23,3,3,3,3,-1463.0,2.99,4.19,-5.27,0.16,3.43,-3.71,-9.8125,-19.375,677.1875,0.45916748046875,0.50048828125,-0.31842041015625,0.0226,-0.875,-28.25,-58.4375,2.82,0.75,climb_up,2
1.96,1.891284262,23,3,3,3,3,-1363.0,2.39,4.89,-4.26,-0.39,4.12,-4.67,3.8125,-22.9375,677.5,0.45660400390625,0.50244140625,-0.31829833984375,0.0226,-0.875,-28.25,-58.5625,2.78,0.76,climb_up,2
1.97,1.901140138,23,3,3,3,3,-1330.0,2.24,5.26,-3.91,-0.49,4.5,-5.29,13.5,-24.0625,677.5625,0.4539794921875,0.505126953125,-0.31768798828125,0.0226,-0.875,-28.25,-58.625,2.74,0.75,climb_up,2
1.98,1.901140138,23,3,3,3,3,-1301.0,2.04,5.41,-3.61,-0.65,4.67,-5.85,23.125,-23.9375,677.3125,0.45147705078125,0.5084228515625,-0.3165283203125,0.0226,-0.875,-28.25,-58.6875,2.7,0.73,climb_up,2
1.99,1.931950075,23,3,3,3,3,-1320.0,1.87,5.49,-3.79,-0.78,4.78,-5.95,31.5,-22.0625,676.75,0.44921875,0.51214599609375,-0.31488037109375,0.0238,-0.875,-30.5625,-58.8125,2.66,0.7,climb_up,2
2.0,1.931950075,23,3,3,3,3,-1279.0,1.73,5.21,-3.36,-0.88,4.55,-6.41,39.5,-18.875,676.0,0.4471435546875,0.5162353515625,-0.3126220703125,0.0238,-0.875,-30.5625,-58.875,2.62,0.65,climb_up,2
2.01,1.947849896,23,3,3,3,3,-1261.0,1.76,4.94,-3.17,-0.83,4.34,-6.14,46.4375,-16.9375,674.875,0.4454345703125,0.5206298828125,-0.31005859375,0.0238,-0.875,-30.5625,-58.9375,2.59,0.59,climb_up,2
2.02,1.947849896,23,0,3,3,3,-1241.0,1.97,4.55,-2.96,-0.59,4.02,-4.91,48.6875,-14.375,673.4375,0.4443359375,0.52484130859375,-0.3076171875,0.0238,-0.875,-30.5625,-59.0625,2.56,0.53,climb_up,2
2.03,1.961657065,23,0,3,3,3,-1196.0,2.13,3.98,-2.5,-0.4,3.51,-3.34,46.5,-12.0625,671.75,0.44384765625,0.52850341796875,-0.3055419921875,0.0238,-0.875,-30.5625,-59.0625,2.54,0.46,climb_up,2
2.04,1.961657065,23,0,3,3,3,-1062.0,2.31,2.63,-1.15,-0.2,2.22,-1.99,40.3125,-10.375,670.0625,0.4437255859375,0.53155517578125,-0.30401611328125,0.0261,-1.0,-28.0625,-59.125,2.52,0.4,climb_up,2
2.05,1.998383912,23,0,3,3,3,-1023.0,2.46,1.92,-0.75,-0.04,1.56,-1.08,30.9375,-9.125,668.5625,0.4437255859375,0.53387451171875,-0.30303955078125,0.0261,-1.0,-28.0625,-59.1875,2.5,0.35,climb_up,2
2.06,1.998383912,23,0,3,3,3,-992.0,2.57,1.26,-0.44,0.08,0.94,-0.85,19.5,-8.25,667.625,0.44354248046875,0.535400390625,-0.302490234375,0.0261,-1.0,-28.0625,-59.1875,2.49,0.32,climb_up,2
2.07,2.007459474,23,0,3,3,3,-955.0,2.76,0.71,-0.07,0.28,0.4,-1.47,9.5,-6.25,667.375,0.4429931640625,0.53643798828125,-0.30206298828125,0.0261,-1.0,-28.0625,-59.25,2.48,0.31,climb_up,2
2.08,2.007459474,23,0,3,3,3,-914.0,2.72,-0.11,0.33,0.24,-0.42,-2.81,6.375,-3.3125,667.6875,0.44195556640625,0.53741455078125,-0.3011474609375,0.0261,-1.0,-28.0625,-59.25,2.47,0.31,climb_up,2
2.09,2.037699098,23,0,3,3,3,-883.0,2.6,-0.34,0.64,0.12,-0.64,-4.42,12.5625,-0.1875,668.1875,0.44073486328125,0.538818359375,-0.29937744140625,0.0235,-0.6875,-26.1875,-59.25,2.47,0.3,climb_up,2
2.1,2.037699098,23,0,3,3,3,-838.0,2.4,-0.37,1.1,-0.06,-0.64,-5.25,27.25,0.75,668.1875,0.4395751953125,0.54119873046875,-0.2967529296875,0.0235,-0.6875,-26.1875,-59.25,2.47,0.27,climb_up,2
2.11,2.05146513,23,0,3,3,3,-729.0,2.17,0.01,2.19,-0.3,-0.19,-4.94,44.8125,1.4375,667.25,0.43902587890625,0.54449462890625,-0.29351806640625,0.0235,-0.6875,-26.1875,-59.25,2.47,0.21,climb_up,2
2.12,2.05146513,23,0,3,3,3,-663.0,2.0,0.19,2.85,-0.46,0.07,-4.1,59.5,1.9375,665.4375,0.439208984375,0.5484619140625,-0.2899169921875,0.0235,-0.6875,-26.1875,-59.25,2.47,0.12,climb_up,2
2.13,2.066805014,23,3,3,3,3,-606.0,1.91,0.35,3.42,-0.56,0.33,-3.54,68.25,2.5625,663.0,0.43975830078125,0.55279541015625,-0.28607177734375,0.0235,-0.6875,-26.1875,-59.25,2.48,0.02,climb_up,2
2.14,2.066805014,23,3,3,3,3,-534.0,1.7,0.48,4.13,-0.78,0.56,-3.22,67.8125,4.625,660.5625,0.4405517578125,0.556884765625,-0.2822265625,0.0245,-0.375,-25.6875,-59.25,2.49,-0.08,climb_up,2
2.15,2.082495159,23,3,3,3,3,-425.0,1.53,0.68,5.22,-0.96,0.85,-3.03,60.0,5.1875,658.4375,0.441162109375,0.560546875,-0.2786865234375,0.0245,-0.375,-25.6875,-59.25,2.49,-0.17,climb_up,2
2.16,2.082495159,23,3,3,3,3,-397.0,1.65,0.64,5.49,-0.85,0.89,-3.41,47.5625,8.625,657.125,0.44158935546875,0.56341552734375,-0.27532958984375,0.0245,-0.375,-25.6875,-59.1875,2.51,-0.24,climb_up,2
2.17,2.112453086,23,3,3,3,3,-355.0,1.36,0.65,5.9,-1.17,0.94,-4.78,35.4375,15.0,656.875,0.44146728515625,0.56549072265625,-0.27166748046875,0.0245,-0.375,-25.6875,-59.125,2.54,-0.28,climb_up,2
2.18,2.112453086,23,3,3,3,3,-327.0,1.21,0.45,6.18,-1.36,0.77,-6.29,26.1875,17.3125,657.5,0.44073486328125,0.56719970703125,-0.26776123046875,0.0245,-0.375,-25.6875,-59.0625,2.57,-0.31,climb_up,2
2.19,2.127447837,23,3,3,3,3,-302.0,1.09,0.11,6.42,-1.51,0.43,-6.88,16.0,19.625,658.875,0.43963623046875,0.568359375,-0.263916015625,0.0259,-0.75,-20.6875,-59.0,2.6,-0.32,climb_up,2
2.2,2.127447837,23,3,3,3,3,-304.0,0.94,-0.06,6.39,-1.69,0.24,-7.04,8.4375,19.75,660.625,0.4383544921875,0.569091796875,-0.26031494140625,0.0259,-0.75,-20.6875,-58.9375,2.64,-0.31,climb_up,2
2.21,2.141720582,23,3,3,3,3,-288.0,0.72,-0.17,6.54,-1.95,0.12,-7.46,4.4375,20.5,662.75,0.43682861328125,0.569580078125,-0.25665283203125,0.0259,-0.75,-20.6875,-58.875,2.67,-0.29,climb_up,2
2.22,2.141720582,23,3,3,3,3,-288.0,0.72,-0.17,6.54,-1.95,0.12,-7.46,4.4375,20.5,662.75,0.43682861328125,0.569580078125,-0.25665283203125,0.0259,-0.75,-20.6875,-58.875,2.67,-0.29,climb_up,2
2.22,2.157225506,23,3,3,3,3,-276.0,0.57,-0.25,6.65,-2.13,0.02,-6.49,0.0,18.9375,664.75,0.43548583984375,0.56976318359375,-0.2535400390625,0.0259,-0.75,-20.6875,-58.875,2.71,-0.28,climb_up,2
2.23,2.157225506,23,3,3,3,3,-291.0,1.03,-0.36,6.49,-1.7,-0.1,-5.42,-1.125,17.1875,666.5,0.43438720703125,0.56982421875,-0.2509765625,0.0259,-0.75,-20.6875,-58.8125,2.74,-0.26,climb_up,2
2.24,2.171138633,23,3,3,3,2,-307.0,1.07,-0.41,6.32,-1.69,-0.16,-5.12,1.375,15.5625,668.0625,0.433349609375,0.57000732421875,-0.2484130859375,0.0262,-1.0625,-19.5,-58.75,2.76,-0.24,climb_up,2
2.25,2.171138633,23,3,3,3,2,-320.0,1.17,-0.56,6.18,-1.61,-0.31,-4.31,5.75,13.3125,669.0625,0.4326171875,0.57037353515625,-0.24609375,0.0262,-1.0625,-19.5,-58.6875,2.79,-0.24,climb_up,2
2.26,2.20133008,23,3,3,3,2,-336.0,1.42,-0.27,6.02,-1.38,-0.02,-2.92,11.8125,11.625,669.4375,0.43243408203125,0.57098388671875,-0.24407958984375,0.0262,-1.0625,-19.5,-58.6875,2.81,-0.25,climb_up,2
2.27,2.20133008,23,3,3,3,2,-413.0,1.78,-0.06,5.25,-1.04,0.21,-1.79,20.0,9.125,669.0625,0.43267822265625,0.572021484375,-0.24224853515625,0.0262,-1.0625,-19.5,-58.625,2.82,-0.28,climb_up,2
2.28,2.216685345,23,3,3,3,2,-452.0,2.11,-0.04,4.85,-0.72,0.28,-0.25,29.375,6.75,667.75,0.43353271484375,0.573486328125,-0.24066162109375,0.0262,-1.0625,-19.5,-58.625,2.83,-0.32,climb_up,2
2.29,2.216685345,23,3,3,3,2,-520.0,2.4,-0.06,4.17,-0.44,0.32,0.98,35.4375,5.9375,665.8125,0.43487548828125,0.57513427734375,-0.23931884765625,0.0255,-1.0625,-18.0,-58.5625,2.84,-0.39,climb_up,2
2.3,2.247653281,23,3,3,3,2,-667.0,2.9,-0.08,2.69,0.05,0.36,1.84,35.6875,5.4375,663.6875,0.43658447265625,0.57672119140625,-0.23822021484375,0.0255,-1.0625,-18.0,-58.5625,2.85,-0.45,climb_up,2
2.31,2.247653281,23,3,3,3,2,-735.0,3.14,-0.45,2.01,0.28,0.05,2.43,29.0,5.75,661.6875,0.4383544921875,0.57781982421875,-0.237548828125,0.0255,-1.0625,-18.0,-58.5,2.86,-0.5,climb_up,2
2.32,2.261704835,23,3,3,3,2,-840.0,3.5,-0.66,0.95,0.63,-0.11,3.19,18.875,7.125,660.125,0.440185546875,0.57818603515625,-0.2374267578125,0.0255,-1.0625,-18.0,-58.5,2.87,-0.55,climb_up,2
2.33,2.261704835,23,3,3,3,2,-964.0,3.78,-1.28,-0.28,0.89,-0.71,3.51,6.875,7.9375,659.0625,0.44195556640625,0.57781982421875,-0.23779296875,0.0255,-1.0625,-18.0,-58.4375,2.88,-0.57,climb_up,2
2.34,2.277484295,23,3,3,3,2,-1301.0,3.77,-2.22,-3.66,0.88,-1.65,3.22,-8.25,8.0,658.875,0.443359375,0.57659912109375,-0.23870849609375,0.0254,-0.25,-17.25,-58.4375,2.89,-0.56,climb_up,2
2.35,2.277484295,23,3,3,3,2,-1470.0,3.41,-2.6,-5.35,0.5,-2.05,1.53,-15.9375,7.4375,659.5,0.44390869140625,0.5751953125,-0.2393798828125,0.0254,-0.25,-17.25,-58.375,2.9,-0.54,climb_up,2
2.36,2.307249839,23,3,3,3,2,-1625.0,3.1,-3.19,-6.9,0.18,-2.66,-1.09,-8.8125,6.875,660.375,0.4437255859375,0.5745849609375,-0.239013671875,0.0254,-0.25,-17.25,-58.375,2.91,-0.52,climb_up,2
2.37,2.307249839,23,3,3,3,2,-1804.0,3.31,-3.62,-8.7,0.37,-3.1,-2.72,0.4375,9.6875,661.25,0.4432373046875,0.5745849609375,-0.23760986328125,0.0254,-0.25,-17.25,-58.375,2.93,-0.52,climb_up,2
2.38,2.321516684,23,3,3,3,2,-2157.0,3.73,-4.52,-12.24,0.75,-4.01,-2.79,-1.0,22.375,662.4375,0.443359375,0.573974609375,-0.2354736328125,0.0254,-0.25,-17.25,-58.3125,2.97,-0.51,climb_up,2
2.39,2.321516684,23,3,3,3,2,-2188.0,3.56,-4.67,-12.57,0.53,-4.18,-1.99,-11.5625,33.0,664.25,0.44403076171875,0.57232666015625,-0.23345947265625,0.0251,-1.25,-16.875,-58.1875,3.02,-0.48,climb_up,2
2.4,2.33670687,23,3,3,3,2,-2008.0,3.62,-4.93,-10.78,0.53,-4.47,-0.12,-16.625,36.875,665.875,0.44549560546875,0.57000732421875,-0.23199462890625,0.0251,-1.25,-16.875,-58.0625,3.08,-0.45,climb_up,2
2.41,2.33670687,23,3,3,3,2,-1755.0,3.44,-5.08,-8.28,0.29,-4.62,1.49,-4.6875,37.125,666.5,0.44781494140625,0.568115234375,-0.23052978515625,0.0251,-1.25,-16.875,-57.9375,3.14,-0.45,climb_up,2
2.42,2.366917848,23,3,3,3,2,-1409.0,3.96,-4.26,-4.83,0.76,-3.77,3.06,13.1875,36.4375,665.75,0.450927734375,0.5670166015625,-0.2288818359375,0.0251,-1.25,-16.875,-57.8125,3.2,-0.48,climb_up,2
2.43,2.366917848,23,3,3,3,2,-1344.0,4.42,-3.34,-4.2,1.16,-2.78,4.05,32.5625,35.6875,663.8125,0.45477294921875,0.56695556640625,-0.226806640625,0.0251,-1.25,-16.875,-57.6875,3.26,-0.55,climb_up,2
2.44,2.381308961,23,3,3,3,2,-1313.0,4.47,-2.08,-3.93,1.16,-1.42,4.13,56.4375,34.125,660.5625,0.45904541015625,0.56829833984375,-0.22393798828125,0.0264,-0.5625,-17.25,-57.5,3.31,-0.66,climb_up,2
2.45,2.381308961,23,3,3,3,2,-1314.0,5.07,0.76,-3.97,1.71,1.57,5.77,79.6875,33.9375,655.6875,0.46429443359375,0.57073974609375,-0.22064208984375,0.0264,-0.5625,-17.25,-57.3125,3.36,-0.81,climb_up,2
2.46,2.396219118,23,3,3,3,2,-1279.0,5.77,1.7,-3.65,2.36,2.69,7.31,95.125,34.1875,649.5625,0.47039794921875,0.57379150390625,-0.21710205078125,0.0264,-0.5625,-17.25,-57.125,3.4,-0.98,climb_up,2
2.47,2.396219118,23,3,3,3,2,-1279.0,5.77,1.7,-3.65,2.36,2.69,7.31,95.125,34.1875,649.5625,0.47039794921875,0.57379150390625,-0.21710205078125,0.0264,-0.5625,-17.25,-57.125,3.4,-0.98,climb_up,2
2.47,2.411892661,23,3,3,3,2,-1234.0,6.28,2.41,-3.24,2.82,3.58,7.56,91.5,33.75,643.5,0.47637939453125,0.5765380859375,-0.2138671875,0.0264,-0.5625,-17.25,-56.875,3.45,-1.16,climb_up,2
2.48,2.411892661,23,3,3,3,2,-1161.0,6.74,2.5,-2.54,3.24,3.81,7.3,71.9375,32.6875,638.4375,0.48187255859375,0.5782470703125,-0.21136474609375,0.0264,-0.5625,-17.25,-56.625,3.49,-1.3,climb_up,2
2.49,2.426662843,23,3,3,3,2,-973.0,7.27,1.65,-0.7,3.74,3.05,6.25,43.125,31.5,635.125,0.48638916015625,0.57855224609375,-0.2098388671875,0.0266,-1.6875,-11.875,-56.4375,3.53,-1.39,climb_up,2
2.5,2.426662843,23,3,3,3,2,-909.0,7.45,1.18,-0.07,3.88,2.61,3.92,12.1875,30.8125,634.0,0.489501953125,0.57745361328125,-0.2088623046875,0.0266,-1.6875,-11.875,-56.3125,3.57,-1.43,climb_up,2
2.51,2.456613649,23,3,3,3,2,-891.0,7.42,0.66,0.09,3.8,2.08,1.78,-14.5625,31.125,634.8125,0.49139404296875,0.57513427734375,-0.2083740234375,0.0266,-1.6875,-11.875,-56.25,3.62,-1.41,climb_up,2
2.52,2.456613649,23,3,3,3,2,-890.0,7.24,0.15,0.08,3.57,1.52,0.37,-29.5,30.8125,636.8125,0.4925537109375,0.57220458984375,-0.20806884765625,0.0266,-1.6875,-11.875,-56.125,3.67,-1.37,climb_up,2
2.53,2.47125696,23,3,3,3,2,-885.0,6.42,-0.53,0.11,2.7,0.79,-0.11,-29.9375,28.25,638.875,0.49334716796875,0.5693359375,-0.20782470703125,0.0266,-1.6875,-11.875,-56.0625,3.71,-1.32,climb_up,2
2.54,2.47125696,23,3,3,3,2,-872.0,6.01,-0.52,0.24,2.26,0.77,1.35,-20.25,24.3125,640.0,0.49462890625,0.5670166015625,-0.207763671875,0.0272,-3.0,-6.5625,-56.0,3.75,-1.29,climb_up,2
2.55,2.486456178,23,3,3,3,2,-839.0,5.66,-0.26,0.56,1.89,1.04,4.06,-3.0625,19.5625,639.375,0.4969482421875,0.5655517578125,-0.20806884765625,0.0272,-3.0,-6.5625,-55.9375,3.77,-1.31,climb_up,2
2.56,2.486456178,23,3,3,3,2,-804.0,5.43,0.08,0.89,1.64,1.45,6.68,16.125,15.3125,637.0,0.50030517578125,0.56500244140625,-0.2086181640625,0.0272,-3.0,-6.5625,-55.875,3.79,-1.36,climb_up,2
2.57,2.516271283,23,3,3,3,2,-741.0,5.11,0.81,1.51,1.31,2.25,8.41,28.875,12.0,633.4375,0.5042724609375,0.5650634765625,-0.20928955078125,0.0272,-3.0,-6.5625,-55.75,3.79,-1.44,climb_up,2
2.58,2.516271283,23,3,3,3,2,-712.0,4.87,1.03,1.77,1.07,2.56,9.25,32.25,10.5625,629.375,0.50848388671875,0.56524658203125,-0.2100830078125,0.0272,-3.0,-6.5625,-55.625,3.8,-1.53,climb_up,2
2.59,2.532233644,23,3,3,3,2,-700.0,4.61,1.07,1.88,0.8,2.68,9.34,26.6875,11.125,625.625,0.51263427734375,0.56512451171875,-0.211181640625,0.0276,-2.25,-7.0,-55.5625,3.8,-1.61,climb_up,2
2.6,2.532233644,23,3,3,3,2,-703.0,3.9,0.66,1.84,0.1,2.33,8.75,13.8125,12.25,622.625,0.51641845703125,0.56427001953125,-0.21258544921875,0.0276,-2.25,-7.0,-55.5,3.8,-1.66,climb_up,2
2.61,2.547370322,23,3,3,3,2,-708.0,3.69,0.28,1.78,-0.12,1.97,7.51,-4.25,13.875,620.9375,0.51953125,0.5625,-0.21435546875,0.0276,-2.25,-7.0,-55.4375,3.81,-1.69,climb_up,2
2.62,2.547370322,23,3,3,3,2,-718.0,3.65,-0.1,1.68,-0.17,1.57,6.09,-25.75,15.1875,620.8125,0.52178955078125,0.55975341796875,-0.216552734375,0.0276,-2.25,-7.0,-55.4375,3.82,-1.67,climb_up,2
2.63,2.576858359,23,3,3,3,2,-743.0,3.64,-0.67,1.43,-0.19,0.95,4.93,-46.0625,16.625,622.0,0.52337646484375,0.55596923828125,-0.21929931640625,0.0276,-2.25,-7.0,-55.4375,3.84,-1.62,climb_up,2
2.64,2.576858359,23,3,3,3,2,-785.0,3.42,-2.41,1.02,-0.43,-0.86,4.02,-63.0625,16.8125,624.25,0.5242919921875,0.55133056640625,-0.22247314453125,0.0283,-4.1875,-4.6875,-55.4375,3.86,-1.54,climb_up,2
2.65,2.592293215,23,3,3,3,2,-789.0,3.14,-3.13,0.99,-0.73,-1.68,3.34,-71.9375,15.1875,627.125,0.52471923828125,0.54638671875,-0.2259521484375,0.0283,-4.1875,-4.6875,-55.5,3.88,-1.44,climb_up,2
2.66,2.592293215,23,3,3,3,2,-777.0,2.92,-3.11,1.12,-0.96,-1.75,3.04,-66.0625,11.625,629.6875,0.52496337890625,0.54193115234375,-0.229248046875,0.0283,-4.1875,-4.6875,-55.5625,3.89,-1.35,climb_up,2
2.67,2.606209393,23,3,3,3,2,-741.0,2.62,-2.98,1.48,-1.27,-1.68,3.04,-44.8125,6.5625,631.125,0.52545166015625,0.538818359375,-0.2318115234375,0.0283,-4.1875,-4.6875,-55.625,3.9,-1.3,climb_up,2
2.68,2.606209393,23,3,3,3,2,-624.0,2.18,-1.95,2.65,-1.71,-0.66,3.99,-19.1875,1.0625,630.9375,0.52642822265625,0.53717041015625,-0.23382568359375,0.0283,-4.1875,-4.6875,-55.625,3.89,-1.28,climb_up,2
2.69,2.638149212,23,3,3,3,2,-560.0,2.06,-1.39,3.3,-1.81,-0.09,4.44,-1.5,-3.625,629.625,0.5277099609375,0.53668212890625,-0.2353515625,0.0293,-3.875,-7.0,-55.625,3.88,-1.3,climb_up,2
2.7,2.638149212,23,3,3,3,2,-507.0,1.91,-0.94,3.84,-1.95,0.37,3.87,3.375,-6.8125,628.1875,0.52880859375,0.53668212890625,-0.2366943359375,0.0293,-3.875,-7.0,-55.6875,3.87,-1.32,climb_up,2
2.71,2.651473187,23,3,3,3,2,-456.0,1.85,-0.67,4.35,-1.99,0.66,3.0,-0.125,-9.1875,627.125,0.52935791015625,0.5367431640625,-0.23809814453125,0.0293,-3.875,-7.0,-55.6875,3.85,-1.33,climb_up,2
2.72,2.651473187,23,3,3,3,2,-376.0,1.62,-0.44,5.15,-2.2,0.89,2.44,-7.125,-10.0625,626.5,0.529541015625,0.5364990234375,-0.2396240234375,0.0293,-3.875,-7.0,-55.75,3.83,-1.33,climb_up,2
2.73,2.66630005,23,3,3,3,2,-376.0,1.62,-0.44,5.15,-2.2,0.89,2.44,-7.125,-10.0625,626.5,0.529541015625,0.5364990234375,-0.2396240234375,0.0293,-3.875,-7.0,-55.75,3.83,-1.33,climb_up,2
2.74,2.66630005,23,3,3,3,2,-357.0,1.5,-0.38,5.36,-2.3,0.93,2.02,-14.125,-10.25,626.375,0.52947998046875,0.535888671875,-0.241455078125,0.0293,-3.875,-7.0,-55.8125,3.81,-1.32,climb_up,2
2.74,2.68168563,23,3,3,3,3,-336.0,1.47,-0.26,5.58,-2.31,1.03,1.81,-21.3125,-10.1875,626.625,0.5291748046875,0.53497314453125,-0.24346923828125,0.0282,-6.375,-6.5625,-55.875,3.79,-1.29,climb_up,2
2.75,2.68168563,23,3,3,3,3,-341.0,1.54,-0.15,5.54,-2.23,1.11,1.87,-26.4375,-10.125,627.125,0.52874755859375,0.5338134765625,-0.24578857421875,0.0282,-6.375,-6.5625,-56.0,3.77,-1.26,climb_up,2
2.76,2.697760459,23,3,3,3,3,-363.0,1.64,-0.07,5.33,-2.11,1.14,2.31,-29.5,-9.4375,627.6875,0.5284423828125,0.5323486328125,-0.248291015625,0.0282,-6.375,-6.5625,-56.0625,3.76,-1.22,climb_up,2
2.77,2.697760459,23,3,3,3,3,-395.0,1.75,0.02,5.03,-1.98,1.21,2.9,-30.5,-8.375,628.0625,0.52838134765625,0.53070068359375,-0.2509765625,0.0282,-6.375,-6.5625,-56.125,3.74,-1.19,climb_up,2
2.78,2.727196982,23,3,3,3,3,-438.0,1.99,0.12,4.61,-1.73,1.28,3.43,-29.1875,-7.4375,628.3125,0.52850341796875,0.52899169921875,-0.25372314453125,0.0282,-6.375,-6.5625,-56.1875,3.72,-1.16,climb_up,2
2.79,2.727196982,23,3,3,3,3,-509.0,2.34,-0.05,3.91,-1.37,1.07,3.99,-25.5625,-6.625,628.1875,0.52899169921875,0.52734375,-0.25640869140625,0.0271,-6.0,-7.0,-56.25,3.71,-1.13,climb_up,2
2.8,2.742198732,23,3,3,3,3,-536.0,2.41,-0.17,3.64,-1.28,0.94,4.56,-20.8125,-6.1875,627.6875,0.52978515625,0.52587890625,-0.259033203125,0.0271,-6.0,-7.0,-56.3125,3.69,-1.12,climb_up,2
2.81,2.742198732,23,3,3,3,3,-567.0,2.54,-0.41,3.34,-1.14,0.7,4.63,-14.6875,-6.1875,626.875,0.53070068359375,0.52471923828125,-0.2613525390625,0.0271,-6.0,-7.0,-56.375,3.68,-1.11,climb_up,2
2.82,2.756330568,23,3,3,3,3,-631.0,2.72,-0.2,2.71,-0.94,0.91,4.61,-8.0625,-6.125,625.75,0.53173828125,0.52392578125,-0.26336669921875,0.0271,-6.0,-7.0,-56.375,3.66,-1.12,climb_up,2
2.83,2.756330568,23,3,3,3,3,-740.0,3.34,-0.38,1.62,-0.31,0.75,3.97,-4.625,-5.75,624.625,0.53271484375,0.5233154296875,-0.2650146484375,0.0271,-6.0,-7.0,-56.4375,3.65,-1.13,climb_up,2
2.84,2.786456952,23,3,3,3,3,-802.0,3.61,-0.72,1.0,-0.02,0.41,3.79,-4.125,-4.75,623.625,0.53369140625,0.52276611328125,-0.26654052734375,0.0275,-7.75,-8.5,-56.4375,3.64,-1.13,climb_up,2
2.85,2.786456952,23,3,3,3,3,-869.0,3.92,-1.06,0.34,0.29,0.07,3.87,-6.5625,-2.5,622.6875,0.53466796875,0.52197265625,-0.26806640625,0.0275,-7.75,-8.5,-56.4375,3.63,-1.14,climb_up,2
2.86,2.802113486,23,3,3,3,3,-946.0,4.13,-1.83,-0.42,0.5,-0.69,3.91,-15.3125,-0.125,622.25,0.53564453125,0.52056884765625,-0.2698974609375,0.0275,-7.75,-8.5,-56.4375,3.62,-1.13,climb_up,2
2.87,2.802113486,23,3,3,3,3,-1100.0,4.39,-4.08,-1.96,0.77,-2.98,4.06,-29.75,2.0,622.5,0.536376953125,0.518310546875,-0.2723388671875,0.0275,-7.75,-8.5,-56.5,3.62,-1.1,climb_up,2
2.88,2.816268231,23,3,3,3,3,-1190.0,4.54,-5.6,-2.85,0.91,-4.55,3.41,-44.6875,3.875,623.625,0.53662109375,0.51519775390625,-0.275146484375,0.0275,-7.75,-8.5,-56.5,3.62,-1.04,climb_up,2
2.89,2.816268231,23,3,3,3,3,-1312.0,4.95,-7.0,-4.06,1.32,-6.02,1.25,-46.1875,2.75,625.4375,0.53607177734375,0.512451171875,-0.27752685546875,0.0275,-7.1875,-9.5625,-56.5625,3.63,-0.97,climb_up,2
2.9,2.847263796,23,3,3,3,3,-1464.0,5.32,-7.71,-5.58,1.7,-6.78,-0.33,-27.1875,-4.0,626.6875,0.53509521484375,0.51123046875,-0.27886962890625,0.0275,-7.1875,-9.5625,-56.625,3.62,-0.93,climb_up,2
2.91,2.847263796,23,3,3,3,3,-1651.0,6.14,-5.63,-7.43,2.54,-4.68,0.08,9.75,-16.1875,625.8125,0.53460693359375,0.51251220703125,-0.279296875,0.0275,-7.1875,-9.5625,-56.6875,3.6,-0.95,climb_up,2
2.92,2.861798626,23,3,3,3,3,-1607.0,6.13,-3.96,-6.99,2.58,-2.93,2.22,45.0,-30.5625,622.3125,0.53509521484375,0.5159912109375,-0.2794189453125,0.0275,-7.1875,-9.5625,-56.75,3.55,-1.03,climb_up,2
2.93,2.861798626,23,3,3,3,3,-1533.0,6.13,-2.67,-6.24,2.65,-1.52,3.72,65.375,-42.25,617.125,0.5360107421875,0.52081298828125,-0.2796630859375,0.0275,-7.1875,-9.5625,-56.8125,3.47,-1.14,climb_up,2
2.94,2.876544883,23,3,3,3,3,-1379.0,6.76,-1.51,-4.67,3.37,-0.24,4.21,64.5,-50.0,611.5625,0.5367431640625,0.52587890625,-0.28045654296875,0.0277,-8.375,-12.6875,-56.9375,3.39,-1.26,climb_up,2
2.95,2.876544883,23,3,3,3,3,-1356.0,7.05,-1.67,-4.42,3.74,-0.31,4.55,43.6875,-51.6875,606.875,0.53692626953125,0.5299072265625,-0.2823486328125,0.0277,-8.375,-12.6875,-57.0625,3.3,-1.35,climb_up,2
2.96,2.907000449,23,3,3,3,3,-1366.0,7.37,-1.94,-4.5,4.15,-0.54,4.49,16.75,-48.75,603.5,0.5364990234375,0.5323486328125,-0.285400390625,0.0277,-8.375,-12.6875,-57.1875,3.22,-1.39,climb_up,2
2.97,2.907000449,23,3,3,3,3,-1408.0,7.33,-2.07,-4.9,4.19,-0.66,3.59,-1.4375,-45.0625,601.3125,0.5355224609375,0.5338134765625,-0.288818359375,0.0277,-8.375,-12.6875,-57.375,3.14,-1.4,climb_up,2
2.98,2.921868695,23,3,3,3,3,-1539.0,6.1,-2.35,-6.19,3.03,-0.94,2.14,-5.6875,-41.375,599.875,0.5341796875,0.53509521484375,-0.29180908203125,0.0277,-8.375,-12.6875,-57.5,3.07,-1.4,climb_up,2
2.99,2.921868695,23,3,3,3,3,-1539.0,6.1,-2.35,-6.19,3.03,-0.94,2.14,-5.6875,-41.375,599.875,0.5341796875,0.53509521484375,-0.29180908203125,0.0277,-8.375,-12.6875,-57.5,3.07,-1.4,climb_up,2
3.0,2.936583376,23,3,3,3,3,-1583.0,5.26,-2.02,-6.6,2.24,-0.61,0.86,-0.8125,-38.4375,598.625,0.53265380859375,0.5367431640625,-0.29400634765625,0.028,-8.0625,-10.0,-57.625,3.01,-1.4,climb_up,2
3.0,2.936583376,23,3,3,3,3,-1584.0,4.26,-1.32,-6.6,1.3,0.09,-0.53,10.25,-36.375,597.3125,0.53106689453125,0.53900146484375,-0.29522705078125,0.028,-8.0625,-10.0,-57.75,2.95,-1.42,climb_up,2
3.02,2.951323447,23,3,3,3,3,-1513.0,3.07,-0.51,-5.88,0.17,0.93,-1.72,23.0,-35.75,595.8125,0.5294189453125,0.5421142578125,-0.29547119140625,0.028,-8.0625,-10.0,-57.8125,2.89,-1.45,climb_up,2
3.02,2.951323447,23,3,3,3,3,-1291.0,1.08,0.59,-3.65,-1.76,2.09,-2.56,31.6875,-34.9375,594.0625,0.52777099609375,0.5457763671875,-0.29498291015625,0.028,-8.0625,-10.0,-57.875,2.84,-1.49,climb_up,2
3.03,2.966262453,23,3,3,3,3,-1176.0,0.42,1.15,-2.48,-2.36,2.7,-3.29,35.625,-33.25,592.4375,0.52606201171875,0.54962158203125,-0.2940673828125,0.028,-8.0625,-10.0,-57.9375,2.79,-1.54,climb_up,2
3.04,2.966262453,23,3,3,3,3,-1081.0,0.02,1.31,-1.53,-2.73,2.89,-4.69,33.8125,-32.0,591.3125,0.52392578125,0.55352783203125,-0.29266357421875,0.0272,-8.375,-9.5625,-57.9375,2.75,-1.58,climb_up,2
3.05,2.998843874,23,3,3,3,3,-1007.0,-0.14,1.48,-0.79,-2.86,3.09,-5.82,25.5,-31.4375,590.9375,0.521240234375,0.55718994140625,-0.29132080078125,0.0272,-8.375,-9.5625,-58.0,2.71,-1.61,climb_up,2
3.06,2.998843874,23,3,3,3,3,-874.0,-0.17,1.29,0.54,-2.84,2.91,-6.81,19.4375,-31.875,591.0625,0.51800537109375,0.5606689453125,-0.28997802734375,0.0272,-8.375,-9.5625,-58.0625,2.67,-1.62,climb_up,2
3.07,3.011788942,23,3,3,3,3,-858.0,0.08,1.3,0.71,-2.55,2.93,-7.7,19.125,-30.875,591.5625,0.51458740234375,0.56427001953125,-0.288330078125,0.0272,-8.375,-9.5625,-58.125,2.63,-1.63,climb_up,2
3.08,3.011788942,23,3,3,3,3,-869.0,0.55,1.48,0.61,-2.04,3.12,-7.97,19.1875,-28.875,592.125,0.5111083984375,0.5677490234375,-0.28643798828125,0.0272,-8.375,-9.5625,-58.1875,2.6,-1.63,climb_up,2
3.1,3.026502443,23,3,3,3,3,-949.0,1.75,1.48,-0.17,-0.82,3.13,-7.67,23.9375,-25.6875,592.4375,0.50799560546875,0.5712890625,-0.2843017578125,0.0283,-7.75,-8.0625,-58.1875,2.57,-1.65,climb_up,2
3.11,3.026502443,23,3,3,3,3,-895.0,2.0,1.14,0.36,-0.54,2.82,-6.09,26.3125,-22.0625,592.25,0.505615234375,0.57452392578125,-0.2823486328125,0.0283,-7.75,-8.0625,-58.1875,2.55,-1.68,climb_up,2
3.11,3.05761308,23,3,3,3,3,-822.0,2.45,0.61,1.09,-0.08,2.32,-3.67,24.5625,-18.1875,591.5625,0.504150390625,0.5771484375,-0.28106689453125,0.0283,-7.75,-8.0625,-58.1875,2.53,-1.71,climb_up,2
3.12,3.05761308,23,3,3,3,3,-778.0,3.01,-0.16,1.53,0.49,1.57,-2.37,18.6875,-13.8125,590.9375,0.50311279296875,0.57904052734375,-0.28021240234375,0.0283,-7.75,-8.0625,-58.1875,2.51,-1.73,climb_up,2
3.13,3.071305869,23,3,3,3,3,-713.0,3.81,-1.79,2.18,1.31,-0.05,-2.9,5.8125,-9.5,591.25,0.50189208984375,0.5802001953125,-0.27947998046875,0.0283,-7.75,-8.0625,-58.25,2.5,-1.73,climb_up,2
3.14,3.071305869,23,3,3,3,3,-700.0,3.83,-2.8,2.32,1.33,-1.1,-4.22,-11.1875,-5.5,592.875,0.5,0.58050537109375,-0.2789306640625,0.027,-8.25,-7.0,-58.25,2.5,-1.7,climb_up,2
3.15,3.086627687,23,3,3,3,3,-690.0,3.73,-2.97,2.42,1.22,-1.31,-5.85,-23.625,-1.625,595.6875,0.49749755859375,0.58026123046875,-0.2781982421875,0.027,-8.25,-7.0,-58.3125,2.5,-1.65,climb_up,2
3.16,3.086627687,23,3,3,3,3,-708.0,3.5,-3.6,2.25,0.98,-2.01,-7.94,-26.375,0.6875,599.3125,0.49432373046875,0.580078125,-0.27679443359375,0.027,-8.25,-7.0,-58.375,2.52,-1.58,climb_up,2
3.17,3.116925295,23,3,3,3,3,-669.0,2.99,-3.84,2.64,0.44,-2.31,-8.4,-21.625,2.0625,602.75,0.4912109375,0.58013916015625,-0.27496337890625,0.027,-8.25,-7.0,-58.375,2.54,-1.52,climb_up,2
3.19,3.116925295,23,3,3,3,3,-637.0,2.7,-3.64,2.97,0.14,-2.15,-8.08,-8.9375,2.4375,605.5,0.488525390625,0.580810546875,-0.272705078125,0.027,-8.25,-7.0,-58.375,2.55,-1.49,climb_up,2
3.19,3.131863649,23,3,3,3,2,-620.0,2.47,-3.21,3.14,-0.09,-1.74,-7.47,6.25,2.625,607.3125,0.48638916015625,0.58209228515625,-0.2698974609375,0.0264,-7.875,-8.0625,-58.375,2.57,-1.47,climb_up,2
3.2,3.131863649,23,3,3,3,2,-584.0,2.39,-2.64,3.49,-0.19,-1.15,-6.42,16.125,2.75,608.25,0.48486328125,0.583740234375,-0.26702880859375,0.0264,-7.875,-8.0625,-58.375,2.59,-1.48,climb_up,2
3.21,3.14776229,23,3,3,3,2,-476.0,2.12,-1.63,4.56,-0.47,-0.12,-5.18,21.3125,3.75,608.625,0.48388671875,0.58544921875,-0.2642822265625,0.0264,-7.875,-8.0625,-58.3125,2.6,-1.5,climb_up,2
3.22,3.14776229,23,3,3,3,2,-425.0,1.86,-1.22,5.06,-0.75,0.3,-3.98,22.125,6.1875,608.75,0.4833984375,0.5869140625,-0.26171875,0.0264,-7.875,-8.0625,-58.25,2.62,-1.53,climb_up,2
3.23,3.177106895,23,3,3,3,2,-384.0,1.55,-0.94,5.46,-1.09,0.6,-3.03,18.875,8.6875,608.75,0.4832763671875,0.58795166015625,-0.259521484375,0.0264,-7.875,-8.0625,-58.1875,2.64,-1.55,climb_up,2
3.24,3.177106895,23,3,3,3,2,-311.0,1.2,-0.5,6.18,-1.45,1.06,-2.53,15.25,11.125,608.875,0.4833984375,0.588623046875,-0.2574462890625,0.027,-7.0625,-6.1875,-58.125,2.66,-1.57,climb_up,2
3.25,3.191256879,23,3,3,3,2,-286.0,1.11,-0.39,6.43,-1.57,1.19,-2.0,12.125,13.0,609.125,0.48370361328125,0.5889892578125,-0.255615234375,0.027,-7.0625,-6.1875,-58.0625,2.68,-1.58,climb_up,2
3.27,3.191256879,23,3,3,3,2,-291.0,0.84,-0.27,6.37,-1.87,1.31,-1.6,7.4375,15.5,609.5,0.484130859375,0.58892822265625,-0.25396728515625,0.027,-7.0625,-6.1875,-58.0,2.71,-1.59,climb_up,2
3.27,3.207283409,23,3,3,3,2,-301.0,0.65,-0.18,6.26,-2.09,1.4,-1.44,1.375,17.0,610.1875,0.48455810546875,0.5885009765625,-0.2525634765625,0.027,-7.0625,-6.1875,-57.9375,2.74,-1.59,climb_up,2
3.28,3.207283409,23,3,3,3,2,-339.0,0.56,-0.06,5.87,-2.21,1.51,-1.63,-4.3125,17.5,611.25,0.48486328125,0.58770751953125,-0.2513427734375,0.027,-7.0625,-6.1875,-57.9375,2.77,-1.57,climb_up,2
3.29,3.221573651,23,3,3,3,1,-339.0,0.56,-0.06,5.87,-2.21,1.51,-1.63,-4.3125,17.5,611.25,0.48486328125,0.58770751953125,-0.2513427734375,0.027,-7.0625,-6.1875,-57.9375,2.77,-1.57,climb_up,2
3.3,3.221573651,23,3,3,3,1,-376.0,0.66,-0.07,5.49,-2.14,1.48,-1.83,-8.9375,17.5,612.625,0.4849853515625,0.5867919921875,-0.25018310546875,0.027,-7.0625,-4.25,-57.875,2.81,-1.55,climb_up,2
3.3,3.237521893,23,3,3,3,1,-421.0,0.82,-0.19,5.04,-2.02,1.34,-2.32,-10.125,18.125,614.1875,0.48492431640625,0.58575439453125,-0.2489013671875,0.027,-7.0625,-4.25,-57.8125,2.84,-1.53,climb_up,2
3.32,3.237521893,23,3,3,3,1,-462.0,0.88,-0.33,4.63,-1.98,1.17,-2.79,-9.6875,18.0,615.875,0.48468017578125,0.58489990234375,-0.24749755859375,0.027,-7.0625,-4.25,-57.8125,2.87,-1.51,climb_up,2
3.32,3.267208335,23,3,3,3,1,-564.0,1.14,-0.64,3.6,-1.76,0.84,-2.98,-8.9375,18.5,617.5625,0.4844970703125,0.58404541015625,-0.2459716796875,0.027,-7.0625,-4.25,-57.75,2.91,-1.48,climb_up,2
3.34,3.267208335,23,3,3,3,1,-667.0,1.27,-0.57,2.56,-1.67,0.89,-2.53,-7.625,18.6875,619.0625,0.48443603515625,0.58319091796875,-0.2445068359375,0.027,-7.0625,-4.25,-57.6875,2.94,-1.46,climb_up,2
3.35,3.281522341,23,3,3,3,1,-823.0,1.62,-0.49,0.99,-1.35,0.96,-2.22,-3.3125,19.0,620.25,0.484619140625,0.58245849609375,-0.242919921875,0.0275,-7.0625,-4.25,-57.625,2.98,-1.45,climb_up,2
3.36,3.281522341,23,3,3,3,1,-968.0,1.93,-0.53,-0.46,-1.07,0.91,-1.56,1.625,17.5,620.9375,0.4849853515625,0.58203125,-0.24139404296875,0.0275,-7.0625,-4.25,-57.5625,3.01,-1.45,climb_up,2
3.36,3.297101158,23,3,3,3,1,-1219.0,2.14,-1.64,-2.98,-0.89,-0.19,-0.8,5.625,13.75,621.1875,0.48553466796875,0.58184814453125,-0.24017333984375,0.0275,-7.0625,-4.25,-57.5625,3.03,-1.45,climb_up,2
3.37,3.297101158,23,3,3,3,1,-1316.0,2.38,-2.6,-3.95,-0.66,-1.14,-0.83,5.0625,8.375,621.3125,0.48583984375,0.58184814453125,-0.2392578125,0.0275,-7.0625,-4.25,-57.5,3.05,-1.46,climb_up,2
3.38,3.326722495,23,3,3,3,1,-1386.0,2.72,-3.29,-4.65,-0.33,-1.83,-1.74,-0.8125,3.125,621.9375,0.4853515625,0.5819091796875,-0.23858642578125,0.0275,-7.0625,-4.25,-57.5,3.05,-1.45,climb_up,2
3.4,3.326722495,23,3,3,3,0,-1521.0,3.51,-5.17,-6.0,0.45,-3.73,-2.88,-1.4375,-0.1875,622.75,0.484375,0.58221435546875,-0.23773193359375,0.0275,-7.0625,-4.6875,-57.5,3.06,-1.44,climb_up,2
3.41,3.342407513,23,3,3,3,0,-1645.0,4.27,-6.28,-7.24,1.2,-4.85,-2.93,-1.125,0.875,623.625,0.48345947265625,0.58251953125,-0.23681640625,0.0275,-7.0625,-4.6875,-57.5,3.06,-1.43,climb_up,2
3.42,3.342407513,23,3,3,3,0,-1816.0,4.88,-6.97,-8.96,1.8,-5.55,-2.61,-1.9375,7.1875,624.5625,0.48291015625,0.58245849609375,-0.23565673828125,0.0275,-7.0625,-4.6875,-57.4375,3.08,-1.42,climb_up,2
3.43,3.356399416,23,3,3,3,0,-1930.0,5.33,-6.91,-10.1,2.22,-5.51,-1.96,-7.875,13.25,625.8125,0.48272705078125,0.58172607421875,-0.23468017578125,0.0275,-7.0625,-4.6875,-57.4375,3.1,-1.4,climb_up,2
3.44,3.356399416,23,3,3,3,0,-1679.0,5.15,-5.7,-7.6,2.01,-4.32,-0.54,-12.25,16.75,626.9375,0.483154296875,0.5804443359375,-0.234130859375,0.0275,-7.0625,-4.6875,-57.375,3.13,-1.37,climb_up,2
3.44,3.387689577,23,3,3,3,0,-1499.0,4.61,-5.12,-5.81,1.44,-3.73,1.7,3.0,19.625,626.6875,0.48480224609375,0.57952880859375,-0.2335205078125,0.0279,-7.0,-5.5,-57.3125,3.16,-1.39,climb_up,2
3.45,3.387689577,23,3,3,3,0,-1394.0,4.26,-4.43,-4.78,1.06,-2.99,3.8,22.0625,22.375,625.0,0.4876708984375,0.57928466796875,-0.2325439453125,0.0279,-7.0,-5.5,-57.1875,3.19,-1.43,climb_up,2
3.46,3.402114667,23,3,3,3,0,-1341.0,4.25,-3.58,-4.27,1.03,-2.07,4.89,34.875,24.1875,622.3125,0.4912109375,0.57952880859375,-0.2313232421875,0.0279,-7.0,-5.5,-57.0625,3.22,-1.51,climb_up,2
3.47,3.402114667,23,3,3,3,0,-1329.0,3.83,-1.56,-4.18,0.57,0.03,4.83,45.375,24.6875,619.125,0.4949951171875,0.58026123046875,-0.2296142578125,0.0279,-7.0,-5.5,-56.9375,3.25,-1.6,climb_up,2
3.49,3.416161216,23,3,3,3,0,-1333.0,3.89,-0.35,-4.25,0.61,1.35,4.94,55.875,24.25,615.375,0.49896240234375,0.58154296875,-0.22747802734375,0.0279,-7.0,-5.5,-56.75,3.28,-1.7,climb_up,2
3.5,3.416161216,23,3,3,3,0,-1310.0,4.23,0.76,-4.05,0.92,2.59,5.32,62.8125,22.125,611.0,0.5030517578125,0.58319091796875,-0.22528076171875,0.0279,-7.0,-4.25,-56.5,3.31,-1.82,climb_up,2
3.51,3.447270795,23,3,3,3,0,-1274.0,4.75,1.35,-3.72,1.42,3.29,5.25,59.9375,20.1875,606.8125,0.5069580078125,0.5848388671875,-0.2232666015625,0.0279,-7.0,-4.25,-56.3125,3.33,-1.94,climb_up,2
3.52,3.447270795,23,3,3,3,0,-1103.0,6.41,1.15,-2.04,3.05,3.18,4.74,44.1875,19.9375,603.5,0.5103759765625,0.58563232421875,-0.2218017578125,0.0279,-7.0,-4.25,-56.125,3.35,-2.02,climb_up,2
3.52,3.463673993,23,3,3,3,0,-1038.0,6.98,0.72,-1.41,3.61,2.79,3.65,17.6875,21.5625,602.0,0.51300048828125,0.58514404296875,-0.2210693359375,0.0279,-7.0,-4.25,-56.0625,3.37,-2.06,climb_up,2
3.53,3.463673993,23,3,3,3,0,-987.0,7.02,0.0,-0.91,3.61,2.07,1.51,-7.5,23.4375,602.375,0.5145263671875,0.58355712890625,-0.220703125,0.0279,-7.0,-4.25,-55.9375,3.41,-2.06,climb_up,2
3.54,3.47688847,23,3,3,3,0,-999.0,6.7,-0.62,-1.03,3.25,1.39,-0.57,-23.875,24.75,604.3125,0.51513671875,0.58123779296875,-0.22027587890625,0.0286,-7.5625,1.0625,-55.9375,3.45,-2.02,climb_up,2
3.55,3.47688847,23,3,3,3,0,-904.0,5.88,-1.27,-0.09,2.39,0.7,-1.37,-29.5625,23.6875,606.6875,0.51531982421875,0.578857421875,-0.219970703125,0.0286,-7.5625,1.0625,-55.875,3.49,-1.97,climb_up,2
3.57,3.507303794,23,3,3,3,0,-860.0,5.51,-1.34,0.33,1.99,0.58,-0.75,-23.6875,21.375,608.5625,0.51568603515625,0.57672119140625,-0.2197265625,0.0286,-7.5625,1.0625,-55.875,3.52,-1.93,climb_up,2
3.58,3.507303794,23,3,3,3,0,-816.0,5.2,-1.12,0.77,1.65,0.79,0.7,-10.3125,18.6875,609.25,0.51666259765625,0.57525634765625,-0.21942138671875,0.0286,-7.5625,1.0625,-55.8125,3.55,-1.91,climb_up,2
3.58,3.510603558,23,3,3,3,0,-816.0,5.2,-1.12,0.77,1.65,0.79,0.7,-10.3125,18.6875,609.25,0.51666259765625,0.57525634765625,-0.21942138671875,0.0286,-7.5625,1.0625,-55.8125,3.55,-1.91,climb_up,2
3.59,3.510603558,23,3,3,3,0,-746.0,4.63,-0.45,1.46,1.06,1.48,2.45,3.8125,14.8125,608.625,0.51824951171875,0.57452392578125,-0.21923828125,0.0286,-7.5625,1.0625,-55.75,3.57,-1.93,climb_up,2
3.6,3.537708213,23,3,3,3,0,-725.0,4.53,-0.22,1.65,0.96,1.75,4.41,17.1875,9.75,606.6875,0.5205078125,0.57440185546875,-0.21929931640625,0.029,-6.875,1.5,-55.6875,3.57,-1.97,climb_up,2
3.61,3.537708213,23,3,3,3,0,-694.0,4.58,0.21,1.95,1.0,2.25,6.03,24.0,4.9375,603.8125,0.523193359375,0.57470703125,-0.2198486328125,0.029,-6.875,1.5,-55.625,3.57,-2.03,climb_up,2
3.62,3.551398765,23,3,3,3,0,-698.0,4.63,0.51,1.91,1.07,2.61,6.82,24.8125,1.6875,600.5625,0.52593994140625,0.5750732421875,-0.22076416015625,0.029,-6.875,1.5,-55.5625,3.55,-2.1,climb_up,2
3.62,3.551398765,23,3,3,3,0,-674.0,4.42,0.82,2.14,0.87,2.98,6.8,22.75,0.0,597.375,0.52850341796875,0.57537841796875,-0.22186279296875,0.029,-6.875,1.5,-55.5,3.54,-2.16,climb_up,2
3.64,3.567277834,23,3,3,3,0,-667.0,4.18,0.61,2.2,0.65,2.82,6.2,13.6875,0.625,594.875,0.53082275390625,0.5753173828125,-0.22314453125,0.029,-6.875,1.5,-55.4375,3.53,-2.21,climb_up,2
3.65,3.567277834,23,3,3,3,0,-665.0,3.91,0.26,2.22,0.39,2.48,4.78,-1.9375,2.9375,593.625,0.53240966796875,0.574462890625,-0.22454833984375,0.0306,-7.75,3.0,-55.4375,3.52,-2.22,climb_up,2
3.66,3.597358319,23,3,3,3,0,-678.0,3.75,-0.3,2.1,0.23,1.9,2.96,-21.25,5.9375,594.0,0.53326416015625,0.57275390625,-0.22613525390625,0.0306,-7.75,3.0,-55.5,3.52,-2.2,climb_up,2
3.67,3.597358319,23,3,3,3,0,-735.0,3.76,-2.02,1.53,0.22,0.12,1.45,-42.25,9.75,595.9375,0.5333251953125,0.5699462890625,-0.22808837890625,0.0306,-7.75,3.0,-55.5625,3.53,-2.14,climb_up,2
3.68,3.61124337,23,3,3,3,0,-776.0,3.81,-3.39,1.13,0.25,-1.33,0.31,-59.5,12.6875,599.125,0.53289794921875,0.5662841796875,-0.23028564453125,0.0306,-7.75,3.0,-55.625,3.55,-2.05,climb_up,2
3.69,3.61124337,23,3,3,3,0,-817.0,3.58,-4.62,0.74,0.0,-2.67,-0.03,-69.75,14.1875,602.9375,0.53216552734375,0.56201171875,-0.2327880859375,0.0306,-7.75,3.0,-55.75,3.57,-1.94,climb_up,2
3.7,3.64219682,23,3,3,3,0,-833.0,3.47,-4.95,0.59,-0.12,-3.11,0.74,-66.625,12.8125,606.375,0.53167724609375,0.55792236328125,-0.2354736328125,0.0306,-8.5,3.25,-55.8125,3.59,-1.84,climb_up,2
3.71,3.64219682,23,3,3,3,0,-769.0,3.65,-4.11,1.24,0.04,-2.32,2.53,-39.5625,7.875,607.75,0.5321044921875,0.55511474609375,-0.23760986328125,0.0306,-8.5,3.25,-55.875,3.6,-1.79,climb_up,2
3.72,3.656548668,23,3,3,3,0,-710.0,3.63,-3.25,1.83,0.03,-1.45,5.15,-5.125,2.1875,606.5,0.53375244140625,0.5540771484375,-0.23931884765625,0.0306,-8.5,3.25,-55.875,3.59,-1.8,climb_up,2
3.73,3.656548668,23,3,3,3,0,-645.0,3.51,-2.52,2.48,-0.06,-0.66,6.98,16.4375,-2.0,603.5625,0.5362548828125,0.55413818359375,-0.24072265625,0.0306,-8.5,3.25,-55.8125,3.58,-1.85,climb_up,2
3.74,3.67118205,23,3,3,3,0,-556.0,3.17,-1.52,3.36,-0.38,0.39,7.36,22.0,-3.75,600.1875,0.53887939453125,0.554443359375,-0.24212646484375,0.0306,-8.5,3.25,-55.8125,3.56,-1.91,climb_up,2
3.75,3.67118205,23,3,3,3,1,-526.0,2.94,-1.21,3.66,-0.59,0.74,6.68,14.375,-4.5,597.375,0.5411376953125,0.55450439453125,-0.24365234375,0.0332,-8.75,1.75,-55.8125,3.54,-1.96,climb_up,2
3.76,3.701435671,23,3,3,3,1,-493.0,2.65,-1.12,4.0,-0.87,0.86,5.55,1.5,-4.5625,595.5625,0.542724609375,0.55401611328125,-0.2454833984375,0.0332,-8.75,1.75,-55.8125,3.52,-1.99,climb_up,2
3.77,3.701435671,23,3,3,3,1,-467.0,2.41,-1.1,4.26,-1.09,0.88,4.41,-9.8125,-4.625,594.625,0.543701171875,0.55316162109375,-0.24749755859375,0.0332,-8.75,1.75,-55.8125,3.5,-1.99,climb_up,2
3.79,3.716280357,23,3,3,3,1,-412.0,1.84,-1.41,4.83,-1.63,0.52,3.32,-28.4375,-4.9375,594.625,0.54437255859375,0.5501708984375,-0.25244140625,0.0332,-8.75,1.75,-56.0,3.47,-1.94,climb_up,2
3.8,3.716280357,23,3,3,3,1,-389.0,1.71,-1.43,5.07,-1.74,0.46,3.02,-33.5625,-5.25,595.25,0.54437255859375,0.54827880859375,-0.25518798828125,0.0329,-8.375,3.0,-56.0625,3.46,-1.9,climb_up,2
3.81,3.747396487,23,3,3,3,1,-378.0,1.64,-1.44,5.2,-1.8,0.41,2.87,-36.4375,-5.375,596.0625,0.544189453125,0.5462646484375,-0.258056640625,0.0329,-8.375,3.0,-56.1875,3.44,-1.85,climb_up,2
3.82,3.747396487,23,3,3,3,1,-385.0,1.51,-1.37,5.14,-1.91,0.43,2.75,-37.8125,-5.125,596.9375,0.54400634765625,0.544189453125,-0.26092529296875,0.0329,-8.375,3.0,-56.25,3.43,-1.8,climb_up,2
3.83,3.761846763,23,3,3,3,1,-399.0,1.4,-1.25,5.02,-2.01,0.49,2.82,-39.3125,-5.375,597.875,0.54376220703125,0.54205322265625,-0.26385498046875,0.0329,-8.375,3.0,-56.375,3.42,-1.75,climb_up,2
3.84,3.761846763,23,3,3,3,1,-436.0,1.34,-1.12,4.67,-2.05,0.57,2.59,-39.0625,-5.25,598.875,0.54345703125,0.5399169921875,-0.2667236328125,0.0329,-8.375,3.0,-56.4375,3.4,-1.7,climb_up,2
3.84,3.777279828,23,3,3,3,1,-436.0,1.34,-1.12,4.67,-2.05,0.57,2.59,-39.0625,-5.25,598.875,0.54345703125,0.5399169921875,-0.2667236328125,0.0329,-8.375,3.0,-56.4375,3.4,-1.7,climb_up,2
3.85,3.777279828,23,3,3,3,1,-489.0,1.42,-1.01,4.15,-1.97,0.64,2.23,-36.875,-5.0625,599.8125,0.54302978515625,0.5379638671875,-0.2694091796875,0.0336,-10.0,1.0625,-56.5,3.39,-1.65,climb_up,2
3.86,3.79267558,23,3,3,3,1,-581.0,1.78,-0.99,3.24,-1.59,0.61,2.38,-33.25,-5.0625,600.5625,0.54278564453125,0.5361328125,-0.27191162109375,0.0336,-10.0,1.0625,-56.625,3.38,-1.6,climb_up,2
3.87,3.79267558,23,3,3,3,1,-633.0,1.91,-1.36,2.73,-1.45,0.2,2.94,-27.875,-4.875,600.9375,0.5428466796875,0.53448486328125,-0.27435302734375,0.0336,-10.0,1.0625,-56.6875,3.37,-1.57,climb_up,2
3.88,3.808102826,23,3,3,3,1,-684.0,2.17,-1.02,2.23,-1.18,0.52,3.51,-21.875,-4.5625,600.75,0.54327392578125,0.5330810546875,-0.276611328125,0.0336,-10.0,1.0625,-56.75,3.35,-1.55,climb_up,2
3.89,3.808102826,23,3,3,3,1,-788.0,2.56,-1.61,1.2,-0.78,-0.07,3.37,-19.6875,-2.875,600.625,0.543701171875,0.53167724609375,-0.2786865234375,0.0336,-10.0,1.0625,-56.75,3.34,-1.53,climb_up,2
3.9,3.85213196,23,3,3,3,1,-843.0,2.96,-1.88,0.65,-0.38,-0.36,3.41,-20.4375,-0.25,600.5625,0.5443115234375,0.53009033203125,-0.2806396484375,0.0333,-10.6875,-1.5625,-56.8125,3.34,-1.51,climb_up,2
3.91,3.85213196,23,3,3,3,1,-908.0,3.44,-2.7,0.01,0.09,-1.21,3.53,-25.6875,2.75,600.75,0.54498291015625,0.528076171875,-0.28271484375,0.0333,-10.6875,-1.5625,-56.8125,3.34,-1.48,climb_up,2
3.92,3.855413617,23,3,3,3,1,-989.0,3.99,-3.46,-0.78,0.64,-2.02,3.53,-34.875,6.75,601.5,0.5455322265625,0.52545166015625,-0.2850341796875,0.0333,-10.6875,-1.5625,-56.875,3.34,-1.44,climb_up,2
3.93,3.855413617,23,3,3,3,1,-1196.0,4.99,-5.47,-2.85,1.63,-4.09,3.19,-45.5,10.3125,602.9375,0.5458984375,0.5220947265625,-0.28753662109375,0.0333,-10.6875,-1.5625,-56.875,3.35,-1.38,climb_up,2
3.94,3.866319745,23,3,3,3,1,-1286.0,5.68,-6.47,-3.75,2.3,-5.16,2.26,-50.625,13.3125,604.9375,0.54595947265625,0.51849365234375,-0.2899169921875,0.0333,-10.6875,-1.5625,-56.9375,3.37,-1.31,climb_up,2
3.95,3.866319745,23,3,3,3,2,-1391.0,6.33,-7.02,-4.8,2.93,-5.78,1.17,-48.25,15.3125,607.1875,0.54583740234375,0.51507568359375,-0.291748046875,0.0338,-10.5625,-1.6875,-56.9375,3.4,-1.24,climb_up,2
3.96,3.897288902,23,3,3,3,2,-1545.0,6.91,-7.33,-6.34,3.48,-6.13,0.43,-26.0,14.75,608.625,0.5460205078125,0.51300048828125,-0.29229736328125,0.0338,-10.5625,-1.6875,-56.9375,3.42,-1.2,climb_up,2
3.97,3.897288902,23,3,3,3,2,-1796.0,7.72,-5.79,-8.86,4.28,-4.58,0.29,4.0,10.8125,608.625,0.54669189453125,0.51263427734375,-0.2916259765625,0.0338,-10.5625,-1.6875,-56.875,3.44,-1.2,climb_up,2
3.98,3.911295982,23,3,3,3,2,-1795.0,7.68,-4.76,-8.85,4.24,-3.51,0.58,27.125,4.6875,607.3125,0.54779052734375,0.51373291015625,-0.29022216796875,0.0338,-10.5625,-1.6875,-56.8125,3.44,-1.25,climb_up,2
3.99,3.911295982,23,3,3,3,2,-1704.0,7.54,-3.9,-7.95,4.09,-2.58,1.47,36.9375,-3.3125,605.0625,0.549072265625,0.51556396484375,-0.2890625,0.0338,-10.5625,-1.6875,-56.75,3.44,-1.31,climb_up,2
4.0,3.927072105,23,3,3,3,2,-1576.0,7.35,-3.34,-6.68,3.93,-1.97,2.64,29.3125,-10.8125,602.625,0.55023193359375,0.51715087890625,-0.2889404296875,0.0341,-11.25,-2.875,-56.75,3.42,-1.37,climb_up,2
4.01,3.927072105,23,3,3,3,2,-1475.0,7.01,-2.89,-5.65,3.62,-1.49,3.65,6.0,-15.625,600.8125,0.55084228515625,0.51763916015625,-0.2904052734375,0.0341,-11.25,-2.875,-56.8125,3.39,-1.4,climb_up,2
4.02,3.958291872,23,3,3,3,2,-1481.0,6.74,-2.89,-5.7,3.38,-1.51,3.73,-19.0625,-17.5,600.0625,0.55078125,0.5169677734375,-0.29327392578125,0.0341,-11.25,-2.875,-56.875,3.35,-1.38,climb_up,2
4.03,3.958291872,23,3,3,3,2,-1477.0,6.4,-2.76,-5.64,3.08,-1.41,3.57,-28.1875,-19.375,599.75,0.55035400390625,0.515869140625,-0.296630859375,0.0341,-11.25,-2.875,-57.0,3.32,-1.35,climb_up,2
4.04,3.972033124,23,3,3,3,2,-1484.0,5.07,-1.77,-5.7,1.79,-0.44,3.37,-17.625,-20.6875,598.9375,0.550048828125,0.515380859375,-0.2994384765625,0.0341,-11.25,-2.875,-57.125,3.28,-1.33,climb_up,2
4.05,3.972033124,23,3,3,3,2,-1456.0,4.19,-1.18,-5.41,0.95,0.16,2.92,0.75,-19.8125,597.5,0.5501708984375,0.51593017578125,-0.30120849609375,0.0327,-11.0625,-2.375,-57.1875,3.24,-1.35,climb_up,2
4.06,4.002974286,23,3,3,3,2,-1419.0,3.53,-0.67,-5.03,0.31,0.7,2.77,14.1875,-18.0,595.4375,0.55059814453125,0.51708984375,-0.30218505859375,0.0327,-11.0625,-2.375,-57.25,3.21,-1.38,climb_up,2
4.07,4.002974286,23,3,3,3,2,-1360.0,2.89,-0.22,-4.43,-0.29,1.2,2.68,19.8125,-15.625,593.3125,0.55126953125,0.51837158203125,-0.30279541015625,0.0327,-11.0625,-2.375,-57.25,3.18,-1.42,climb_up,2
4.08,4.016226077,23,3,3,3,2,-1165.0,2.14,0.91,-2.49,-1.01,2.38,2.32,22.4375,-13.875,591.125,0.552001953125,0.519775390625,-0.30303955078125,0.0327,-11.0625,-2.375,-57.25,3.16,-1.46,climb_up,2
4.09,4.016226077,23,3,3,3,2,-1060.0,1.7,1.36,-1.43,-1.42,2.87,1.36,23.9375,-13.125,589.25,0.552490234375,0.52142333984375,-0.30291748046875,0.0327,-11.0625,-2.375,-57.25,3.13,-1.51,climb_up,2
4.1,4.032291059,23,3,3,3,2,-1060.0,1.7,1.36,-1.43,-1.42,2.87,1.36,23.9375,-13.125,589.25,0.552490234375,0.52142333984375,-0.30291748046875,0.0327,-11.0625,-2.375,-57.25,3.13,-1.51,climb_up,2
4.1,4.032291059,23,3,3,3,2,-995.0,1.4,1.72,-0.78,-1.71,3.27,-0.13,26.6875,-13.75,587.6875,0.55255126953125,0.5234375,-0.30224609375,0.0338,-11.375,-1.5625,-57.25,3.11,-1.55,climb_up,2
4.11,4.04701815,23,3,3,3,2,-934.0,0.94,1.7,-0.17,-2.14,3.3,-2.04,29.875,-14.9375,586.5,0.552001953125,0.5260009765625,-0.30096435546875,0.0338,-11.375,-1.5625,-57.25,3.09,-1.59,climb_up,2
4.12,4.04701815,23,3,3,3,2,-852.0,0.67,2.23,0.64,-2.4,3.86,-3.89,23.625,-16.125,586.125,0.5506591796875,0.52862548828125,-0.29949951171875,0.0338,-11.375,-1.5625,-57.25,3.07,-1.62,climb_up,2
4.13,4.062862633,23,3,3,3,2,-861.0,0.84,2.38,0.55,-2.21,4.01,-5.71,19.4375,-16.6875,586.5,0.54864501953125,0.53131103515625,-0.29779052734375,0.0338,-11.375,-1.5625,-57.3125,3.06,-1.63,climb_up,2
4.14,4.062862633,23,3,3,3,2,-894.0,1.25,2.55,0.22,-1.78,4.19,-6.47,19.8125,-16.1875,587.125,0.54638671875,0.53411865234375,-0.29571533203125,0.0338,-11.375,-1.5625,-57.3125,3.04,-1.64,climb_up,2
4.15,4.092886599,23,3,3,3,2,-932.0,1.73,2.58,-0.14,-1.29,4.24,-5.77,22.1875,-14.4375,587.4375,0.54443359375,0.536865234375,-0.293701171875,0.0333,-12.1875,1.0625,-57.3125,3.03,-1.66,climb_up,2
4.16,4.092886599,23,3,3,3,2,-842.0,1.92,1.58,0.74,-1.09,3.26,-4.91,24.75,-13.0,587.375,0.54296875,0.53948974609375,-0.291748046875,0.0333,-12.1875,1.0625,-57.3125,3.02,-1.68,climb_up,2
4.17,4.106484744,23,3,3,3,2,-800.0,2.23,1.08,1.16,-0.77,2.79,-4.42,23.3125,-11.6875,587.3125,0.54156494140625,0.54193115234375,-0.2899169921875,0.0333,-12.1875,1.0625,-57.3125,3.01,-1.7,climb_up,2
4.18,4.106484744,23,3,3,3,2,-793.0,2.47,0.19,1.23,-0.52,1.9,-4.59,13.6875,-9.875,587.75,0.5400390625,0.54376220703125,-0.2884521484375,0.0333,-12.1875,1.0625,-57.3125,3.0,-1.71,climb_up,2
4.19,4.122125735,23,3,3,3,2,-767.0,2.74,-0.44,1.5,-0.25,1.24,-5.08,-3.0625,-8.125,589.25,0.5379638671875,0.5447998046875,-0.2874755859375,0.0333,-12.1875,1.0625,-57.375,2.99,-1.69,climb_up,2
4.2,4.122125735,23,3,3,3,2,-781.0,3.21,-2.04,1.37,0.21,-0.41,-5.42,-28.625,-5.0,592.125,0.5352783203125,0.54443359375,-0.2874755859375,0.0329,-12.5625,1.75,-57.4375,3.0,-1.62,climb_up,2
4.21,4.136424115,23,3,3,3,2,-824.0,3.35,-3.69,0.96,0.34,-2.17,-6.67,-49.75,-1.8125,596.5,0.5318603515625,0.54302978515625,-0.28790283203125,0.0329,-12.5625,1.75,-57.5,3.0,-1.52,climb_up,2
4.22,4.136424115,23,3,3,3,2,-865.0,3.31,-4.62,0.57,0.28,-3.23,-8.6,-66.5625,0.375,602.3125,0.52740478515625,0.541015625,-0.2884521484375,0.0329,-12.5625,1.75,-57.625,3.02,-1.38,climb_up,2
4.23,4.166461103,23,3,3,3,2,-771.0,2.75,-4.91,1.52,-0.28,-3.67,-11.05,-66.0625,-0.875,608.6875,0.52215576171875,0.53936767578125,-0.28826904296875,0.0329,-12.5625,1.75,-57.75,3.03,-1.24,climb_up,2
4.24,4.166461103,23,3,3,3,2,-710.0,2.53,-4.33,2.14,-0.51,-3.17,-11.11,-35.4375,-3.75,613.5625,0.5174560546875,0.5394287109375,-0.28680419921875,0.0329,-12.5625,1.75,-57.75,3.04,-1.15,climb_up,2
4.25,4.181219851,23,3,3,3,1,-656.0,2.46,-3.34,2.69,-0.58,-2.21,-8.84,9.0625,-7.6875,615.4375,0.51446533203125,0.5416259765625,-0.2841796875,0.032,-12.875,-1.25,-57.8125,3.04,-1.13,climb_up,2
4.26,4.181219851,23,3,3,3,1,-586.0,2.29,-2.49,3.38,-0.74,-1.3,-6.63,45.25,-9.4375,614.9375,0.512939453125,0.54547119140625,-0.28070068359375,0.032,-12.875,-1.25,-57.75,3.03,-1.18,climb_up,2
4.27,4.196704429,23,3,3,3,1,-450.0,2.0,-1.05,4.73,-1.03,0.22,-4.8,63.5625,-8.375,612.9375,0.51251220703125,0.54986572265625,-0.27685546875,0.032,-12.875,-1.25,-57.6875,3.03,-1.27,climb_up,2
4.28,4.196704429,23,3,3,3,1,-399.0,1.88,-0.48,5.22,-1.14,0.88,-3.88,64.5625,-6.875,610.6875,0.512451171875,0.55413818359375,-0.27313232421875,0.032,-12.875,-1.25,-57.625,3.02,-1.36,climb_up,2
4.29,4.228809817,23,3,3,3,1,-360.0,1.78,-0.15,5.61,-1.23,1.29,-3.92,58.5625,-4.875,608.8125,0.5123291015625,0.5579833984375,-0.26959228515625,0.032,-12.875,-1.25,-57.5625,3.02,-1.44,climb_up,2
4.3,4.228809817,23,3,3,3,1,-329.0,1.64,0.11,5.9,-1.38,1.62,-3.9,47.9375,-3.5625,607.4375,0.51202392578125,0.56121826171875,-0.2664794921875,0.032,-12.5,-0.5625,-57.5,3.02,-1.51,climb_up,2
4.31,4.24271981,23,3,3,3,1,-308.0,1.31,0.51,6.11,-1.71,2.06,-3.83,34.625,-2.375,606.75,0.511474609375,0.56365966796875,-0.26385498046875,0.032,-12.5,-0.5625,-57.4375,3.02,-1.55,climb_up,2
4.32,4.24271981,23,3,3,3,1,-302.0,1.11,0.67,6.17,-1.91,2.25,-4.03,24.625,-2.1875,606.625,0.5106201171875,0.56561279296875,-0.2615966796875,0.032,-12.5,-0.5625,-57.4375,3.03,-1.58,climb_up,2
4.33,4.273862795,23,3,3,3,1,-310.0,1.03,0.86,6.08,-2.0,2.45,-4.21,15.625,-2.5625,606.9375,0.509521484375,0.567138671875,-0.259765625,0.032,-12.5,-0.5625,-57.375,3.03,-1.59,climb_up,2
4.34,4.273862795,23,3,3,3,1,-320.0,0.98,0.87,5.97,-2.05,2.47,-4.34,10.375,-3.6875,607.5625,0.50811767578125,0.56842041015625,-0.25811767578125,0.032,-12.5,-0.5625,-57.375,3.03,-1.59,climb_up,2
4.35,4.287492393,23,3,3,3,0,-384.0,1.18,0.85,5.34,-1.85,2.44,-4.47,6.0625,-4.0625,608.4375,0.50665283203125,0.569580078125,-0.2567138671875,0.0319,-12.75,1.6875,-57.375,3.03,-1.59,climb_up,2
4.36,4.287492393,23,3,3,3,0,-384.0,1.18,0.85,5.34,-1.85,2.44,-4.47,6.0625,-4.0625,608.4375,0.50665283203125,0.569580078125,-0.2567138671875,0.0319,-12.75,1.6875,-57.375,3.03,-1.59,climb_up,2
4.36,4.290599937,23,3,3,3,0,-421.0,1.35,0.62,4.97,-1.67,2.2,-4.1,2.0,-3.0625,609.4375,0.50518798828125,0.57037353515625,-0.2554931640625,0.0319,-12.75,1.6875,-57.375,3.03,-1.57,climb_up,2
4.37,4.290599937,23,3,3,3,0,-467.0,1.48,0.28,4.51,-1.55,1.84,-4.2,-1.875,-2.875,610.625,0.50360107421875,0.57098388671875,-0.25439453125,0.0319,-12.75,1.6875,-57.4375,3.04,-1.56,climb_up,2
4.38,4.316560916,23,3,3,3,0,-580.0,1.89,-1.02,3.39,-1.15,0.51,-4.93,-5.8125,-2.3125,612.25,0.50177001953125,0.57147216796875,-0.25323486328125,0.0319,-12.75,1.6875,-57.4375,3.04,-1.53,climb_up,2
4.39,4.316560916,23,3,3,3,0,-682.0,2.1,-1.33,2.36,-0.94,0.16,-5.23,-9.3125,-1.3125,614.1875,0.49981689453125,0.57177734375,-0.25213623046875,0.0319,-12.75,1.6875,-57.4375,3.05,-1.5,climb_up,2
4.4,4.332340497,23,3,3,3,0,-812.0,2.28,-1.56,1.07,-0.77,-0.11,-4.36,-20.375,-0.875,616.4375,0.49786376953125,0.5712890625,-0.251708984375,0.0315,-12.375,1.6875,-57.5,3.05,-1.45,climb_up,2
4.41,4.332340497,23,3,3,3,0,-921.0,2.47,-1.55,0.0,-0.58,-0.16,-3.36,-31.1875,-1.8125,618.9375,0.4959716796875,0.5701904296875,-0.2520751953125,0.0315,-12.375,1.6875,-57.5625,3.06,-1.39,climb_up,2
4.42,4.363985069,23,3,3,3,0,-1115.0,3.03,-3.01,-1.93,-0.02,-1.67,-3.26,-28.0625,-2.5625,621.1875,0.494140625,0.56927490234375,-0.25244140625,0.0315,-12.375,1.6875,-57.5625,3.06,-1.33,climb_up,2
4.43,4.363985069,23,3,3,3,0,-1222.0,3.05,-4.1,-2.99,0.0,-2.8,-3.4,-17.6875,-3.5625,622.9375,0.49249267578125,0.5689697265625,-0.2523193359375,0.0315,-12.375,1.6875,-57.625,3.06,-1.29,climb_up,2
4.44,4.377592532,23,3,3,3,0,-1350.0,3.21,-4.56,-4.27,0.15,-3.29,-2.42,-17.625,-3.9375,624.4375,0.4910888671875,0.56854248046875,-0.2525634765625,0.0315,-12.375,1.6875,-57.6875,3.05,-1.26,climb_up,2
4.45,4.377592532,23,3,3,3,0,-1459.0,3.43,-4.67,-5.36,0.38,-3.42,-1.94,-6.5625,-6.75,625.125,0.48992919921875,0.5687255859375,-0.2525634765625,0.0321,-12.375,-0.5625,-57.6875,3.04,-1.24,climb_up,2
4.46,4.391569623,23,3,3,3,0,-1621.0,3.51,-4.38,-6.97,0.48,-3.12,-1.89,12.0,-9.5,624.8125,0.4891357421875,0.570068359375,-0.251953125,0.0321,-12.375,-0.5625,-57.6875,3.03,-1.25,climb_up,2
4.47,4.391569623,23,3,3,3,0,-1660.0,3.58,-4.06,-7.36,0.55,-2.77,-0.91,24.625,-8.375,623.625,0.48895263671875,0.57183837890625,-0.2510986328125,0.0321,-12.375,-0.5625,-57.6875,3.02,-1.29,climb_up,2
4.48,4.421936933,23,3,3,3,0,-1609.0,3.49,-3.44,-6.85,0.48,-2.11,-0.57,26.0,-5.0,622.3125,0.48907470703125,0.57354736328125,-0.25006103515625,0.0321,-12.375,-0.5625,-57.6875,3.01,-1.33,climb_up,2
4.49,4.421936933,23,3,3,3,0,-1483.0,3.34,-2.94,-5.6,0.32,-1.57,0.07,17.0,0.1875,621.4375,0.48944091796875,0.574462890625,-0.24932861328125,0.0321,-12.375,-0.5625,-57.6875,3.01,-1.36,climb_up,2
4.5,4.436966189,23,3,3,3,0,-1330.0,4.11,-2.57,-4.07,1.09,-1.19,1.15,7.6875,7.8125,620.875,0.4903564453125,0.57440185546875,-0.24896240234375,0.0324,-12.375,0.1875,-57.625,3.02,-1.38,climb_up,2
4.51,4.436966189,23,3,3,3,0,-1312.0,4.61,-2.62,-3.9,1.56,-1.23,1.87,1.625,15.5,620.625,0.4918212890625,0.57354736328125,-0.2486572265625,0.0324,-12.375,0.1875,-57.5625,3.04,-1.38,climb_up,2
4.52,4.451389407,23,3,3,3,0,-1282.0,4.5,-2.48,-3.61,1.43,-1.08,2.83,2.0625,21.1875,620.1875,0.49383544921875,0.5723876953125,-0.24835205078125,0.0324,-12.375,0.1875,-57.5,3.07,-1.4,climb_up,2
4.53,4.451389407,23,3,3,3,0,-1242.0,4.19,-1.46,-3.23,1.08,-0.03,2.94,11.5625,23.5,619.3125,0.4962158203125,0.57159423828125,-0.24749755859375,0.0324,-12.375,0.1875,-57.375,3.11,-1.43,climb_up,2
4.54,4.482174156,23,3,3,3,0,-1264.0,4.47,-0.66,-3.47,1.33,0.81,2.84,26.6875,23.125,617.625,0.4989013671875,0.57159423828125,-0.24603271484375,0.0324,-12.375,0.1875,-57.25,3.14,-1.48,climb_up,2
4.55,4.482174156,23,3,3,3,0,-1281.0,5.03,-0.15,-3.66,1.85,1.4,2.93,36.5,21.0,615.4375,0.501708984375,0.57220458984375,-0.2442626953125,0.0319,-12.0625,1.375,-57.125,3.17,-1.55,climb_up,2
4.56,4.496591881,23,3,3,3,0,-1297.0,5.56,-0.03,-3.84,2.36,1.58,3.66,28.75,20.25,613.375,0.5045166015625,0.5723876953125,-0.24310302734375,0.0319,-12.0625,1.375,-57.0,3.19,-1.61,climb_up,2
4.57,4.496591881,23,3,3,3,0,-1231.0,6.73,-0.49,-3.2,3.51,1.14,4.09,10.0625,20.4375,612.125,0.507080078125,0.57147216796875,-0.24285888671875,0.0319,-12.0625,1.375,-56.9375,3.22,-1.64,climb_up,2
4.58,4.512374474,23,3,3,3,0,-1201.0,7.25,-0.64,-2.9,4.0,0.99,3.23,-7.4375,21.0625,612.0625,0.509033203125,0.5697021484375,-0.24310302734375,0.0319,-12.0625,1.375,-56.875,3.25,-1.64,climb_up,2
4.59,4.512374474,23,3,3,3,0,-1145.0,7.28,-0.61,-2.35,4.0,1.0,1.79,-15.1875,21.4375,612.75,0.5103759765625,0.5677490234375,-0.24322509765625,0.0319,-12.0625,1.375,-56.8125,3.28,-1.62,climb_up,2
4.6,4.543302574,23,3,3,3,0,-1082.0,6.87,-0.34,-1.73,3.56,1.26,0.36,-11.0,21.625,613.6875,0.51129150390625,0.56610107421875,-0.24267578125,0.0319,-12.5,3.5625,-56.75,3.31,-1.6,climb_up,2
4.61,4.543302574,23,3,3,3,0,-986.0,5.4,-0.04,-0.78,2.05,1.55,-0.25,0.5625,21.8125,614.1875,0.5123291015625,0.56524658203125,-0.24139404296875,0.0319,-12.5,3.5625,-56.6875,3.35,-1.6,climb_up,2
4.61,4.546408857,23,3,3,3,0,-986.0,5.4,-0.04,-0.78,2.05,1.55,-0.25,0.5625,21.8125,614.1875,0.5123291015625,0.56524658203125,-0.24139404296875,0.0319,-12.5,3.5625,-56.6875,3.35,-1.6,climb_up,2
4.62,4.546408857,23,3,3,3,0,-939.0,4.75,0.01,-0.33,1.37,1.64,0.2,9.5,21.8125,614.125,0.513671875,0.564697265625,-0.23992919921875,0.0319,-12.5,3.5625,-56.5625,3.38,-1.62,climb_up,2
4.63,4.572257896,23,3,3,3,0,-880.0,4.2,0.1,0.23,0.78,1.75,1.39,11.0625,20.625,613.625,0.515380859375,0.56414794921875,-0.23876953125,0.0319,-12.5,3.5625,-56.5,3.41,-1.64,climb_up,2
4.64,4.572257896,23,3,3,3,0,-830.0,3.8,0.16,0.72,0.36,1.83,2.9,11.25,17.5,612.625,0.51739501953125,0.5635986328125,-0.23822021484375,0.0319,-12.5,3.5625,-56.4375,3.43,-1.67,climb_up,2
4.65,4.587688316,23,3,3,3,0,-734.0,3.44,0.23,1.67,0.0,1.95,4.54,14.1875,12.625,610.875,0.51983642578125,0.56317138671875,-0.23828125,0.0326,-12.6875,3.1875,-56.3125,3.44,-1.71,climb_up,2
4.66,4.587688316,23,3,3,3,0,-701.0,3.38,0.28,1.99,-0.06,2.04,5.92,18.0,7.6875,608.375,0.5224609375,0.56298828125,-0.2388916015625,0.0326,-12.6875,3.1875,-56.25,3.45,-1.76,climb_up,2
4.67,4.602197472,23,3,3,3,0,-681.0,3.33,0.39,2.18,-0.11,2.21,6.96,21.1875,3.25,605.375,0.52532958984375,0.56298828125,-0.23992919921875,0.0326,-12.6875,3.1875,-56.1875,3.44,-1.82,climb_up,2
4.68,4.602197472,23,3,3,3,0,-702.0,3.61,0.6,1.96,0.18,2.49,7.74,23.25,0.4375,601.9375,0.5283203125,0.56317138671875,-0.2412109375,0.0326,-12.6875,3.1875,-56.1875,3.42,-1.88,climb_up,2
4.69,4.632358686,23,3,3,3,0,-701.0,3.64,0.46,1.97,0.23,2.42,7.98,22.25,-0.75,598.4375,0.53131103515625,0.56329345703125,-0.24267578125,0.0326,-12.6875,3.1875,-56.125,3.4,-1.95,climb_up,2
4.7,4.632358686,23,3,3,3,0,-688.0,3.62,0.34,2.09,0.23,2.35,7.92,17.5625,-0.875,595.1875,0.53411865234375,0.56317138671875,-0.24432373046875,0.0326,-12.6875,5.875,-56.0625,3.39,-2.0,climb_up,2
4.71,4.647266604,23,3,3,3,0,-675.0,3.7,0.06,2.22,0.33,2.11,7.38,7.375,0.75,592.6875,0.53668212890625,0.5625,-0.2462158203125,0.0326,-12.6875,5.875,-56.0625,3.37,-2.04,climb_up,2
4.72,4.647266604,23,3,3,3,0,-712.0,3.55,-1.14,1.84,0.18,0.91,5.84,-8.3125,3.625,591.4375,0.53851318359375,0.56109619140625,-0.2481689453125,0.0326,-12.6875,5.875,-56.0625,3.36,-2.05,climb_up,2
4.73,4.662854047,23,3,3,3,0,-742.0,3.62,-1.79,1.55,0.25,0.23,4.29,-26.6875,7.4375,591.625,0.5396728515625,0.55877685546875,-0.2503662109375,0.0326,-12.6875,5.875,-56.125,3.37,-2.02,climb_up,2
4.74,4.662854047,23,3,3,3,0,-785.0,3.85,-2.91,1.13,0.47,-0.94,2.58,-43.25,11.0625,593.3125,0.5400390625,0.55572509765625,-0.25262451171875,0.0326,-12.6875,5.875,-56.1875,3.38,-1.97,climb_up,2
4.75,4.692304527,23,3,3,3,0,-842.0,3.9,-4.49,0.57,0.5,-2.61,0.98,-55.0625,14.125,596.0625,0.53985595703125,0.5521240234375,-0.25482177734375,0.0333,-12.375,7.0625,-56.25,3.4,-1.88,climb_up,2
4.76,4.692304527,23,3,3,3,0,-910.0,3.48,-5.23,-0.09,0.05,-3.44,-0.09,-58.5,15.625,599.3125,0.53924560546875,0.54840087890625,-0.2567138671875,0.0333,-12.375,7.0625,-56.3125,3.42,-1.79,climb_up,2
4.77,4.706985924,23,3,3,3,0,-885.0,3.6,-4.75,0.16,0.15,-3.02,0.58,-43.25,13.25,601.625,0.5390625,0.54547119140625,-0.25823974609375,0.0333,-12.375,7.0625,-56.3125,3.44,-1.72,climb_up,2
4.78,4.706985924,23,3,3,3,0,-820.0,3.59,-3.89,0.81,0.13,-2.16,2.79,-6.0,7.8125,601.25,0.54022216796875,0.54437255859375,-0.25897216796875,0.0333,-12.375,7.0625,-56.3125,3.45,-1.72,climb_up,2
4.79,4.736994591,23,3,3,3,0,-738.0,3.48,-2.94,1.61,0.02,-1.15,4.89,26.375,2.5,598.5625,0.54248046875,0.544921875,-0.259033203125,0.0333,-12.375,7.0625,-56.25,3.45,-1.78,climb_up,2
4.8,4.736994591,23,3,3,3,0,-635.0,3.28,-1.54,2.63,-0.15,0.33,5.61,41.625,0.0625,594.8125,0.54522705078125,0.54620361328125,-0.25872802734375,0.0326,-12.75,2.5,-56.125,3.44,-1.87,climb_up,2
4.81,4.752195234,23,3,3,3,0,-591.0,3.14,-1.1,3.05,-0.28,0.85,5.07,38.3125,-0.0625,591.4375,0.5477294921875,0.54742431640625,-0.2584228515625,0.0326,-12.75,2.5,-56.0625,3.42,-1.95,climb_up,2
4.82,4.752195234,23,3,3,3,0,-560.0,2.89,-0.89,3.36,-0.52,1.1,3.86,24.0,0.0,589.0625,0.54949951171875,0.548095703125,-0.25836181640625,0.0326,-12.75,2.5,-56.0,3.42,-2.0,climb_up,2
4.83,4.766781415,23,3,3,3,0,-529.0,2.6,-0.83,3.67,-0.81,1.19,2.85,6.25,-0.0625,587.875,0.550537109375,0.5479736328125,-0.2589111328125,0.0326,-12.75,2.5,-56.0,3.41,-2.02,climb_up,2
4.84,4.766781415,23,3,3,3,0,-480.0,2.24,-1.25,4.16,-1.16,0.75,2.1,-12.6875,-0.3125,587.875,0.5509033203125,0.54705810546875,-0.2601318359375,0.0326,-12.75,2.5,-56.0625,3.41,-2.01,climb_up,2
4.85,4.782880374,23,3,3,3,0,-462.0,2.0,-1.43,4.36,-1.4,0.54,1.77,-29.875,-0.625,588.75,0.55072021484375,0.5452880859375,-0.26214599609375,0.0328,-13.1875,6.6875,-56.125,3.4,-1.97,climb_up,2
4.86,4.782880374,23,3,3,3,0,-455.0,1.86,-1.63,4.44,-1.54,0.27,1.4,-43.4375,-1.0625,590.4375,0.55010986328125,0.54296875,-0.26470947265625,0.0328,-13.1875,6.6875,-56.1875,3.4,-1.91,climb_up,2
4.87,4.814484907,23,3,3,3,0,-460.0,1.68,-2.08,4.41,-1.7,-0.24,0.89,-51.0,-1.6875,592.625,0.54913330078125,0.54034423828125,-0.2674560546875,0.0328,-13.1875,6.6875,-56.3125,3.39,-1.83,climb_up,2
4.88,4.814484907,23,3,3,3,0,-477.0,1.63,-2.17,4.25,-1.75,-0.42,0.75,-54.0625,-2.5625,594.9375,0.54803466796875,0.53759765625,-0.2703857421875,0.0328,-13.1875,6.6875,-56.4375,3.39,-1.75,climb_up,2
4.89,4.828965253,23,3,3,3,0,-490.0,1.57,-2.11,4.14,-1.81,-0.44,0.5,-52.1875,-4.0625,597.1875,0.5467529296875,0.53509521484375,-0.27325439453125,0.0328,-13.1875,6.6875,-56.5625,3.38,-1.67,climb_up,2
4.9,4.828965253,23,3,3,3,0,-498.0,1.58,-1.94,4.08,-1.78,-0.34,0.1,-46.5,-6.0,599.1875,0.54541015625,0.532958984375,-0.27581787109375,0.0347,-13.1875,6.25,-56.625,3.37,-1.59,climb_up,2
4.91,4.844255781,23,3,3,3,0,-498.0,1.58,-1.94,4.08,-1.78,-0.34,0.1,-46.5,-6.0,599.1875,0.54541015625,0.532958984375,-0.27581787109375,0.0347,-13.1875,6.25,-56.625,3.37,-1.59,climb_up,2
4.91,4.844255781,23,3,3,3,0,-544.0,1.53,-1.49,3.63,-1.82,0.04,-0.14,-37.9375,-7.1875,600.875,0.54412841796875,0.5313720703125,-0.27789306640625,0.0347,-13.1875,6.25,-56.75,3.36,-1.53,climb_up,2
4.92,4.856475182,23,3,3,3,0,-572.0,1.6,-1.32,3.37,-1.75,0.17,0.03,-27.1875,-7.9375,602.0,0.5430908203125,0.53033447265625,-0.27960205078125,0.0347,-13.1875,6.25,-56.8125,3.35,-1.49,climb_up,2
4.93,4.856475182,23,3,3,3,0,-616.0,1.66,-1.16,2.93,-1.68,0.3,0.19,-18.1875,-8.0,602.5625,0.5423583984375,0.52978515625,-0.28094482421875,0.0347,-13.1875,6.25,-56.875,3.34,-1.46,climb_up,2
4.94,4.871364057,23,3,3,3,0,-662.0,1.68,-1.04,2.48,-1.64,0.4,0.39,-12.8125,-7.8125,602.875,0.54180908203125,0.5294189453125,-0.28204345703125,0.0347,-13.1875,6.25,-56.9375,3.32,-1.44,climb_up,2
4.95,4.871364057,23,3,3,3,0,-767.0,2.0,-1.11,1.44,-1.31,0.31,0.2,-13.0625,-7.25,603.25,0.54119873046875,0.529052734375,-0.2830810546875,0.0338,-13.5,3.1875,-56.9375,3.31,-1.42,climb_up,2
4.96,4.91706885,23,3,3,3,0,-826.0,2.34,-1.53,0.85,-0.95,-0.13,0.2,-13.0625,-7.25,603.625,0.5406494140625,0.5286865234375,-0.28411865234375,0.0338,-13.5,3.1875,-57.0,3.3,-1.4,climb_up,2
4.97,4.91706885,23,3,3,3,0,-900.0,2.78,-2.19,0.13,-0.51,-0.81,0.08,-19.8125,-6.625,604.375,0.53985595703125,0.5279541015625,-0.285400390625,0.0338,-13.5,3.1875,-57.0625,3.29,-1.37,climb_up,2
4.98,4.92018677,23,3,3,3,0,-984.0,3.34,-3.14,-0.69,0.05,-1.81,0.1,-30.5625,-5.4375,605.6875,0.53887939453125,0.52667236328125,-0.287109375,0.0338,-13.5,3.1875,-57.125,3.28,-1.32,climb_up,2
4.99,4.92018677,23,3,3,3,0,-1200.0,4.63,-5.45,-2.85,1.35,-4.19,0.33,-43.0625,-3.3125,607.5,0.5377197265625,0.5245361328125,-0.2894287109375,0.0338,-13.5,3.1875,-57.1875,3.27,-1.26,climb_up,2
5.0,4.932018883,23,3,3,3,0,-1344.0,5.32,-6.73,-4.27,2.04,-5.53,0.69,-37.875,-2.75,609.0,0.536865234375,0.5225830078125,-0.29150390625,0.0334,-13.0625,2.0625,-57.25,3.27,-1.2,climb_up,2
5.01,4.932018883,23,3,3,3,0,-1437.0,6.15,-6.94,-5.19,2.88,-5.8,0.69,-37.875,-2.75,610.4375,0.5360107421875,0.5206298828125,-0.29364013671875,0.0334,-13.0625,2.0625,-57.3125,3.26,-1.14,climb_up,2
5.02,4.962321943,23,3,3,3,0,-1684.0,7.82,-6.41,-7.66,4.56,-5.29,1.46,-16.3125,-6.375,610.625,0.53582763671875,0.51983642578125,-0.29510498046875,0.0334,-13.0625,2.0625,-57.375,3.25,-1.12,climb_up,2
5.03,4.962321943,23,3,3,3,0,-1707.0,8.21,-5.18,-7.88,4.99,-4.0,2.55,29.9375,-21.125,607.875,0.53643798828125,0.52197265625,-0.2955322265625,0.0334,-13.0625,2.0625,-57.375,3.22,-1.18,climb_up,2
5.04,4.978381188,23,3,3,3,0,-1626.0,7.97,-4.06,-7.06,4.79,-2.83,1.99,24.6875,-27.4375,605.375,0.5364990234375,0.52423095703125,-0.29632568359375,0.0334,-13.0625,2.0625,-57.4375,3.17,-1.22,climb_up,2
5.05,4.978381188,23,3,3,3,0,-1529.0,7.29,-3.02,-6.08,4.17,-1.77,0.87,8.6875,-30.625,603.875,0.53564453125,0.5260009765625,-0.2977294921875,0.0333,-13.75,1.0,-57.5625,3.12,-1.24,climb_up,2
5.06,4.995507897,23,3,3,3,0,-1475.0,5.25,-2.21,-5.52,2.18,-0.97,0.0,-4.75,-32.1875,603.25,0.5340576171875,0.5272216796875,-0.29962158203125,0.0333,-13.75,1.0,-57.6875,3.07,-1.23,climb_up,2
5.07,4.995507897,23,3,3,3,0,-1379.0,4.61,-2.81,-4.53,1.59,-1.6,0.16,-14.875,-34.9375,602.9375,0.5321044921875,0.528076171875,-0.3021240234375,0.0333,-13.75,1.0,-57.8125,3.01,-1.21,climb_up,2
5.08,5.023030113,23,3,3,3,0,-1301.0,4.6,-2.95,-3.74,1.64,-1.76,1.0,-20.3125,-36.875,602.5625,0.53021240234375,0.528564453125,-0.30523681640625,0.0333,-13.75,1.0,-57.9375,2.95,-1.18,climb_up,2
5.09,5.023030113,23,3,3,3,0,-1291.0,4.94,-2.28,-3.61,2.05,-1.11,1.71,-11.3125,-37.0625,601.625,0.52880859375,0.5294189453125,-0.30810546875,0.0333,-13.75,1.0,-58.0625,2.89,-1.17,climb_up,2
5.1,5.036567467,23,3,3,3,0,-1357.0,4.71,-1.0,-4.25,1.88,0.18,2.37,3.3125,-35.9375,599.75,0.52801513671875,0.5308837890625,-0.31048583984375,0.0333,-13.375,3.1875,-58.1875,2.83,-1.18,climb_up,2
5.11,5.036567467,23,3,3,3,0,-1378.0,4.28,-0.66,-4.45,1.51,0.54,2.53,12.0,-33.375,597.5,0.527587890625,0.5325927734375,-0.31231689453125,0.0333,-13.375,3.1875,-58.25,2.77,-1.21,climb_up,2
5.12,5.053083255,23,3,3,3,0,-1388.0,3.84,-0.36,-4.54,1.12,0.88,1.92,14.6875,-29.625,595.375,0.5272216796875,0.53436279296875,-0.313720703125,0.0333,-13.375,3.1875,-58.3125,2.72,-1.24,climb_up,2
5.13,5.053083255,23,3,3,3,0,-1380.0,3.23,0.02,-4.45,0.54,1.29,1.13,14.3125,-25.1875,593.625,0.52685546875,0.53607177734375,-0.31463623046875,0.0333,-13.375,3.1875,-58.375,2.68,-1.27,climb_up,2
5.14,5.083139122,23,3,3,3,0,-1296.0,1.84,0.72,-3.6,-0.8,2.02,0.6,12.5,-20.8125,592.25,0.52642822265625,0.53753662109375,-0.31524658203125,0.0333,-13.375,3.1875,-58.4375,2.64,-1.29,climb_up,2
5.15,5.083139122,23,3,3,3,0,-1232.0,1.4,1.06,-2.96,-1.21,2.38,0.31,12.125,-17.8125,591.0625,0.5260009765625,0.5389404296875,-0.315673828125,0.0327,-13.75,4.375,-58.4375,2.61,-1.31,climb_up,2
5.16,5.096367801,23,3,3,3,0,-1168.0,1.19,1.31,-2.32,-1.39,2.65,-0.4,12.875,-17.0625,590.0625,0.52545166015625,0.54046630859375,-0.3157958984375,0.0327,-13.75,4.375,-58.5,2.59,-1.33,climb_up,2
5.17,5.096367801,23,3,3,3,0,-1168.0,1.19,1.31,-2.32,-1.39,2.65,-0.4,12.875,-17.0625,590.0625,0.52545166015625,0.54046630859375,-0.3157958984375,0.0327,-13.75,4.375,-58.5,2.59,-1.33,climb_up,2
5.17,5.112396324,23,3,3,3,0,-978.0,0.64,1.49,-0.42,-1.92,2.85,-1.37,13.25,-16.3125,589.375,0.524658203125,0.5421142578125,-0.31561279296875,0.0327,-13.75,4.375,-58.5,2.56,-1.35,climb_up,2
5.18,5.112396324,23,3,3,3,0,-926.0,0.53,1.33,0.1,-2.01,2.71,-2.42,13.5,-15.125,589.0,0.5235595703125,0.54388427734375,-0.3150634765625,0.0327,-13.75,4.375,-58.5625,2.54,-1.37,climb_up,2
5.19,5.127350101,23,3,3,3,0,-877.0,0.6,1.14,0.59,-1.92,2.52,-3.33,10.5625,-13.6875,589.0625,0.52215576171875,0.54559326171875,-0.31427001953125,0.0327,-13.75,4.375,-58.5625,2.52,-1.37,climb_up,2
5.2,5.127350101,23,3,3,3,0,-838.0,0.79,1.08,0.99,-1.72,2.46,-3.88,8.6875,-11.4375,589.4375,0.5206298828125,0.5472412109375,-0.31329345703125,0.0327,-14.1875,5.1875,-58.5625,2.51,-1.38,climb_up,2
5.21,5.14166964,23,3,3,3,0,-826.0,1.43,1.06,1.11,-1.07,2.45,-4.43,13.375,-9.5625,589.8125,0.51910400390625,0.54913330078125,-0.31182861328125,0.0327,-14.1875,5.1875,-58.5625,2.5,-1.39,climb_up,2
5.22,5.14166964,23,3,3,3,0,-822.0,1.77,1.06,1.15,-0.72,2.47,-4.21,19.875,-8.0,589.8125,0.5179443359375,0.55120849609375,-0.31005859375,0.0327,-14.1875,5.1875,-58.5625,2.49,-1.41,climb_up,2
5.23,5.172284386,23,3,3,3,0,-792.0,1.89,1.08,1.45,-0.59,2.53,-3.37,27.1875,-5.4375,589.3125,0.51739501953125,0.5533447265625,-0.30810546875,0.0327,-14.1875,5.1875,-58.5625,2.49,-1.44,climb_up,2
5.24,5.172284386,23,3,3,3,0,-793.0,1.96,1.03,1.43,-0.53,2.52,-3.03,30.3125,-4.25,588.5625,0.51702880859375,0.55560302734375,-0.3060302734375,0.0327,-14.1875,5.1875,-58.5,2.49,-1.49,climb_up,2
5.25,5.186550174,23,3,3,3,0,-724.0,2.08,0.67,2.11,-0.4,2.2,-2.86,24.75,-2.875,588.0625,0.51666259765625,0.55743408203125,-0.30413818359375,0.0312,-13.5,5.875,-58.5,2.49,-1.52,climb_up,2
5.26,5.186550174,23,3,3,3,0,-702.0,2.28,0.4,2.33,-0.2,1.94,-2.82,14.875,-1.125,588.125,0.51611328125,0.5587158203125,-0.30267333984375,0.0312,-13.5,5.875,-58.4375,2.49,-1.53,climb_up,2
5.27,5.201618248,23,3,3,3,0,-683.0,2.37,0.06,2.52,-0.13,1.59,-3.91,1.1875,0.625,589.25,0.51495361328125,0.55938720703125,-0.3013916015625,0.0312,-13.5,5.875,-58.4375,2.5,-1.53,climb_up,2
5.28,5.201618248,23,3,3,3,0,-676.0,2.37,-0.41,2.59,-0.13,1.08,-5.35,-13.1875,3.125,591.5,0.5130615234375,0.5594482421875,-0.30023193359375,0.0312,-13.5,5.875,-58.4375,2.51,-1.49,climb_up,2
5.29,5.2332675,23,3,3,3,0,-728.0,2.28,-1.66,2.07,-0.25,-0.22,-6.86,-22.625,5.625,594.75,0.51055908203125,0.55914306640625,-0.298828125,0.0312,-13.5,5.875,-58.5,2.53,-1.43,climb_up,2
5.3,5.2332675,23,3,3,3,0,-759.0,2.18,-1.98,1.77,-0.37,-0.61,-8.37,-24.625,6.9375,598.5625,0.507568359375,0.5589599609375,-0.29705810546875,0.0316,-14.1875,7.0625,-58.5,2.56,-1.37,climb_up,2
5.31,5.247006839,23,3,3,3,0,-755.0,2.07,-2.65,1.81,-0.51,-1.33,-9.24,-19.25,7.0625,602.3125,0.50445556640625,0.55914306640625,-0.29473876953125,0.0316,-14.1875,7.0625,-58.5,2.58,-1.31,climb_up,2
5.32,5.247006839,23,3,3,3,0,-748.0,1.79,-2.84,1.87,-0.81,-1.56,-8.39,-6.75,5.9375,605.1875,0.50189208984375,0.55987548828125,-0.29217529296875,0.0316,-14.1875,7.0625,-58.5,2.6,-1.28,climb_up,2
5.33,5.262289594,23,3,3,3,0,-665.0,1.54,-2.37,2.7,-1.08,-1.09,-7.17,11.4375,4.5625,606.75,0.5001220703125,0.5614013671875,-0.28924560546875,0.0316,-14.1875,7.0625,-58.5,2.62,-1.27,climb_up,2
5.34,5.262289594,23,3,3,3,0,-614.0,1.44,-2.05,3.2,-1.2,-0.74,-5.64,28.75,4.0625,607.0,0.49920654296875,0.5635986328125,-0.2860107421875,0.0316,-14.1875,7.0625,-58.4375,2.64,-1.31,climb_up,2
5.35,5.292258751,23,3,3,3,0,-565.0,1.39,-1.68,3.68,-1.25,-0.32,-4.37,39.0625,4.5,606.375,0.49896240234375,0.56610107421875,-0.28277587890625,0.0306,-14.0,4.75,-58.375,2.65,-1.36,climb_up,2
5.36,5.292258751,23,3,3,3,0,-481.0,1.41,-1.24,4.51,-1.25,0.17,-3.83,41.875,5.5625,605.4375,0.4990234375,0.568603515625,-0.2794189453125,0.0306,-14.0,4.75,-58.25,2.67,-1.41,climb_up,2
5.37,5.306397911,23,3,3,3,0,-436.0,1.29,-0.99,4.94,-1.39,0.47,-3.51,39.625,6.3125,604.5625,0.49920654296875,0.57086181640625,-0.27630615234375,0.0306,-14.0,4.75,-58.1875,2.68,-1.47,climb_up,2
5.38,5.306397911,23,3,3,3,0,-392.0,1.18,-0.73,5.37,-1.52,0.77,-3.47,34.3125,8.0625,604.0,0.499267578125,0.57281494140625,-0.2733154296875,0.0306,-14.0,4.75,-58.125,2.7,-1.51,climb_up,2
5.39,5.321935184,23,3,3,3,0,-363.0,1.07,-0.59,5.65,-1.65,0.95,-3.8,28.0,9.9375,603.875,0.49920654296875,0.57440185546875,-0.2703857421875,0.0306,-14.0,4.75,-58.0625,2.72,-1.55,climb_up,2
5.4,5.321935184,23,3,3,3,0,-344.0,0.79,-0.49,5.83,-1.95,1.07,-4.3,20.0,11.125,604.3125,0.4989013671875,0.5755615234375,-0.267578125,0.0303,-14.0,6.6875,-57.9375,2.75,-1.57,climb_up,2
5.41,5.351732547,23,3,3,3,0,-338.0,0.76,-0.51,5.88,-2.01,1.05,-4.54,9.875,12.75,605.375,0.498291015625,0.576171875,-0.26507568359375,0.0303,-14.0,6.6875,-57.9375,2.78,-1.57,climb_up,2
5.42,5.351732547,23,3,3,3,0,-356.0,0.9,-0.61,5.7,-1.9,0.94,-4.82,0.6875,15.25,607.0,0.49749755859375,0.57623291015625,-0.26275634765625,0.0303,-14.0,6.6875,-57.875,2.81,-1.56,climb_up,2
5.43,5.366854699,23,3,3,3,0,-356.0,0.9,-0.61,5.7,-1.9,0.94,-4.82,0.6875,15.25,607.0,0.49749755859375,0.57623291015625,-0.26275634765625,0.0303,-14.0,6.6875,-57.875,2.81,-1.56,climb_up,2
5.43,5.366854699,23,3,3,3,0,-388.0,1.03,-0.72,5.37,-1.81,0.8,-5.1,-8.75,17.8125,609.3125,0.49658203125,0.57574462890625,-0.2606201171875,0.0303,-14.0,6.6875,-57.8125,2.85,-1.53,climb_up,2
5.44,5.381795128,23,3,3,3,0,-502.0,1.54,-1.33,4.22,-1.34,0.15,-5.15,-15.875,19.625,612.0,0.4954833984375,0.57476806640625,-0.2586669921875,0.0303,-14.0,6.6875,-57.8125,2.89,-1.48,climb_up,2
5.45,5.381795128,23,3,3,3,0,-562.0,1.83,-1.76,3.62,-1.09,-0.33,-4.86,-22.125,20.6875,615.0,0.49444580078125,0.57342529296875,-0.25701904296875,0.0302,-14.1875,7.375,-57.75,2.93,-1.43,climb_up,2
5.46,5.396742964,23,3,3,3,0,-645.0,2.02,-2.4,2.78,-0.94,-1.02,-4.43,-26.6875,21.375,618.0625,0.49346923828125,0.57171630859375,-0.255615234375,0.0302,-14.1875,7.375,-57.75,2.97,-1.37,climb_up,2
5.47,5.396742964,23,3,3,3,0,-731.0,2.24,-2.66,1.91,-0.76,-1.33,-4.61,-24.0,21.5625,621.0625,0.49249267578125,0.57012939453125,-0.25408935546875,0.0302,-14.1875,7.375,-57.6875,3.01,-1.32,climb_up,2
5.48,5.412348148,23,3,3,3,0,-910.0,3.08,-3.9,0.12,0.03,-2.62,-3.02,-19.0,21.875,623.3125,0.49212646484375,0.568603515625,-0.2528076171875,0.0302,-14.1875,7.375,-57.625,3.05,-1.28,climb_up,2
5.49,5.412348148,23,3,3,3,0,-1015.0,3.25,-3.63,-0.93,0.15,-2.35,-1.55,-1.4375,21.0,624.3125,0.49267578125,0.56787109375,-0.25128173828125,0.0302,-14.1875,7.375,-57.5625,3.09,-1.27,climb_up,2
5.5,5.442569868,23,3,3,3,0,-1116.0,3.55,-3.28,-1.96,0.42,-1.96,-1.52,27.375,20.0,623.75,0.49371337890625,0.56866455078125,-0.24853515625,0.0305,-14.1875,7.375,-57.5,3.12,-1.31,climb_up,2
5.51,5.442569868,23,3,3,3,0,-1350.0,3.58,-2.42,-4.32,0.42,-1.03,-1.56,47.9375,19.5625,622.1875,0.4952392578125,0.570556640625,-0.2449951171875,0.0305,-14.1875,7.375,-57.3125,3.16,-1.38,climb_up,2
5.52,5.457630089,23,3,3,3,0,-1440.0,3.45,-2.3,-5.25,0.26,-0.84,-2.61,48.75,18.9375,620.8125,0.496337890625,0.57269287109375,-0.24102783203125,0.0305,-14.1875,7.375,-57.1875,3.19,-1.45,climb_up,2
5.53,5.457630089,23,3,3,3,0,-1511.0,3.36,-2.53,-5.98,0.13,-1.04,-4.64,30.5625,20.75,621.0,0.4964599609375,0.57403564453125,-0.2371826171875,0.0305,-14.1875,7.375,-57.0625,3.23,-1.49,climb_up,2
5.54,5.472004275,23,3,3,3,0,-1622.0,3.26,-2.87,-7.1,-0.02,-1.4,-5.88,0.6875,25.1875,623.125,0.49578857421875,0.57373046875,-0.23394775390625,0.0305,-14.1875,7.375,-57.0,3.28,-1.47,climb_up,2
5.55,5.472004275,23,3,3,3,0,-1851.0,3.52,-3.7,-9.4,0.18,-2.29,-6.24,-24.4375,25.9375,626.625,0.49456787109375,0.57208251953125,-0.231689453125,0.0308,-13.5625,8.0625,-56.9375,3.33,-1.4,climb_up,2
5.56,5.501870364,23,3,3,3,0,-1734.0,3.51,-4.0,-8.23,0.13,-2.66,-4.9,-29.6875,22.25,629.9375,0.493408203125,0.5701904296875,-0.230224609375,0.0308,-13.5625,8.0625,-56.875,3.37,-1.34,climb_up,2
5.57,5.501870364,23,3,3,3,0,-1559.0,3.28,-3.99,-6.49,-0.12,-2.67,-2.74,-14.5625,19.1875,631.8125,0.4931640625,0.56890869140625,-0.22900390625,0.0308,-13.5625,8.0625,-56.8125,3.41,-1.31,climb_up,2
5.58,5.517300418,23,3,3,3,0,-1396.0,3.24,-3.66,-4.87,-0.19,-2.35,-1.22,1.8125,18.9375,632.4375,0.49371337890625,0.568359375,-0.2275390625,0.0308,-13.5625,8.0625,-56.75,3.44,-1.31,climb_up,2
5.59,5.517300418,23,3,3,3,0,-1211.0,3.62,-3.13,-3.04,0.14,-1.81,-0.71,9.4375,20.3125,632.5625,0.49468994140625,0.568115234375,-0.225830078125,0.0308,-13.5625,8.0625,-56.6875,3.47,-1.32,climb_up,2
5.6,5.532173668,23,3,3,3,0,-1179.0,3.74,-2.6,-2.74,0.23,-1.26,-0.74,13.9375,22.0625,632.4375,0.49578857421875,0.5679931640625,-0.2237548828125,0.0311,-14.25,8.5,-56.5625,3.51,-1.34,climb_up,2
5.61,5.532173668,23,3,3,3,0,-1169.0,3.89,-2.06,-2.65,0.34,-0.68,-0.64,23.1875,23.0,631.9375,0.4971923828125,0.568359375,-0.22137451171875,0.0311,-14.25,8.5,-56.4375,3.54,-1.37,climb_up,2
5.62,5.577386518,23,3,3,3,0,-1160.0,4.13,-1.43,-2.59,0.54,-0.01,-0.32,32.3125,22.8125,630.8125,0.498779296875,0.56915283203125,-0.2186279296875,0.0311,-14.25,8.5,-56.3125,3.58,-1.42,climb_up,2
5.63,5.577386518,23,3,3,3,0,-1149.0,5.09,-0.31,-2.5,1.47,1.16,-0.03,36.875,22.5625,629.3125,0.5006103515625,0.5701904296875,-0.2158203125,0.0311,-14.25,8.5,-56.1875,3.62,-1.48,climb_up,2
5.64,5.580417931,23,3,3,3,0,-1176.0,5.72,0.05,-2.79,2.06,1.59,0.0,36.0,22.875,627.9375,0.50244140625,0.57110595703125,-0.2130126953125,0.0311,-14.25,8.5,-56.0,3.65,-1.54,climb_up,2
5.65,5.580417931,23,3,3,3,0,-1201.0,6.34,0.11,-3.07,2.65,1.7,0.02,31.1875,23.4375,626.75,0.504150390625,0.57177734375,-0.21038818359375,0.0318,-12.5625,9.5625,-55.875,3.69,-1.59,climb_up,2
5.66,5.591628828,23,3,3,3,0,-1219.0,7.39,-0.12,-3.26,3.66,1.5,0.07,23.75,23.5,626.0,0.50579833984375,0.572021484375,-0.2081298828125,0.0318,-12.5625,9.5625,-55.75,3.72,-1.62,climb_up,2
5.67,5.591628828,23,3,3,3,0,-1192.0,7.85,-0.36,-3.02,4.09,1.28,-0.3,16.5625,21.875,625.625,0.507080078125,0.57196044921875,-0.20611572265625,0.0318,-12.5625,9.5625,-55.625,3.76,-1.65,climb_up,2
5.68,5.623257083,23,3,3,3,0,-1142.0,8.08,-0.49,-2.54,4.28,1.16,-0.83,10.0625,19.0,625.6875,0.5079345703125,0.57177734375,-0.20440673828125,0.0318,-12.5625,9.5625,-55.5,3.79,-1.66,climb_up,2
5.69,5.623257083,23,3,3,3,0,-1088.0,7.88,-0.49,-2.01,4.05,1.17,-1.29,5.625,15.375,626.0,0.50836181640625,0.571533203125,-0.20294189453125,0.0318,-12.5625,9.5625,-55.4375,3.82,-1.66,climb_up,2
5.7,5.653016279,23,3,3,3,0,-1006.0,6.57,-0.46,-1.19,2.73,1.2,-1.47,7.3125,11.0,626.25,0.508544921875,0.57159423828125,-0.2015380859375,0.0326,-13.25,14.25,-55.375,3.84,-1.67,climb_up,2
5.71,5.653016279,23,3,3,3,0,-955.0,6.0,-0.61,-0.69,2.15,1.06,-1.0,12.6875,6.5625,626.0,0.5087890625,0.57208251953125,-0.2003173828125,0.0326,-13.25,14.25,-55.3125,3.85,-1.68,climb_up,2
5.72,5.656253258,23,3,3,3,0,-955.0,6.0,-0.61,-0.69,2.15,1.06,-1.0,12.6875,6.5625,626.0,0.5087890625,0.57208251953125,-0.2003173828125,0.0326,-13.25,14.25,-55.3125,3.85,-1.68,climb_up,2
5.72,5.656253258,23,3,3,3,0,-896.0,5.54,-0.65,-0.11,1.69,1.05,0.5,16.125,1.5625,625.0625,0.50927734375,0.57281494140625,-0.19970703125,0.0326,-13.25,14.25,-55.3125,3.85,-1.71,climb_up,2
5.73,5.666778852,23,3,3,3,0,-832.0,5.26,-0.48,0.52,1.42,1.26,2.63,18.3125,-2.625,623.375,0.5103759765625,0.5736083984375,-0.1998291015625,0.0326,-13.25,14.25,-55.25,3.84,-1.75,climb_up,2
5.74,5.666778852,23,3,3,3,0,-732.0,5.02,-0.11,1.52,1.19,1.68,4.55,20.0625,-5.875,620.9375,0.51190185546875,0.574462890625,-0.20068359375,0.0326,-13.25,14.25,-55.25,3.82,-1.8,climb_up,2
5.75,5.682962446,23,3,3,3,0,-699.0,4.9,0.12,1.85,1.1,1.98,6.03,19.3125,-8.125,618.0625,0.51385498046875,0.5751953125,-0.2021484375,0.0322,-11.1875,15.375,-55.25,3.8,-1.86,climb_up,2
5.76,5.682962446,23,3,3,3,0,-679.0,4.83,0.3,2.05,1.06,2.21,6.85,14.25,-8.875,615.1875,0.515869140625,0.5755615234375,-0.2041015625,0.0322,-11.1875,15.375,-55.25,3.77,-1.91,climb_up,2
5.77,5.712388472,23,3,3,3,0,-679.0,4.8,0.41,2.05,1.05,2.36,7.11,3.875,-8.125,612.8125,0.51788330078125,0.5753173828125,-0.20660400390625,0.0322,-11.1875,15.375,-55.3125,3.74,-1.94,climb_up,2
5.78,5.712388472,23,3,3,3,0,-684.0,4.73,0.28,2.01,1.01,2.24,6.88,-10.5,-5.75,611.25,0.5196533203125,0.57421875,-0.20953369140625,0.0322,-11.1875,15.375,-55.3125,3.72,-1.95,climb_up,2
5.79,5.727542484,23,3,3,3,0,-687.0,4.74,-0.09,1.99,1.04,1.84,6.23,-26.25,-2.625,610.75,0.52105712890625,0.572265625,-0.2127685546875,0.0322,-11.1875,15.375,-55.375,3.7,-1.94,climb_up,2
5.8,5.727542484,23,3,3,3,0,-694.0,4.71,-0.69,1.93,1.01,1.2,5.34,-43.125,0.4375,611.375,0.52197265625,0.56939697265625,-0.2164306640625,0.0325,-11.1875,15.75,-55.5,3.69,-1.89,climb_up,2
5.81,5.742489871,23,3,3,3,0,-739.0,4.72,-1.94,1.5,1.02,-0.11,4.74,-55.9375,3.6875,612.9375,0.52264404296875,0.56573486328125,-0.22021484375,0.0325,-11.1875,15.75,-55.5625,3.69,-1.82,climb_up,2
5.82,5.742489871,23,3,3,3,0,-759.0,4.58,-2.59,1.31,0.89,-0.84,4.05,-60.9375,6.3125,614.9375,0.52313232421875,0.561767578125,-0.22393798828125,0.0325,-11.1875,15.75,-55.6875,3.69,-1.74,climb_up,2
5.83,5.774538374,23,3,3,3,0,-776.0,4.29,-2.87,1.16,0.59,-1.19,3.95,-55.625,7.5,616.75,0.523681640625,0.5579833984375,-0.22723388671875,0.0325,-11.1875,15.75,-55.75,3.69,-1.67,climb_up,2
5.84,5.774538374,23,3,3,3,0,-777.0,4.02,-2.82,1.15,0.31,-1.19,4.35,-42.625,7.1875,617.75,0.52459716796875,0.55487060546875,-0.23016357421875,0.0325,-11.1875,15.75,-55.8125,3.7,-1.62,climb_up,2
5.85,5.787375044,23,3,3,3,0,-720.0,3.48,-2.27,1.73,-0.21,-0.67,4.89,-28.3125,5.3125,617.875,0.52593994140625,0.552490234375,-0.23260498046875,0.0347,-9.1875,15.375,-55.8125,3.7,-1.6,climb_up,2
5.86,5.787375044,23,3,3,3,0,-682.0,3.17,-1.96,2.11,-0.52,-0.37,5.4,-19.375,3.4375,617.3125,0.5274658203125,0.55059814453125,-0.23492431640625,0.0347,-9.1875,15.375,-55.875,3.69,-1.59,climb_up,2
5.87,5.801858931,23,3,3,3,0,-646.0,2.89,-1.65,2.47,-0.8,-0.06,5.46,-16.125,1.0,616.5,0.52899169921875,0.54901123046875,-0.23724365234375,0.0347,-9.1875,15.375,-55.875,3.69,-1.59,climb_up,2
5.88,5.801858931,23,3,3,3,0,-609.0,2.57,-1.47,2.85,-1.11,0.11,5.14,-16.875,-1.1875,615.8125,0.5302734375,0.5474853515625,-0.2396240234375,0.0347,-9.1875,15.375,-55.875,3.68,-1.58,climb_up,2
5.89,5.831707401,23,3,3,3,0,-526.0,2.15,-1.18,3.69,-1.51,0.38,4.71,-19.5,-3.625,615.3125,0.53125,0.5460205078125,-0.24212646484375,0.0347,-9.1875,15.375,-55.9375,3.66,-1.57,climb_up,2
5.9,5.831707401,23,3,3,3,0,-492.0,2.01,-1.18,4.03,-1.63,0.37,4.2,-21.75,-6.25,615.0,0.5318603515625,0.5445556640625,-0.24468994140625,0.0337,-9.1875,14.5625,-56.0,3.65,-1.55,climb_up,2
5.91,5.846587283,23,3,3,3,0,-462.0,1.93,-1.17,4.35,-1.69,0.36,4.03,-24.0,-8.125,614.75,0.53228759765625,0.54315185546875,-0.2474365234375,0.0337,-9.1875,14.5625,-56.0625,3.63,-1.53,climb_up,2
5.92,5.846587283,23,3,3,3,0,-437.0,1.8,-1.18,4.61,-1.8,0.32,4.09,-25.625,-10.0,614.5625,0.5325927734375,0.54168701171875,-0.2503662109375,0.0337,-9.1875,14.5625,-56.1875,3.6,-1.51,climb_up,2
5.93,5.862616418,23,3,3,3,0,-385.0,1.68,-1.07,5.14,-1.9,0.4,3.96,-25.9375,-11.1875,614.4375,0.5328369140625,0.540283203125,-0.2532958984375,0.0337,-9.1875,14.5625,-56.25,3.58,-1.48,climb_up,2
5.94,5.862616418,23,3,3,3,0,-386.0,1.68,-1.0,5.15,-1.87,0.45,3.95,-25.0625,-12.1875,614.1875,0.532958984375,0.53900146484375,-0.2562255859375,0.0337,-9.1875,14.5625,-56.3125,3.56,-1.46,climb_up,2
5.95,5.892919844,23,3,3,3,0,-392.0,1.66,-0.92,5.1,-1.87,0.51,4.05,-24.1875,-12.3125,613.875,0.533203125,0.5377197265625,-0.25921630859375,0.0337,-9.375,15.75,-56.4375,3.53,-1.44,climb_up,2
5.96,5.892919844,23,3,3,3,0,-402.0,1.66,-0.95,5.02,-1.84,0.46,4.27,-22.6875,-12.625,613.375,0.53350830078125,0.5364990234375,-0.26214599609375,0.0337,-9.375,15.75,-56.5,3.5,-1.42,climb_up,2
5.97,5.906680667,23,3,3,3,0,-442.0,1.71,-0.88,4.63,-1.76,0.51,4.3,-22.5,-13.25,612.875,0.53375244140625,0.53533935546875,-0.26513671875,0.0337,-9.375,15.75,-56.5625,3.48,-1.4,climb_up,2
5.98,5.906680667,23,3,3,3,0,-442.0,1.71,-0.88,4.63,-1.76,0.51,4.3,-22.5,-13.25,612.875,0.53375244140625,0.53533935546875,-0.26513671875,0.0337,-9.375,15.75,-56.5625,3.48,-1.4,climb_up,2
5.98,5.92209123,23,3,3,3,0,-466.0,1.69,-1.0,4.4,-1.75,0.37,4.3,-22.4375,-13.6875,612.375,0.53399658203125,0.5341796875,-0.2681884765625,0.0337,-9.375,15.75,-56.6875,3.45,-1.38,climb_up,2
5.99,5.92209123,23,3,3,3,0,-499.0,1.63,-0.77,4.08,-1.78,0.58,3.96,-20.0,-14.3125,611.75,0.5341796875,0.533203125,-0.27099609375,0.0337,-9.375,15.75,-56.75,3.42,-1.36,climb_up,2
6.0,5.942046634,23,3,3,3,0,-574.0,1.93,-1.03,3.35,-1.46,0.31,3.38,-17.5625,-14.4375,611.25,0.5341796875,0.532470703125,-0.27349853515625,0.0344,-9.375,13.0625,-56.8125,3.39,-1.35,climb_up,2
6.01,5.942046634,23,3,3,3,0,-635.0,2.03,-1.16,2.75,-1.33,0.17,3.59,-17.5,-13.4375,610.6875,0.5343017578125,0.5316162109375,-0.27606201171875,0.0344,-9.375,13.0625,-56.9375,3.37,-1.33,climb_up,2
6.02,5.96770915,23,3,3,3,0,-700.0,2.27,-1.37,2.11,-1.06,-0.04,3.78,-17.6875,-12.5,610.125,0.5345458984375,0.53070068359375,-0.27862548828125,0.0344,-9.375,13.0625,-57.0,3.34,-1.32,climb_up,2
6.03,5.96770915,23,3,3,3,0,-757.0,2.54,-1.81,1.56,-0.77,-0.5,4.2,-18.625,-11.0625,609.4375,0.53497314453125,0.52960205078125,-0.28131103515625,0.0344,-9.375,13.0625,-57.0625,3.32,-1.3,climb_up,2
6.04,5.982296838,23,3,3,3,0,-908.0,3.17,-2.61,0.05,-0.12,-1.31,4.42,-17.5625,-10.625,608.6875,0.53546142578125,0.52850341796875,-0.283935546875,0.0344,-9.375,13.0625,-57.125,3.29,-1.29,climb_up,2
6.05,5.982296838,23,3,3,3,0,-979.0,3.7,-3.2,-0.63,0.42,-1.91,4.56,-16.6875,-10.5625,607.875,0.53607177734375,0.52740478515625,-0.28656005859375,0.0333,-9.75,13.5,-57.1875,3.27,-1.28,climb_up,2
6.06,5.996866458,23,3,3,3,0,-1080.0,4.07,-3.73,-1.64,0.82,-2.45,4.44,-13.625,-10.875,606.875,0.53662109375,0.5264892578125,-0.2890625,0.0333,-9.75,13.5,-57.25,3.25,-1.27,climb_up,2
6.07,5.996866458,23,3,3,3,0,-1166.0,4.48,-4.24,-2.49,1.25,-2.96,3.86,-9.9375,-12.8125,605.875,0.53704833984375,0.5260009765625,-0.291259765625,0.0333,-9.75,13.5,-57.3125,3.22,-1.27,climb_up,2
6.08,6.027632531,23,3,3,3,0,-1348.0,5.73,-5.23,-4.3,2.53,-3.95,3.25,-4.9375,-13.875,604.75,0.537353515625,0.52587890625,-0.29315185546875,0.0333,-9.75,13.5,-57.375,3.2,-1.28,climb_up,2
6.09,6.027632531,23,3,3,3,0,-1462.0,6.36,-5.32,-5.43,3.18,-4.02,2.32,2.75,-15.5,603.5,0.5374755859375,0.5263671875,-0.29443359375,0.0333,-9.75,13.5,-57.375,3.17,-1.29,climb_up,2
6.1,6.042263553,23,3,3,3,0,-1572.0,6.77,-5.14,-6.52,3.63,-3.82,1.65,12.1875,-19.125,601.9375,0.5374755859375,0.52764892578125,-0.29534912109375,0.0329,-10.5625,14.5625,-57.4375,3.14,-1.31,climb_up,2
6.11,6.042263553,23,3,3,3,0,-1648.0,7.06,-4.93,-7.27,3.96,-3.58,1.76,14.4375,-23.75,600.0625,0.53729248046875,0.5291748046875,-0.29632568359375,0.0329,-10.5625,14.5625,-57.5,3.09,-1.34,climb_up,2
6.12,6.057081709,23,3,3,3,0,-1606.0,6.89,-4.31,-6.84,3.84,-2.93,2.34,9.625,-28.75,598.125,0.5369873046875,0.5306396484375,-0.29803466796875,0.0329,-10.5625,14.5625,-57.5625,3.05,-1.37,climb_up,2
6.13,6.057081709,23,3,3,3,0,-1543.0,6.25,-4.1,-6.2,3.26,-2.71,3.12,4.1875,-34.5,596.0625,0.5364990234375,0.531982421875,-0.30047607421875,0.0329,-10.5625,14.5625,-57.6875,2.99,-1.38,climb_up,2
6.14,6.087926598,23,3,3,3,0,-1510.0,5.64,-4.01,-5.84,2.72,-2.61,3.84,0.0625,-39.875,593.875,0.535888671875,0.533203125,-0.3035888671875,0.0329,-10.5625,14.5625,-57.8125,2.92,-1.4,climb_up,2
6.15,6.087926598,23,3,3,3,0,-1378.0,5.34,-3.98,-4.5,2.5,-2.56,4.69,-2.75,-44.25,591.375,0.5352783203125,0.53436279296875,-0.30731201171875,0.0316,-10.75,15.25,-57.9375,2.84,-1.41,climb_up,2
6.16,6.101866377,23,3,3,3,0,-1329.0,5.46,-3.54,-3.99,2.7,-2.11,5.15,0.375,-47.8125,588.5,0.53466796875,0.53570556640625,-0.3111572265625,0.0316,-10.75,15.25,-58.125,2.75,-1.42,climb_up,2
6.17,6.101866377,23,3,3,3,0,-1309.0,5.33,-2.91,-3.77,2.66,-1.46,5.27,6.75,-49.0,585.1875,0.53424072265625,0.5374755859375,-0.3148193359375,0.0316,-10.75,15.25,-58.25,2.66,-1.45,climb_up,2
6.18,6.117089522,23,3,3,3,0,-1306.0,5.01,-2.38,-3.72,2.43,-0.88,5.24,12.4375,-46.9375,581.6875,0.5340576171875,0.53936767578125,-0.318115234375,0.0316,-10.75,15.25,-58.375,2.58,-1.49,climb_up,2
6.19,6.117089522,23,3,3,3,0,-1329.0,3.98,-1.96,-3.93,1.47,-0.42,4.89,17.75,-43.1875,578.125,0.53399658203125,0.5413818359375,-0.32086181640625,0.0316,-10.75,15.25,-58.4375,2.5,-1.53,climb_up,2
6.2,6.14738953,23,3,3,3,0,-1323.0,3.16,-1.46,-3.86,0.73,0.11,3.79,23.0625,-40.0625,574.75,0.533935546875,0.54376220703125,-0.32281494140625,0.0323,-10.5,15.6875,-58.5,2.43,-1.58,climb_up,2
6.21,6.14738953,23,3,3,3,0,-1307.0,2.32,-0.82,-3.7,-0.04,0.8,2.04,26.6875,-36.1875,571.75,0.53363037109375,0.54638671875,-0.32391357421875,0.0323,-10.5,15.6875,-58.5625,2.37,-1.63,climb_up,2
6.22,6.162679121,23,3,3,3,0,-1282.0,1.36,-0.29,-3.44,-0.95,1.37,0.84,25.375,-31.6875,569.375,0.53314208984375,0.5489501953125,-0.32452392578125,0.0323,-10.5,15.6875,-58.5625,2.31,-1.67,climb_up,2
6.23,6.162679121,23,3,3,3,0,-1201.0,0.11,0.38,-2.63,-2.16,2.1,0.42,21.375,-26.5,567.4375,0.5325927734375,0.5511474609375,-0.32489013671875,0.0323,-10.5,15.6875,-58.625,2.27,-1.71,climb_up,2
6.24,6.177315759,23,3,3,3,0,-1201.0,0.11,0.38,-2.63,-2.16,2.1,0.42,21.375,-26.5,567.4375,0.5325927734375,0.5511474609375,-0.32489013671875,0.0323,-10.5,15.6875,-58.625,2.27,-1.71,climb_up,2
6.24,6.177315759,23,3,3,3,0,-1116.0,-0.14,0.7,-1.77,-2.38,2.45,-0.27,19.125,-22.25,565.875,0.531982421875,0.5531005859375,-0.32501220703125,0.0323,-10.5,15.6875,-58.625,2.24,-1.74,climb_up,2
6.25,6.192381188,23,3,3,3,0,-1029.0,-0.24,1.01,-0.9,-2.45,2.79,-1.71,18.75,-19.5,564.875,0.53106689453125,0.55523681640625,-0.32452392578125,0.0306,-11.6875,18.0,-58.625,2.21,-1.77,climb_up,2
6.26,6.192381188,23,3,3,3,0,-960.0,-0.33,1.2,-0.21,-2.52,3.0,-3.47,17.9375,-17.5625,564.5,0.52972412109375,0.55755615234375,-0.323486328125,0.0306,-11.6875,18.0,-58.625,2.19,-1.79,climb_up,2
6.27,6.207453942,23,3,3,3,0,-866.0,-0.57,1.43,0.72,-2.74,3.25,-4.91,17.5625,-16.6875,564.625,0.52789306640625,0.55999755859375,-0.32196044921875,0.0306,-11.6875,18.0,-58.6875,2.17,-1.81,climb_up,2
6.28,6.207453942,23,3,3,3,0,-838.0,-0.47,1.35,1.0,-2.63,3.17,-6.12,18.3125,-16.5,565.0,0.5257568359375,0.562744140625,-0.320068359375,0.0306,-11.6875,18.0,-58.6875,2.15,-1.82,climb_up,2
6.29,6.221693973,23,3,3,3,0,-839.0,-0.26,1.26,0.99,-2.41,3.1,-7.09,18.9375,-15.4375,565.6875,0.5234375,0.56561279296875,-0.3177490234375,0.0306,-11.6875,18.0,-58.6875,2.14,-1.84,climb_up,2
6.3,6.221693973,23,3,3,3,0,-886.0,0.23,1.31,0.52,-1.9,3.17,-7.61,19.5,-13.3125,566.5625,0.52099609375,0.5684814453125,-0.31512451171875,0.0316,-12.0,18.0,-58.625,2.13,-1.85,climb_up,2
6.31,6.25164486,23,3,3,3,0,-938.0,0.58,1.37,0.0,-1.55,3.24,-7.46,21.375,-10.0625,567.3125,0.51885986328125,0.57122802734375,-0.31231689453125,0.0316,-12.0,18.0,-58.625,2.13,-1.87,climb_up,2
6.32,6.25164486,23,3,3,3,0,-946.0,0.79,1.09,-0.08,-1.34,2.99,-7.02,21.375,-8.5625,568.0625,0.516845703125,0.5738525390625,-0.3095703125,0.0316,-12.0,18.0,-58.625,2.13,-1.89,climb_up,2
6.33,6.266757165,23,3,3,3,0,-912.0,0.97,0.75,0.25,-1.16,2.65,-6.41,14.5625,-7.1875,568.9375,0.51495361328125,0.575927734375,-0.30731201171875,0.0316,-12.0,18.0,-58.5625,2.14,-1.9,climb_up,2
6.34,6.266757165,23,3,3,3,0,-855.0,1.5,-0.23,0.82,-0.64,1.65,-6.66,3.375,-4.625,570.5625,0.51275634765625,0.57745361328125,-0.3052978515625,0.0316,-12.0,18.0,-58.625,2.14,-1.88,climb_up,2
6.35,6.282013513,23,3,3,3,0,-850.0,1.79,-0.93,0.87,-0.36,0.91,-7.01,-11.6875,-1.5625,573.125,0.51025390625,0.57806396484375,-0.30364990234375,0.0302,-12.0,19.1875,-58.625,2.15,-1.85,climb_up,2
6.36,6.282013513,23,3,3,3,0,-862.0,2.0,-1.71,0.76,-0.16,0.07,-7.52,-27.125,1.0,576.6875,0.50726318359375,0.57794189453125,-0.302490234375,0.0302,-12.0,19.1875,-58.6875,2.17,-1.79,climb_up,2
6.37,6.313236698,23,3,3,3,0,-871.0,2.11,-2.44,0.68,-0.07,-0.73,-8.86,-36.375,2.4375,581.125,0.503662109375,0.5775146484375,-0.3011474609375,0.0302,-12.0,19.1875,-58.75,2.19,-1.71,climb_up,2
6.38,6.313236698,23,3,3,3,0,-891.0,2.02,-3.37,0.5,-0.18,-1.74,-9.9,-33.3125,3.25,585.75,0.4998779296875,0.57733154296875,-0.29937744140625,0.0302,-12.0,19.1875,-58.8125,2.21,-1.63,climb_up,2
6.39,6.327227502,23,3,3,3,0,-865.0,1.8,-3.51,0.75,-0.43,-1.93,-10.07,-17.875,2.875,589.5625,0.49639892578125,0.57794189453125,-0.29681396484375,0.0302,-12.0,19.1875,-58.8125,2.24,-1.57,climb_up,2
6.4,6.327227502,23,3,3,3,0,-807.0,1.61,-3.28,1.34,-0.64,-1.72,-9.28,1.25,2.4375,592.125,0.49365234375,0.57940673828125,-0.293701171875,0.0291,-12.6875,16.875,-58.8125,2.26,-1.55,climb_up,2
6.41,6.356803918,23,3,3,3,0,-748.0,1.59,-2.93,1.91,-0.68,-1.36,-8.33,17.75,2.875,593.5625,0.49163818359375,0.58148193359375,-0.2901611328125,0.0291,-12.6875,16.875,-58.75,2.27,-1.56,climb_up,2
6.42,6.356803918,23,3,3,3,0,-639.0,1.51,-1.96,3.0,-0.78,-0.37,-7.53,28.0,5.3125,594.3125,0.49017333984375,0.5838623046875,-0.28631591796875,0.0291,-12.6875,16.875,-58.6875,2.3,-1.59,climb_up,2
6.43,6.372542199,23,3,3,3,0,-594.0,1.54,-1.56,3.44,-0.78,0.05,-7.33,31.1875,8.0,594.875,0.48907470703125,0.58624267578125,-0.2822265625,0.0291,-12.6875,16.875,-58.625,2.32,-1.62,climb_up,2
6.44,6.372542199,23,3,3,3,0,-543.0,1.4,-1.25,3.93,-0.95,0.39,-7.51,27.9375,10.6875,595.75,0.4879150390625,0.58831787109375,-0.27813720703125,0.0291,-12.6875,16.875,-58.5625,2.35,-1.65,climb_up,2
6.45,6.386556359,23,3,3,3,0,-500.0,1.32,-1.03,4.35,-1.06,0.63,-7.73,22.25,13.25,597.0,0.48663330078125,0.590087890625,-0.27398681640625,0.0292,-12.0625,16.875,-58.5,2.39,-1.66,climb_up,2
6.46,6.386556359,23,3,3,3,0,-445.0,1.18,-0.73,4.89,-1.25,0.93,-7.77,15.625,15.5,598.625,0.4853515625,0.59136962890625,-0.27008056640625,0.0292,-12.0625,16.875,-58.4375,2.43,-1.67,climb_up,2
6.47,6.401586795,23,3,3,3,0,-423.0,1.11,-0.65,5.1,-1.36,1.01,-7.71,10.25,18.0625,600.625,0.48406982421875,0.59228515625,-0.2662353515625,0.0292,-12.0625,16.875,-58.375,2.47,-1.66,climb_up,2
6.48,6.401586795,23,3,3,3,0,-411.0,1.15,-0.69,5.21,-1.36,0.96,-7.65,6.75,20.875,602.8125,0.48284912109375,0.59283447265625,-0.26239013671875,0.0292,-12.0625,16.875,-58.25,2.52,-1.65,climb_up,2
6.49,6.448456465,23,3,3,3,0,-383.0,1.05,-0.69,5.48,-1.52,0.94,-7.45,4.125,23.1875,605.125,0.48175048828125,0.5931396484375,-0.25860595703125,0.0292,-12.0625,16.875,-58.1875,2.57,-1.64,climb_up,2
6.5,6.448456465,23,3,3,3,0,-397.0,1.09,-0.76,5.33,-1.53,0.86,-7.29,1.25,25.1875,607.625,0.480712890625,0.5931396484375,-0.2548828125,0.0281,-12.0625,18.0,-58.125,2.62,-1.62,climb_up,2
6.51,6.451744592,23,3,3,3,0,-426.0,1.23,-0.78,5.02,-1.44,0.81,-7.18,-3.375,26.9375,610.3125,0.47967529296875,0.59283447265625,-0.2513427734375,0.0281,-12.0625,18.0,-58.0625,2.68,-1.6,climb_up,2
6.52,6.451744592,23,3,3,3,0,-426.0,1.23,-0.78,5.02,-1.44,0.81,-7.18,-3.375,26.9375,610.3125,0.47967529296875,0.59283447265625,-0.2513427734375,0.0281,-12.0625,18.0,-58.0625,2.68,-1.6,climb_up,2
6.52,6.462672204,23,3,3,3,0,-458.0,1.37,-0.94,4.7,-1.37,0.62,-7.44,-6.5625,28.1875,613.3125,0.47857666015625,0.59234619140625,-0.24774169921875,0.0281,-12.0625,18.0,-58.0,2.74,-1.56,climb_up,2
6.53,6.462672204,23,3,3,3,0,-530.0,1.59,-1.3,3.96,-1.2,0.22,-7.52,-8.0,28.9375,616.375,0.4774169921875,0.59173583984375,-0.244140625,0.0281,-12.0625,18.0,-57.9375,2.8,-1.53,climb_up,2
6.54,6.47723267,23,3,3,3,0,-578.0,1.62,-1.47,3.47,-1.23,0.02,-7.24,-7.6875,29.0625,619.3125,0.47637939453125,0.591064453125,-0.2406005859375,0.0281,-12.0625,18.0,-57.8125,2.86,-1.49,climb_up,2
6.55,6.47723267,23,3,3,3,0,-625.0,1.79,-1.58,2.99,-1.12,-0.11,-7.04,-3.5,28.8125,622.0,0.4754638671875,0.59063720703125,-0.2369384765625,0.0276,-11.75,18.0,-57.75,2.91,-1.46,climb_up,2
6.56,6.507429854,23,3,3,3,0,-676.0,1.9,-1.56,2.46,-1.06,-0.11,-6.66,5.0625,27.4375,624.0625,0.47479248046875,0.590576171875,-0.233154296875,0.0276,-11.75,18.0,-57.6875,2.97,-1.45,climb_up,2
6.57,6.507429854,23,3,3,3,0,-829.0,2.28,-1.39,0.92,-0.73,0.06,-6.23,14.8125,25.125,625.4375,0.47430419921875,0.59112548828125,-0.22918701171875,0.0276,-11.75,18.0,-57.5625,3.02,-1.45,climb_up,2
6.58,6.523635176,23,3,3,3,0,-902.0,2.32,-1.25,0.17,-0.75,0.22,-5.78,21.375,23.625,626.3125,0.4739990234375,0.592041015625,-0.22515869140625,0.0276,-11.75,18.0,-57.4375,3.07,-1.47,climb_up,2
6.59,6.523635176,23,3,3,3,0,-977.0,2.29,-1.22,-0.59,-0.81,0.26,-5.72,24.5625,22.0625,627.0,0.47369384765625,0.5931396484375,-0.22113037109375,0.0276,-11.75,18.0,-57.3125,3.11,-1.49,climb_up,2
6.6,6.537627933,23,3,3,3,0,-1079.0,2.45,-1.37,-1.63,-0.7,0.13,-6.12,21.875,19.8125,627.8125,0.47314453125,0.59417724609375,-0.2171630859375,0.028,-12.1875,18.0,-57.25,3.15,-1.5,climb_up,2
6.61,6.537627933,23,3,3,3,0,-1214.0,2.95,-2.46,-3.0,-0.23,-0.96,-6.31,11.3125,18.25,629.25,0.47216796875,0.59478759765625,-0.21368408203125,0.028,-12.1875,18.0,-57.125,3.19,-1.5,climb_up,2
6.62,6.567057946,23,3,3,3,0,-1260.0,3.14,-3.24,-3.46,-0.08,-1.77,-6.44,-5.125,18.0,631.5625,0.4708251953125,0.59454345703125,-0.21087646484375,0.028,-12.1875,18.0,-57.0625,3.23,-1.47,climb_up,2
6.63,6.567057946,23,3,3,3,0,-1322.0,3.29,-3.99,-4.09,0.02,-2.57,-6.61,-19.5,18.625,634.6875,0.46923828125,0.593505859375,-0.20855712890625,0.028,-12.1875,18.0,-57.0625,3.27,-1.41,climb_up,2
6.64,6.581984826,23,3,3,3,0,-1450.0,3.8,-4.95,-5.38,0.48,-3.59,-6.8,-23.4375,19.5,638.0625,0.46746826171875,0.5921630859375,-0.20623779296875,0.028,-12.1875,18.0,-57.0,3.31,-1.35,climb_up,2
6.65,6.581984826,23,3,3,3,0,-1466.0,4.03,-4.93,-5.54,0.67,-3.62,-5.7,-20.3125,20.5625,640.9375,0.46624755859375,0.59088134765625,-0.2041015625,0.0278,-10.75,19.75,-57.0,3.35,-1.3,climb_up,2
6.66,6.597478275,23,3,3,3,0,-1434.0,4.08,-4.61,-5.23,0.68,-3.33,-4.05,-9.5,21.3125,642.875,0.46575927734375,0.5899658203125,-0.2020263671875,0.0278,-10.75,19.75,-56.9375,3.39,-1.27,climb_up,2
6.67,6.597478275,23,3,3,3,0,-1378.0,4.28,-4.18,-4.68,0.84,-2.9,-2.51,5.375,22.375,643.625,0.4661865234375,0.58966064453125,-0.19976806640625,0.0278,-10.75,19.75,-56.8125,3.43,-1.27,climb_up,2
6.68,6.627337854,23,3,3,3,0,-1316.0,4.49,-3.3,-4.08,1.02,-2.0,-1.01,15.5,24.6875,643.5,0.46734619140625,0.589599609375,-0.19744873046875,0.0278,-10.75,19.75,-56.6875,3.47,-1.29,climb_up,2
6.69,6.627337854,23,3,3,3,0,-1290.0,4.28,-2.82,-3.84,0.76,-1.49,0.09,19.4375,26.6875,642.9375,0.4691162109375,0.589599609375,-0.19525146484375,0.0278,-10.75,19.75,-56.5625,3.51,-1.32,climb_up,2
6.7,6.642375736,23,3,3,3,0,-1317.0,4.24,-2.3,-4.14,0.67,-0.94,0.34,23.8125,27.5,642.0625,0.47100830078125,0.5897216796875,-0.19287109375,0.0289,-11.5,19.375,-56.4375,3.56,-1.36,climb_up,2
6.71,6.642375736,23,3,3,3,0,-1363.0,4.31,-1.75,-4.62,0.71,-0.34,0.47,28.75,26.0625,640.8125,0.4730224609375,0.5902099609375,-0.1904296875,0.0289,-11.5,19.375,-56.3125,3.6,-1.41,climb_up,2
6.72,6.657130944,23,3,3,3,0,-1365.0,4.97,-0.98,-4.66,1.34,0.48,0.88,32.9375,23.75,639.25,0.47509765625,0.5909423828125,-0.1881103515625,0.0289,-11.5,19.375,-56.125,3.63,-1.46,climb_up,2
6.73,6.657130944,23,3,3,3,0,-1344.0,5.57,-0.72,-4.47,1.9,0.8,1.33,34.0,22.0,637.4375,0.47723388671875,0.59173583984375,-0.1859130859375,0.0289,-11.5,19.375,-56.0,3.66,-1.52,climb_up,2
6.74,6.687260949,23,3,3,3,0,-1309.0,6.19,-0.56,-4.14,2.5,1.01,1.44,28.8125,20.9375,635.875,0.479248046875,0.59228515625,-0.18402099609375,0.0289,-11.5,19.375,-55.875,3.69,-1.57,climb_up,2
6.75,6.687260949,23,3,3,3,0,-1254.0,6.87,-0.43,-3.61,3.14,1.17,1.12,18.8125,19.75,634.875,0.48095703125,0.5924072265625,-0.18255615234375,0.029,-9.5,20.5625,-55.75,3.72,-1.61,climb_up,2
6.76,6.702246545,23,3,3,3,0,-1100.0,7.64,-0.56,-2.09,3.88,1.06,0.25,7.375,18.6875,634.6875,0.48211669921875,0.59197998046875,-0.18133544921875,0.029,-9.5,20.5625,-55.6875,3.75,-1.62,climb_up,2
6.77,6.702246545,23,3,3,3,0,-1047.0,7.4,-0.71,-1.57,3.62,0.9,-0.91,-0.0625,17.375,635.25,0.48272705078125,0.59136962890625,-0.18011474609375,0.029,-9.5,20.5625,-55.625,3.78,-1.62,climb_up,2
6.78,6.716833785,23,3,3,3,0,-1014.0,6.78,-0.82,-1.25,2.97,0.79,-1.76,-2.375,15.3125,636.0625,0.48284912109375,0.59075927734375,-0.17877197265625,0.029,-9.5,20.5625,-55.5625,3.81,-1.61,climb_up,2
6.79,6.716833785,23,3,3,3,0,-1014.0,6.78,-0.82,-1.25,2.97,0.79,-1.76,-2.375,15.3125,636.0625,0.48284912109375,0.59075927734375,-0.17877197265625,0.029,-9.5,20.5625,-55.5625,3.81,-1.61,climb_up,2
6.79,6.731356327,23,3,3,3,0,-926.0,5.82,-0.95,-0.37,1.98,0.64,-1.81,0.0625,11.625,636.75,0.48284912109375,0.5904541015625,-0.1776123046875,0.029,-9.5,20.5625,-55.5,3.83,-1.6,climb_up,2
6.8,6.731356327,23,3,3,3,0,-867.0,5.49,-0.87,0.2,1.65,0.73,-0.88,5.125,6.75,636.8125,0.48297119140625,0.590576171875,-0.17669677734375,0.0272,-9.5,22.0625,-55.4375,3.84,-1.6,climb_up,2
6.81,6.748448368,23,3,3,3,0,-803.0,5.27,-0.65,0.83,1.43,0.97,0.92,11.9375,1.4375,635.9375,0.48358154296875,0.591064453125,-0.17645263671875,0.0272,-9.5,22.0625,-55.4375,3.84,-1.63,climb_up,2
6.82,6.748448368,23,3,3,3,0,-756.0,5.25,-0.36,1.3,1.42,1.31,2.86,20.0625,-4.125,634.0625,0.484619140625,0.592041015625,-0.1767578125,0.0272,-9.5,22.0625,-55.375,3.83,-1.67,climb_up,2
6.83,6.777030033,23,3,3,3,0,-680.0,5.57,0.42,2.05,1.76,2.16,4.8,25.375,-8.875,631.25,0.48614501953125,0.59332275390625,-0.17767333984375,0.0272,-9.5,22.0625,-55.375,3.81,-1.73,climb_up,2
6.84,6.777030033,23,3,3,3,0,-670.0,5.83,0.81,2.15,2.05,2.61,6.47,26.125,-12.5625,627.9375,0.48809814453125,0.5946044921875,-0.1793212890625,0.0272,-9.5,22.0625,-55.375,3.77,-1.8,climb_up,2
6.85,6.792164921,23,3,3,3,0,-688.0,6.08,1.08,1.98,2.34,2.95,7.61,21.8125,-14.3125,624.4375,0.490234375,0.59564208984375,-0.181640625,0.0284,-8.6875,22.0625,-55.4375,3.74,-1.86,climb_up,2
6.86,6.792164921,23,3,3,3,0,-704.0,6.26,1.22,1.82,2.56,3.14,8.17,12.6875,-14.1875,621.3125,0.492431640625,0.59613037109375,-0.18450927734375,0.0284,-8.6875,22.0625,-55.4375,3.7,-1.91,climb_up,2
6.87,6.808086267,23,3,3,3,0,-712.0,6.24,0.97,1.75,2.58,2.92,8.13,-2.125,-12.125,619.0,0.49444580078125,0.595703125,-0.1878662109375,0.0284,-8.6875,22.0625,-55.5,3.66,-1.94,climb_up,2
6.88,6.808086267,23,3,3,3,0,-697.0,6.09,0.5,1.92,2.46,2.44,7.4,-22.0,-9.0,618.0,0.49603271484375,0.5941162109375,-0.19171142578125,0.0284,-8.6875,22.0625,-55.5625,3.63,-1.94,climb_up,2
6.89,6.837963912,23,3,3,3,0,-707.0,6.03,-0.27,1.84,2.41,1.62,6.4,-45.875,-3.875,618.5625,0.4971923828125,0.5911865234375,-0.19598388671875,0.0284,-8.6875,22.0625,-55.6875,3.61,-1.89,climb_up,2
6.9,6.837963912,23,3,3,3,0,-757.0,6.06,-1.33,1.36,2.45,0.47,5.19,-69.875,2.25,620.875,0.497802734375,0.58685302734375,-0.20050048828125,0.0288,-7.5625,22.5,-55.8125,3.61,-1.8,climb_up,2
6.91,6.852870731,23,3,3,3,0,-931.0,5.61,-4.36,-0.35,2.0,-2.67,3.92,-88.875,6.9375,624.5625,0.49786376953125,0.58135986328125,-0.20526123046875,0.0288,-7.5625,22.5,-55.9375,3.61,-1.68,climb_up,2
6.92,6.852870731,23,3,3,3,0,-990.0,5.16,-5.07,-0.92,1.54,-3.52,3.83,-94.0625,8.5625,628.5,0.4979248046875,0.57550048828125,-0.2100830078125,0.0288,-7.5625,22.5,-56.0625,3.62,-1.55,climb_up,2
6.93,6.866847212,23,3,3,3,0,-991.0,4.77,-5.41,-0.91,1.15,-3.95,5.36,-69.5625,5.375,630.6875,0.49871826171875,0.5709228515625,-0.2144775390625,0.0288,-7.5625,22.5,-56.1875,3.62,-1.46,climb_up,2
6.94,6.866847212,23,3,3,3,0,-889.0,4.31,-4.18,0.11,0.7,-2.73,8.23,-29.375,-0.625,629.875,0.5008544921875,0.568359375,-0.21832275390625,0.0288,-7.5625,22.5,-56.25,3.6,-1.45,climb_up,2
6.95,6.897412072,23,3,3,3,0,-814.0,4.09,-3.09,0.86,0.5,-1.6,10.69,1.875,-5.8125,626.6875,0.50421142578125,0.56744384765625,-0.22186279296875,0.029,-7.0625,19.75,-56.25,3.58,-1.49,climb_up,2
6.96,6.897412072,23,3,3,3,0,-740.0,3.98,-2.27,1.6,0.43,-0.71,11.96,14.8125,-8.5625,622.4375,0.508056640625,0.567138671875,-0.225341796875,0.029,-7.0625,19.75,-56.25,3.55,-1.56,climb_up,2
6.97,6.912362675,23,3,3,3,0,-689.0,3.74,-1.57,2.11,0.22,0.05,12.34,12.25,-9.375,618.0625,0.51190185546875,0.566650390625,-0.22906494140625,0.029,-7.0625,19.75,-56.25,3.51,-1.63,climb_up,2
6.98,6.912362675,23,3,3,3,0,-583.0,3.24,-0.9,3.17,-0.23,0.77,11.61,1.1875,-9.375,614.5,0.51531982421875,0.565673828125,-0.23309326171875,0.029,-7.0625,19.75,-56.3125,3.47,-1.67,climb_up,2
6.99,6.926888106,23,3,3,3,0,-536.0,2.94,-0.85,3.65,-0.49,0.84,10.36,-13.0625,-9.0625,612.0,0.51800537109375,0.5640869140625,-0.2373046875,0.029,-7.0625,19.75,-56.375,3.44,-1.69,climb_up,2
7.01,6.926888106,23,3,3,3,0,-498.0,2.64,-0.93,4.05,-0.77,0.75,9.41,-27.0625,-8.4375,610.4375,0.52008056640625,0.56182861328125,-0.24188232421875,0.029,-6.375,21.6875,-56.4375,3.41,-1.68,climb_up,2
7.02,6.958167728,23,3,3,3,0,-459.0,2.32,-0.95,4.45,-1.06,0.7,8.99,-36.9375,-8.4375,609.5,0.5218505859375,0.55908203125,-0.2467041015625,0.029,-6.375,21.6875,-56.5625,3.38,-1.66,climb_up,2
7.02,6.958167728,23,3,3,3,0,-397.0,1.95,-0.87,5.09,-1.4,0.75,8.44,-42.125,-6.9375,609.0,0.5233154296875,0.5560302734375,-0.25152587890625,0.029,-6.375,21.6875,-56.625,3.36,-1.62,climb_up,2
7.03,6.973042566,23,3,3,3,0,-402.0,1.83,-0.76,5.06,-1.5,0.81,7.99,-44.9375,-5.5625,608.75,0.524658203125,0.5528564453125,-0.25628662109375,0.029,-6.375,21.6875,-56.75,3.33,-1.58,climb_up,2
7.04,6.973042566,23,3,3,3,0,-404.0,1.77,-0.63,5.05,-1.54,0.9,7.6,-48.9375,-4.8125,608.8125,0.52581787109375,0.5494384765625,-0.26104736328125,0.029,-6.375,21.6875,-56.8125,3.31,-1.53,climb_up,2
7.05,6.987026737,23,3,3,3,0,-407.0,1.67,-0.6,5.03,-1.62,0.87,7.32,-52.125,-3.9375,609.125,0.52679443359375,0.54583740234375,-0.26580810546875,0.0282,-6.6875,21.6875,-56.9375,3.3,-1.48,climb_up,2
7.06,6.987026737,23,3,3,3,0,-433.0,1.51,-0.64,4.79,-1.77,0.77,7.02,-54.0625,-3.1875,609.625,0.5277099609375,0.54217529296875,-0.2705078125,0.0282,-6.6875,21.6875,-57.0625,3.28,-1.41,climb_up,2
7.07,7.012409468,23,3,3,3,0,-478.0,1.37,-0.64,4.36,-1.89,0.7,6.79,-55.0,-2.9375,610.1875,0.5284423828125,0.53839111328125,-0.27520751953125,0.0282,-6.6875,21.6875,-57.125,3.27,-1.35,climb_up,2
7.08,7.012409468,23,3,3,3,0,-478.0,1.37,-0.64,4.36,-1.89,0.7,6.79,-55.0,-2.9375,610.1875,0.5284423828125,0.53839111328125,-0.27520751953125,0.0282,-6.6875,21.6875,-57.125,3.27,-1.35,climb_up,2
7.09,7.017928308,23,3,3,3,0,-509.0,1.32,-0.73,4.06,-1.93,0.54,6.44,-56.625,-3.375,610.9375,0.529052734375,0.53466796875,-0.27984619140625,0.0282,-6.6875,21.6875,-57.25,3.25,-1.28,climb_up,2
7.09,7.017928308,23,3,3,3,0,-542.0,1.35,-1.14,3.75,-1.88,0.08,6.6,-54.25,-3.1875,611.5,0.52972412109375,0.53094482421875,-0.284423828125,0.0282,-6.6875,21.6875,-57.3125,3.24,-1.22,climb_up,2
7.11,7.048261438,23,3,3,3,0,-609.0,1.42,-1.27,3.08,-1.8,-0.09,6.47,-47.0625,-3.6875,611.75,0.53045654296875,0.52764892578125,-0.28863525390625,0.0278,-5.875,20.75,-57.375,3.22,-1.17,climb_up,2
7.11,7.048261438,23,3,3,3,0,-641.0,1.44,-1.24,2.78,-1.76,-0.1,5.58,-37.875,-4.75,611.75,0.5311279296875,0.52496337890625,-0.292236328125,0.0278,-5.875,20.75,-57.4375,3.21,-1.13,climb_up,2
7.12,7.061989872,23,3,3,3,0,-683.0,1.58,-1.46,2.36,-1.61,-0.35,5.38,-29.75,-5.0625,611.375,0.53192138671875,0.5228271484375,-0.29541015625,0.0278,-5.875,20.75,-57.5,3.19,-1.1,climb_up,2
7.13,7.061989872,23,3,3,3,0,-780.0,2.03,-1.67,1.4,-1.14,-0.58,5.52,-20.6875,-5.6875,610.5625,0.53289794921875,0.5211181640625,-0.2982177734375,0.0278,-5.875,20.75,-57.5625,3.18,-1.08,climb_up,2
7.14,7.076826094,23,3,3,3,0,-822.0,2.29,-1.85,0.99,-0.87,-0.76,5.44,-11.6875,-6.375,609.3125,0.53411865234375,0.5198974609375,-0.30059814453125,0.0278,-5.875,20.75,-57.5625,3.16,-1.08,climb_up,2
7.15,7.076826094,23,3,3,3,0,-881.0,2.57,-2.16,0.4,-0.58,-1.05,5.8,-4.4375,-6.6875,607.625,0.53558349609375,0.51898193359375,-0.30279541015625,0.0278,-7.5625,19.0,-57.625,3.15,-1.1,climb_up,2
7.16,7.108017704,23,3,3,3,0,-960.0,2.93,-2.47,-0.37,-0.19,-1.35,5.55,-0.25,-7.5625,605.75,0.53704833984375,0.5184326171875,-0.30474853515625,0.0278,-7.5625,19.0,-57.625,3.13,-1.12,climb_up,2
7.17,7.108017704,23,3,3,3,0,-1080.0,3.55,-3.34,-1.57,0.43,-2.2,4.93,-0.5,-8.4375,604.0,0.53826904296875,0.51800537109375,-0.30657958984375,0.0278,-7.5625,19.0,-57.625,3.11,-1.13,climb_up,2
7.19,7.123113611,23,3,3,3,0,-1167.0,3.89,-3.9,-2.44,0.8,-2.75,4.48,-2.3125,-8.9375,602.5625,0.53924560546875,0.517578125,-0.30841064453125,0.0278,-7.5625,19.0,-57.6875,3.09,-1.15,climb_up,2
7.19,7.123113611,23,3,3,3,0,-1261.0,4.3,-4.54,-3.37,1.23,-3.38,3.6,-4.1875,-10.125,601.375,0.53985595703125,0.5172119140625,-0.31011962890625,0.0278,-7.5625,19.0,-57.75,3.07,-1.15,climb_up,2
7.2,7.152532149,23,3,3,3,0,-1373.0,4.77,-5.0,-4.48,1.72,-3.84,2.77,-3.75,-12.625,600.3125,0.54010009765625,0.51715087890625,-0.31170654296875,0.0274,-6.875,20.5,-57.75,3.04,-1.15,climb_up,2
7.21,7.152532149,23,3,3,3,0,-1575.0,5.66,-5.11,-6.5,2.65,-3.94,2.27,0.25,-17.3125,599.1875,0.5400390625,0.517578125,-0.313232421875,0.0274,-6.875,20.5,-57.8125,3.01,-1.16,climb_up,2
7.22,7.167581628,23,3,3,3,0,-1664.0,6.04,-4.68,-7.38,3.06,-3.5,2.08,3.625,-23.625,597.6875,0.53973388671875,0.5185546875,-0.3148193359375,0.0274,-6.875,20.5,-57.875,2.97,-1.18,climb_up,2
7.23,7.167581628,23,3,3,3,0,-1731.0,6.11,-3.9,-8.03,3.19,-2.71,2.04,3.375,-29.6875,596.0625,0.5391845703125,0.519775390625,-0.31671142578125,0.0274,-6.875,20.5,-58.0,2.92,-1.19,climb_up,2
7.24,7.183007979,23,3,3,3,0,-1710.0,5.97,-3.07,-7.8,3.1,-1.87,1.97,3.625,-36.8125,594.25,0.53826904296875,0.52130126953125,-0.3189697265625,0.0274,-6.875,20.5,-58.125,2.86,-1.2,climb_up,2
7.26,7.183007979,23,3,3,3,0,-1524.0,5.63,-2.08,-5.92,2.84,-0.86,1.58,5.0625,-42.1875,592.3125,0.5369873046875,0.5233154296875,-0.3212890625,0.0266,-7.375,22.375,-58.25,2.79,-1.21,climb_up,2
7.27,7.197485315,23,3,3,3,0,-1466.0,5.24,-1.76,-5.32,2.51,-0.53,1.1,3.5,-42.625,590.5625,0.5355224609375,0.5252685546875,-0.32354736328125,0.0266,-7.375,22.375,-58.375,2.72,-1.22,climb_up,2
7.27,7.197485315,23,3,3,3,0,-1469.0,4.83,-1.3,-5.33,2.17,-0.07,0.45,1.875,-37.4375,589.25,0.53399658203125,0.52703857421875,-0.32550048828125,0.0266,-7.375,22.375,-58.4375,2.66,-1.23,climb_up,2
7.28,7.242785038,23,3,3,3,0,-1528.0,3.75,-0.5,-5.91,1.14,0.73,-0.65,6.25,-31.125,588.25,0.53253173828125,0.5289306640625,-0.3265380859375,0.0266,-7.375,22.375,-58.5625,2.61,-1.24,climb_up,2
7.29,7.242785038,23,3,3,3,0,-1516.0,2.91,-0.25,-5.78,0.34,1.0,-1.93,13.1875,-25.75,587.4375,0.5311279296875,0.5311279296875,-0.32666015625,0.0266,-7.375,22.375,-58.5625,2.57,-1.25,climb_up,2
7.31,7.248524052,23,3,3,3,0,-1460.0,2.04,0.03,-5.22,-0.49,1.31,-2.84,17.1875,-21.6875,586.8125,0.52978515625,0.53350830078125,-0.32611083984375,0.0266,-7.75,22.75,-58.625,2.54,-1.28,climb_up,2
7.32,7.248524052,23,3,3,3,0,-1374.0,1.32,0.27,-4.35,-1.19,1.57,-3.29,18.0625,-18.4375,586.375,0.52838134765625,0.53582763671875,-0.3251953125,0.0266,-7.75,22.75,-58.625,2.51,-1.3,climb_up,2
7.33,7.257211918,23,3,3,3,0,-1165.0,0.48,0.76,-2.26,-2.0,2.08,-3.37,17.5,-16.25,586.0625,0.527099609375,0.5380859375,-0.32421875,0.0266,-7.75,22.75,-58.6875,2.49,-1.32,climb_up,2
7.34,7.257211918,23,3,3,3,0,-1063.0,0.28,1.07,-1.24,-2.18,2.41,-3.84,16.375,-16.0,585.9375,0.525634765625,0.540283203125,-0.3231201171875,0.0266,-7.75,22.75,-58.6875,2.47,-1.33,climb_up,2
7.34,7.275588383,23,3,3,3,0,-1063.0,0.28,1.07,-1.24,-2.18,2.41,-3.84,16.375,-16.0,585.9375,0.525634765625,0.540283203125,-0.3231201171875,0.0266,-7.75,22.75,-58.6875,2.47,-1.33,climb_up,2
7.35,7.275588383,23,3,3,3,0,-982.0,0.13,1.22,-0.42,-2.32,2.58,-4.82,16.125,-16.4375,586.0625,0.5238037109375,0.542724609375,-0.32177734375,0.0266,-7.75,22.75,-58.6875,2.45,-1.35,climb_up,2
7.36,7.288053511,23,3,3,3,0,-933.0,0.12,1.47,0.06,-2.31,2.83,-5.77,16.5625,-17.125,586.4375,0.52166748046875,0.54534912109375,-0.32012939453125,0.0258,-9.0625,23.75,-58.75,2.43,-1.36,climb_up,2
7.36,7.288053511,23,3,3,3,0,-900.0,0.53,1.69,0.4,-1.87,3.07,-6.5,18.875,-17.1875,586.9375,0.51934814453125,0.5482177734375,-0.31817626953125,0.0258,-9.0625,23.75,-58.75,2.41,-1.37,climb_up,2
7.37,7.318330163,23,3,3,3,0,-930.0,0.88,1.85,0.09,-1.5,3.25,-6.7,23.75,-16.6875,587.25,0.51708984375,0.55133056640625,-0.31597900390625,0.0258,-9.0625,23.75,-58.75,2.39,-1.39,climb_up,2
7.38,7.318330163,23,3,3,3,0,-944.0,1.4,1.87,-0.04,-0.97,3.3,-6.61,29.375,-15.5625,587.25,0.51507568359375,0.55462646484375,-0.31341552734375,0.0258,-9.0625,23.75,-58.75,2.38,-1.42,climb_up,2
7.39,7.332837325,23,3,3,3,0,-918.0,1.68,1.72,0.21,-0.68,3.19,-5.99,32.25,-14.1875,586.9375,0.51336669921875,0.55792236328125,-0.31085205078125,0.0258,-9.0625,23.75,-58.75,2.37,-1.46,climb_up,2
7.41,7.332837325,23,3,3,3,0,-805.0,1.97,0.94,1.34,-0.38,2.44,-5.79,28.25,-12.5625,586.875,0.51171875,0.56085205078125,-0.3084716796875,0.0258,-8.6875,22.6875,-58.75,2.35,-1.49,climb_up,2
7.42,7.348245813,23,3,3,3,0,-795.0,2.25,0.38,1.44,-0.09,1.89,-5.67,15.8125,-9.375,587.4375,0.5098876953125,0.56298828125,-0.3065185546875,0.0258,-8.6875,22.6875,-58.6875,2.35,-1.5,climb_up,2
7.43,7.348245813,23,3,3,3,0,-798.0,2.49,-0.35,1.42,0.14,1.13,-5.94,0.125,-6.8125,588.9375,0.5076904296875,0.56427001953125,-0.30499267578125,0.0258,-8.6875,22.6875,-58.75,2.35,-1.49,climb_up,2
7.44,7.378496138,23,3,3,3,0,-810.0,2.67,-1.79,1.3,0.31,-0.34,-7.05,-14.875,-4.75,591.5625,0.50482177734375,0.56494140625,-0.30377197265625,0.0258,-8.6875,22.6875,-58.75,2.35,-1.45,climb_up,2
7.44,7.378496138,23,3,3,3,0,-862.0,2.49,-2.5,0.79,0.13,-1.12,-8.7,-26.6875,-2.6875,595.3125,0.501220703125,0.56512451171875,-0.3023681640625,0.0258,-8.6875,22.6875,-58.8125,2.36,-1.38,climb_up,2
7.45,7.392479862,23,3,3,3,0,-899.0,2.19,-3.02,0.42,-0.17,-1.71,-9.83,-28.5,-0.8125,599.4375,0.497314453125,0.5653076171875,-0.3006591796875,0.0242,-8.5,23.375,-58.875,2.37,-1.31,climb_up,2
7.46,7.392479862,23,3,3,3,0,-911.0,1.91,-3.21,0.31,-0.47,-1.96,-10.05,-16.5,-1.1875,603.0625,0.49359130859375,0.566162109375,-0.29833984375,0.0242,-8.5,23.375,-58.875,2.38,-1.25,climb_up,2
7.47,7.407911462,23,3,3,3,0,-875.0,1.38,-2.57,0.67,-1.0,-1.33,-9.02,5.5,-3.3125,605.125,0.49066162109375,0.56805419921875,-0.29547119140625,0.0242,-8.5,23.375,-58.875,2.39,-1.24,climb_up,2
7.49,7.407911462,23,3,3,3,0,-831.0,1.25,-2.02,1.11,-1.13,-0.75,-7.29,28.5,-6.25,605.5,0.48870849609375,0.57098388671875,-0.29229736328125,0.0242,-8.5,23.375,-58.875,2.39,-1.27,climb_up,2
7.5,7.438202478,23,3,3,3,0,-783.0,1.25,-1.55,1.57,-1.13,-0.22,-5.81,44.5625,-8.625,604.625,0.487548828125,0.5745849609375,-0.2890625,0.0242,-8.5,23.375,-58.8125,2.38,-1.33,climb_up,2
7.51,7.438202478,23,3,3,3,0,-734.0,1.25,-1.11,2.06,-1.12,0.28,-4.87,49.375,-9.625,603.125,0.48675537109375,0.5782470703125,-0.285888671875,0.0242,-8.5,21.875,-58.8125,2.38,-1.39,climb_up,2
7.52,7.452099817,23,3,3,3,0,-623.0,1.11,-0.53,3.16,-1.25,0.92,-4.46,44.6875,-9.3125,601.8125,0.4859619140625,0.5816650390625,-0.2830810546875,0.0242,-8.5,21.875,-58.75,2.37,-1.46,climb_up,2
7.53,7.452099817,23,3,3,3,0,-577.0,1.1,-0.38,3.61,-1.26,1.12,-4.46,34.1875,-8.625,601.0,0.48492431640625,0.58447265625,-0.28070068359375,0.0242,-8.5,21.875,-58.6875,2.36,-1.5,climb_up,2
7.53,7.467000655,23,3,3,3,0,-527.0,1.12,-0.39,4.11,-1.23,1.13,-4.54,22.5,-6.75,600.875,0.483642578125,0.58660888671875,-0.27862548828125,0.0242,-8.5,21.875,-58.6875,2.36,-1.53,climb_up,2
7.54,7.467000655,23,3,3,3,0,-486.0,1.13,-0.48,4.53,-1.22,1.05,-4.64,11.5,-4.25,601.4375,0.48223876953125,0.58807373046875,-0.27685546875,0.0242,-8.5,21.875,-58.6875,2.36,-1.53,climb_up,2
7.55,7.498433354,23,3,3,3,0,-423.0,0.95,-0.72,5.15,-1.41,0.8,-4.86,1.5,-2.625,602.625,0.48052978515625,0.5889892578125,-0.275390625,0.0236,-7.5,22.25,-58.6875,2.36,-1.52,climb_up,2
7.57,7.498433354,23,3,3,3,0,-405.0,0.85,-0.78,5.34,-1.51,0.71,-4.88,-7.375,-0.625,604.25,0.478759765625,0.58935546875,-0.274169921875,0.0236,-7.5,22.25,-58.6875,2.37,-1.5,climb_up,2
7.58,7.513102584,23,3,3,3,0,-388.0,0.84,-1.03,5.5,-1.54,0.43,-4.99,-10.5,1.625,606.1875,0.47698974609375,0.58953857421875,-0.27294921875,0.0236,-7.5,22.25,-58.6875,2.38,-1.47,climb_up,2
