timestamp,android_nano_timestamp,temperature,calib_mag,calib_accel,calib_gyro,calib_sys,acc_x,acc_y,acc_z,lacc_x,lacc_y,lacc_z,gyro_x,gyro_y,gyro_z,quat_w,quat_x,quat_y,quat_z,mag_x,mag_y,mag_z,gravity_x,gravity_y,gravity_z,label,person
0.82,0.760472087,27,3,3,3,1,-2.64,9.23,2.11,-0.02,0.01,0.04,-0.875,-1.375,0.3125,0.23065185546875,0.34283447265625,-0.52593994140625,-0.743408203125,-3.5,-28.6875,9.6875,-2.61,9.21,2.07,Nothing,5
0.83,0.760472087,27,3,3,3,1,-2.61,9.23,2.09,0.0,0.01,0.01,-1.25,-1.3125,0.3125,0.23065185546875,0.34271240234375,-0.52587890625,-0.7435302734375,-3.5,-28.6875,9.6875,-2.61,9.21,2.07,Nothing,5
0.84,0.773388347,27,3,3,3,1,-2.61,9.27,2.13,0.0,0.05,0.05,-0.75,-0.6875,0.1875,0.23065185546875,0.3426513671875,-0.52581787109375,-0.74359130859375,-3.5,-28.6875,9.6875,-2.61,9.21,2.08,Nothing,5
0.85,0.773388347,27,3,3,3,1,-2.58,9.22,2.17,0.03,0.0,0.09,0.375,0.0,0.1875,0.23065185546875,0.3426513671875,-0.52581787109375,-0.74359130859375,-3.5,-28.6875,9.6875,-2.61,9.21,2.08,Nothing,5
0.86,0.789159546,27,3,3,3,1,-2.6,9.23,2.22,0.01,0.01,0.14,0.5,0.375,0.3125,0.23065185546875,0.3426513671875,-0.52581787109375,-0.74359130859375,-3.5,-29.375,8.875,-2.61,9.21,2.08,Nothing,5
0.87,0.789159546,27,3,3,3,1,-2.63,9.28,2.2,-0.01,0.06,0.12,-0.1875,0.0,0.3125,0.23065185546875,0.3426513671875,-0.52581787109375,-0.74359130859375,-3.5,-29.375,8.875,-2.61,9.21,2.08,Nothing,5
0.88,0.819217001,27,3,3,3,1,-2.64,9.29,2.19,-0.02,0.07,0.11,-1.125,-0.8125,0.625,0.23065185546875,0.342529296875,-0.52581787109375,-0.74365234375,-3.5,-29.375,8.875,-2.61,9.21,2.08,Nothing,5
0.89,0.819217001,27,3,3,3,1,-2.67,9.28,2.15,-0.05,0.06,0.06,-1.625,-1.5625,0.8125,0.230712890625,0.34234619140625,-0.5257568359375,-0.7437744140625,-3.5,-29.375,8.875,-2.61,9.21,2.08,Nothing,5
0.9,0.835019939,27,3,3,3,1,-2.66,9.26,2.13,-0.05,0.04,0.04,-1.75,-1.8125,0.8125,0.230712890625,0.3421630859375,-0.52569580078125,-0.743896484375,-3.5,-29.375,8.875,-2.61,9.21,2.09,Nothing,5
0.91,0.835019939,27,3,3,3,1,-2.65,9.23,2.1,-0.04,0.01,0.01,-1.6875,-2.1875,0.625,0.230712890625,0.3419189453125,-0.525634765625,-0.7440185546875,-2.75,-28.375,9.25,-2.61,9.21,2.09,Nothing,5
0.92,0.865263062,27,3,3,3,1,-2.62,9.24,2.14,-0.01,0.03,0.04,-1.375,-2.0625,0.5,0.23065185546875,0.341796875,-0.52557373046875,-0.744140625,-2.75,-28.375,9.25,-2.61,9.21,2.09,Nothing,5
0.93,0.865263062,27,3,3,3,1,-2.58,9.19,2.16,0.02,-0.02,0.06,-0.9375,-1.6875,0.375,0.23065185546875,0.3416748046875,-0.52557373046875,-0.74420166015625,-2.75,-28.375,9.25,-2.6,9.21,2.09,Nothing,5
0.94,0.878448812,27,3,3,3,1,-2.56,9.17,2.17,0.04,-0.04,0.06,-0.75,-1.8125,0.5,0.2305908203125,0.34149169921875,-0.5255126953125,-0.74432373046875,-2.75,-28.375,9.25,-2.6,9.21,2.1,Nothing,5
0.95,0.878448812,27,3,3,3,1,-2.56,9.18,2.12,0.03,-0.03,0.01,-0.5625,-2.0,0.6875,0.23052978515625,0.34136962890625,-0.52557373046875,-0.744384765625,-2.75,-28.375,9.25,-2.6,9.21,2.1,Nothing,5
0.96,0.893655721,27,3,3,3,1,-2.57,9.16,2.12,0.02,-0.05,0.02,-0.375,-1.75,0.75,0.23052978515625,0.3411865234375,-0.525634765625,-0.74444580078125,-3.5,-28.375,9.6875,-2.6,9.21,2.1,Nothing,5
0.97,0.893655721,27,3,3,3,1,-2.58,9.14,2.11,0.01,-0.07,0.01,0.125,-1.1875,0.8125,0.23052978515625,0.341064453125,-0.52569580078125,-0.74444580078125,-3.5,-28.375,9.6875,-2.6,9.21,2.1,Nothing,5
0.98,0.925247356,27,3,3,3,1,-2.59,9.15,2.09,0.0,-0.06,0.0,0.5,-1.0,0.9375,0.23052978515625,0.3409423828125,-0.52569580078125,-0.74444580078125,-3.5,-28.375,9.6875,-2.6,9.21,2.1,Nothing,5
0.99,0.925247356,27,3,3,3,1,-2.59,9.17,2.08,0.0,-0.04,-0.02,0.9375,-0.625,1.0,0.23052978515625,0.34088134765625,-0.52581787109375,-0.74444580078125,-3.5,-28.375,9.6875,-2.59,9.21,2.1,Nothing,5
1.0,0.939438396,27,3,3,3,1,-2.56,9.17,2.08,0.02,-0.04,-0.01,1.3125,-0.75,0.9375,0.23052978515625,0.3408203125,-0.52593994140625,-0.744384765625,-3.5,-28.375,9.6875,-2.59,9.21,2.1,Nothing,5
1.01,0.939438396,27,3,3,3,1,-2.58,9.18,2.1,0.01,-0.03,0.0,1.625,-1.0625,1.0625,0.23046875,0.3406982421875,-0.526123046875,-0.74432373046875,-2.75,-28.6875,9.25,-2.59,9.22,2.1,Nothing,5
1.02,0.954346965,27,3,3,3,1,-2.57,9.2,2.11,0.01,-0.01,0.01,1.9375,-1.0625,0.9375,0.23046875,0.34063720703125,-0.52630615234375,-0.74420166015625,-2.75,-28.6875,9.25,-2.59,9.22,2.09,Nothing,5
1.03,0.954346965,27,3,3,3,1,-2.59,9.25,2.12,0.0,0.03,0.03,2.0625,-0.75,1.0,0.23040771484375,0.340576171875,-0.5264892578125,-0.744140625,-2.75,-28.6875,9.25,-2.59,9.22,2.09,Nothing,5
1.04,0.985519898,27,3,3,3,1,-2.57,9.3,2.15,0.01,0.08,0.06,1.8125,-0.8125,1.0,0.23040771484375,0.34051513671875,-0.526611328125,-0.74407958984375,-2.75,-28.6875,9.25,-2.58,9.22,2.09,Nothing,5
1.05,0.985519898,27,3,3,3,1,-2.58,9.31,2.16,0.0,0.08,0.06,1.25,-0.8125,0.875,0.23040771484375,0.3404541015625,-0.52679443359375,-0.7440185546875,-2.75,-28.6875,9.25,-2.58,9.22,2.09,Nothing,5
1.06,0.998815227,27,3,3,3,1,-2.58,9.3,2.15,0.0,0.08,0.06,0.875,-0.875,0.9375,0.2303466796875,0.34033203125,-0.52685546875,-0.74395751953125,-2.75,-28.6875,10.0,-2.58,9.22,2.09,Nothing,5
1.07,0.998815227,27,3,3,3,1,-2.57,9.29,2.15,0.0,0.06,0.06,0.8125,-0.9375,0.75,0.2303466796875,0.34027099609375,-0.5269775390625,-0.74395751953125,-2.75,-28.6875,10.0,-2.58,9.22,2.08,Nothing,5
1.08,1.01359904,27,3,3,3,1,-2.56,9.29,2.13,0.01,0.06,0.04,0.6875,-1.125,0.75,0.2303466796875,0.3402099609375,-0.52703857421875,-0.74395751953125,-2.75,-28.6875,10.0,-2.58,9.22,2.08,Nothing,5
1.09,1.01359904,27,3,3,3,1,-2.56,9.26,2.13,0.01,0.03,0.04,0.5,-0.9375,0.5625,0.2303466796875,0.340087890625,-0.527099609375,-0.74395751953125,-2.75,-28.6875,10.0,-2.58,9.22,2.08,Nothing,5
1.1,1.044792766,27,3,3,3,1,-2.55,9.24,2.12,0.02,0.01,0.03,0.125,-0.9375,0.625,0.2303466796875,0.3399658203125,-0.52716064453125,-0.74395751953125,-2.75,-28.6875,10.0,-2.57,9.22,2.08,Nothing,5
1.11,1.044792766,27,3,3,3,1,-2.55,9.26,2.11,0.01,0.03,0.02,0.0,-0.8125,0.6875,0.2303466796875,0.33990478515625,-0.52716064453125,-0.74395751953125,-3.1875,-29.375,10.375,-2.57,9.22,2.08,Nothing,5
1.12,1.059101238,27,3,3,3,1,-2.55,9.23,2.14,0.02,0.0,0.05,-0.0625,-1.125,0.5625,0.2303466796875,0.33978271484375,-0.5272216796875,-0.7440185546875,-3.1875,-29.375,10.375,-2.57,9.22,2.09,Nothing,5
1.13,1.059101238,27,3,3,3,1,-2.57,9.23,2.12,0.0,0.0,0.03,0.0,-1.3125,0.625,0.23028564453125,0.33966064453125,-0.52728271484375,-0.7440185546875,-3.1875,-29.375,10.375,-2.57,9.22,2.09,Nothing,5
1.14,1.073232911,27,3,3,3,1,-2.54,9.17,2.11,0.02,-0.05,0.02,0.0,-1.4375,0.8125,0.23028564453125,0.33953857421875,-0.52734375,-0.74407958984375,-3.1875,-29.375,10.375,-2.57,9.22,2.09,Nothing,5
1.15,1.073232911,27,3,3,3,1,-2.56,9.16,2.07,0.0,-0.06,-0.01,-0.125,-1.1875,0.6875,0.23028564453125,0.33941650390625,-0.52734375,-0.74407958984375,-3.1875,-29.375,10.375,-2.57,9.22,2.09,Nothing,5
1.16,1.104194296,27,3,3,3,1,-2.59,9.19,2.19,-0.02,-0.03,0.1,0.0,-1.3125,0.75,0.23028564453125,0.33929443359375,-0.52740478515625,-0.74407958984375,-3.5,-28.375,9.6875,-2.56,9.22,2.09,Nothing,5
1.17,1.104194296,27,3,3,3,1,-2.57,9.19,2.25,0.0,-0.03,0.16,0.75,-1.0,0.6875,0.230224609375,0.3392333984375,-0.52752685546875,-0.74407958984375,-3.5,-28.375,9.6875,-2.56,9.23,2.09,Nothing,5
1.18,1.118401449,27,3,3,3,1,-2.49,9.17,2.14,0.07,-0.05,0.04,0.3125,0.375,0.3125,0.230224609375,0.3392333984375,-0.52752685546875,-0.74407958984375,-3.5,-28.375,9.6875,-2.56,9.23,2.09,Nothing,5
1.19,1.118401449,27,3,3,3,1,-2.59,9.07,1.94,-0.02,-0.15,-0.15,-0.6875,1.9375,-0.1875,0.2303466796875,0.33935546875,-0.52740478515625,-0.74407958984375,-3.5,-28.375,9.6875,-2.56,9.22,2.09,Nothing,5
1.2,1.133425985,27,3,3,3,1,-2.53,9.18,2.05,0.03,-0.05,-0.03,1.1875,1.25,-0.125,0.23040771484375,0.33941650390625,-0.5274658203125,-0.74395751953125,-3.5,-28.375,9.6875,-2.56,9.23,2.09,Nothing,5
1.21,1.133425985,27,3,3,3,1,-2.44,9.24,2.09,0.12,0.01,0.01,3.6875,1.125,0.0,0.2303466796875,0.339599609375,-0.5277099609375,-0.7437744140625,-3.1875,-29.0625,10.0,-2.56,9.23,2.08,Nothing,5
1.22,1.164903687,27,3,3,3,1,-2.5,9.29,2.19,0.06,0.05,0.11,4.0,0.0625,0.375,0.230224609375,0.33966064453125,-0.5279541015625,-0.74359130859375,-3.1875,-29.0625,10.0,-2.56,9.23,2.07,Nothing,5
1.23,1.164903687,27,3,3,3,1,-2.49,9.29,2.25,0.07,0.06,0.18,2.5625,-2.4375,1.3125,0.2301025390625,0.3394775390625,-0.5281982421875,-0.7435302734375,-3.1875,-29.0625,10.0,-2.56,9.23,2.07,Nothing,5
1.24,1.178539429,27,3,3,3,1,-2.49,9.24,2.14,0.06,0.0,0.06,0.0,-3.375,1.5,0.23004150390625,0.3392333984375,-0.5283203125,-0.74359130859375,-3.1875,-29.0625,10.0,-2.56,9.23,2.07,Nothing,5
1.25,1.178539429,27,3,3,3,1,-2.49,9.19,1.98,0.06,-0.04,-0.09,-1.625,-2.625,1.625,0.2301025390625,0.33892822265625,-0.5283203125,-0.74371337890625,-3.1875,-29.0625,10.0,-2.55,9.23,2.07,Nothing,5
1.26,1.193877483,27,3,3,3,1,-2.49,9.2,1.93,0.06,-0.03,-0.15,-0.625,0.0,0.9375,0.23016357421875,0.3388671875,-0.52825927734375,-0.74371337890625,-3.875,-28.6875,9.25,-2.55,9.23,2.08,Nothing,5
1.27,1.193877483,27,3,3,3,1,-2.51,9.2,2.05,0.04,-0.03,-0.02,1.5,3.875,0.125,0.23028564453125,0.33917236328125,-0.5283203125,-0.7435302734375,-3.875,-28.6875,9.25,-2.55,9.23,2.07,Nothing,5
1.28,1.224787029,27,3,3,3,1,-2.53,9.21,2.14,0.02,-0.01,0.07,2.875,6.875,-0.4375,0.23052978515625,0.33966064453125,-0.52838134765625,-0.7431640625,-3.875,-28.6875,9.25,-2.56,9.23,2.06,Nothing,5
1.29,1.224787029,27,3,3,3,1,-2.6,9.27,2.22,-0.04,0.03,0.16,2.5625,7.5,-1.0,0.230712890625,0.3402099609375,-0.5283203125,-0.74285888671875,-3.875,-28.6875,9.25,-2.56,9.23,2.06,Nothing,5
1.3,1.238900961,27,3,3,3,1,-2.64,9.33,2.23,-0.07,0.1,0.17,1.0625,5.5625,-0.9375,0.23089599609375,0.34063720703125,-0.52825927734375,-0.74267578125,-3.875,-28.6875,9.25,-2.56,9.23,2.05,Nothing,5
1.31,1.238900961,27,3,3,3,1,-2.64,9.36,2.17,-0.06,0.12,0.11,-0.125,3.1875,-0.6875,0.23101806640625,0.34088134765625,-0.5281982421875,-0.74261474609375,-2.5,-28.375,10.0,-2.57,9.23,2.05,Nothing,5
1.32,1.254151897,27,3,3,3,1,-2.63,9.29,2.14,-0.05,0.05,0.08,-0.25,1.75,-0.1875,0.2310791015625,0.34100341796875,-0.52813720703125,-0.7425537109375,-2.5,-28.375,10.0,-2.57,9.23,2.05,Nothing,5
1.33,1.254151897,27,3,3,3,1,-2.6,9.27,2.09,-0.03,0.03,0.04,0.375,1.4375,-0.25,0.23114013671875,0.34112548828125,-0.52813720703125,-0.74249267578125,-2.5,-28.375,10.0,-2.57,9.23,2.05,Nothing,5
1.34,1.283672567,27,3,3,3,1,-2.58,9.31,2.11,-0.01,0.07,0.06,1.5,1.75,-0.1875,0.231201171875,0.34124755859375,-0.5281982421875,-0.74237060546875,-2.5,-28.375,10.0,-2.57,9.23,2.05,Nothing,5
1.35,1.283672567,27,3,3,3,1,-2.58,9.32,2.11,0.0,0.08,0.06,2.4375,2.0,-0.1875,0.231201171875,0.3414306640625,-0.5283203125,-0.7421875,-2.5,-28.375,10.0,-2.57,9.23,2.04,Nothing,5
1.36,1.29832601,27,3,3,3,1,-2.56,9.32,2.11,0.01,0.08,0.07,2.875,2.125,0.125,0.231201171875,0.34161376953125,-0.5284423828125,-0.74200439453125,-4.25,-29.0625,10.375,-2.57,9.23,2.04,Nothing,5
1.37,1.29832601,27,3,3,3,1,-2.56,9.29,2.08,0.01,0.04,0.04,2.5625,1.4375,0.5,0.231201171875,0.341796875,-0.528564453125,-0.7418212890625,-4.25,-29.0625,10.375,-2.57,9.24,2.03,Nothing,5
1.38,1.313875774,27,3,3,3,1,-2.57,9.26,2.07,0.0,0.01,0.04,1.8125,1.0625,0.75,0.23126220703125,0.34185791015625,-0.5286865234375,-0.74169921875,-4.25,-29.0625,10.375,-2.57,9.24,2.03,Nothing,5
1.39,1.313875774,27,3,3,3,1,-2.57,9.25,2.06,0.0,0.0,0.03,0.9375,0.375,1.0,0.2313232421875,0.341796875,-0.52880859375,-0.74163818359375,-4.25,-29.0625,10.375,-2.57,9.24,2.03,Nothing,5
1.4,1.343749594,27,3,3,3,1,-2.57,9.26,2.05,0.0,0.02,0.03,0.625,-0.0625,1.375,0.23138427734375,0.34173583984375,-0.52886962890625,-0.7415771484375,-4.25,-29.0625,10.375,-2.57,9.24,2.02,Nothing,5
1.41,1.343749594,27,3,3,3,1,-2.56,9.24,2.08,0.0,0.0,0.05,1.0,-0.125,1.5625,0.2314453125,0.34173583984375,-0.52899169921875,-0.74151611328125,-3.1875,-29.0625,10.0,-2.56,9.24,2.02,Nothing,5
1.42,1.358032471,27,3,3,3,1,-2.55,9.23,2.01,0.01,0.0,-0.01,1.3125,-0.375,1.5,0.23150634765625,0.3416748046875,-0.52911376953125,-0.74139404296875,-3.1875,-29.0625,10.0,-2.56,9.24,2.02,Nothing,5
1.43,1.358032471,27,3,3,3,1,-2.62,9.22,2.05,-0.06,-0.02,0.02,1.25,0.0625,1.4375,0.2315673828125,0.34161376953125,-0.52923583984375,-0.7413330078125,-3.1875,-29.0625,10.0,-2.56,9.24,2.02,Nothing,5
1.44,1.373876018,27,3,3,3,1,-2.65,9.23,2.15,-0.09,-0.01,0.12,1.4375,0.875,1.25,0.23162841796875,0.3416748046875,-0.52935791015625,-0.7412109375,-3.1875,-29.0625,10.0,-2.56,9.24,2.02,Nothing,5
1.45,1.373876018,27,3,3,3,1,-2.64,9.25,2.12,-0.07,0.0,0.1,1.8125,1.0,1.1875,0.231689453125,0.3416748046875,-0.52947998046875,-0.7410888671875,-3.1875,-29.0625,10.0,-2.56,9.24,2.01,Nothing,5
1.46,1.410555868,27,3,3,3,1,-2.66,9.24,1.99,-0.1,0.0,-0.02,1.5625,0.5625,1.125,0.23175048828125,0.34173583984375,-0.52960205078125,-0.740966796875,-2.75,-28.6875,10.375,-2.55,9.25,2.01,Nothing,5
1.47,1.410555868,27,3,3,3,1,-2.66,9.27,1.97,-0.11,0.02,-0.03,1.4375,-0.125,1.3125,0.2318115234375,0.3416748046875,-0.52972412109375,-0.7408447265625,-2.75,-28.6875,10.375,-2.55,9.25,2.01,Nothing,5
1.48,1.418582724,27,3,3,3,1,-2.61,9.3,1.99,-0.05,0.05,-0.01,1.9375,-0.5625,1.0625,0.2318115234375,0.34161376953125,-0.5299072265625,-0.74078369140625,-2.75,-28.6875,10.375,-2.55,9.25,2.0,Nothing,5
1.49,1.418582724,27,3,3,3,1,-2.57,9.29,2.04,-0.01,0.03,0.03,1.8125,-0.1875,0.6875,0.2318115234375,0.34161376953125,-0.530029296875,-0.74066162109375,-2.75,-28.6875,10.375,-2.55,9.25,2.0,Nothing,5
1.5,1.432790691,27,3,3,3,1,-2.55,9.31,2.09,0.0,0.06,0.08,1.4375,0.0,0.75,0.2318115234375,0.34161376953125,-0.5301513671875,-0.7406005859375,-2.75,-28.6875,10.375,-2.55,9.25,2.0,Nothing,5
1.51,1.432790691,27,3,3,3,1,-2.56,9.29,2.08,-0.01,0.04,0.08,1.25,0.0,0.5625,0.2318115234375,0.34161376953125,-0.5302734375,-0.74053955078125,-3.5,-28.375,10.375,-2.55,9.25,2.0,Nothing,5
1.52,1.465179363,27,3,3,3,1,-2.57,9.29,2.11,-0.02,0.03,0.11,1.0625,0.0,0.3125,0.23175048828125,0.3416748046875,-0.53033447265625,-0.740478515625,-3.5,-28.375,10.375,-2.55,9.25,2.0,Nothing,5
1.53,1.465179363,27,3,3,3,1,-2.56,9.23,2.05,-0.01,-0.01,0.05,0.8125,0.0,0.625,0.2318115234375,0.34161376953125,-0.5303955078125,-0.74041748046875,-3.5,-28.375,10.375,-2.54,9.25,1.99,Nothing,5
1.54,1.478668417,27,3,3,3,1,-2.59,9.21,2.02,-0.04,-0.03,0.02,0.5625,-0.1875,0.625,0.2318115234375,0.34161376953125,-0.53045654296875,-0.7403564453125,-3.5,-28.375,10.375,-2.54,9.25,1.99,Nothing,5
1.55,1.478668417,27,3,3,3,1,-2.58,9.22,2.02,-0.03,-0.02,0.02,0.875,-0.1875,0.5625,0.2318115234375,0.34161376953125,-0.530517578125,-0.7403564453125,-3.5,-28.375,10.375,-2.54,9.25,1.99,Nothing,5
1.56,1.494230592,27,3,3,3,1,-2.57,9.23,1.99,-0.03,-0.02,0.0,1.0,-0.4375,0.625,0.2318115234375,0.34161376953125,-0.5306396484375,-0.74029541015625,-3.875,-28.375,10.0,-2.54,9.25,1.99,Nothing,5
1.57,1.494230592,27,3,3,3,1,-2.55,9.22,2.0,-0.01,-0.03,0.01,1.1875,-0.25,0.5625,0.23187255859375,0.34161376953125,-0.53070068359375,-0.74017333984375,-3.875,-28.375,10.0,-2.54,9.25,1.99,Nothing,5
1.58,1.524181601,27,3,3,3,1,-2.53,9.21,2.03,0.0,-0.04,0.03,1.5,0.0,0.625,0.23187255859375,0.34161376953125,-0.53082275390625,-0.7401123046875,-3.875,-28.375,10.0,-2.54,9.25,1.99,Nothing,5
1.59,1.524181601,27,3,3,3,1,-2.53,9.2,2.02,0.0,-0.05,0.03,1.75,-0.0625,0.5,0.2318115234375,0.34161376953125,-0.53094482421875,-0.74005126953125,-3.875,-28.375,10.0,-2.54,9.25,1.98,Nothing,5
1.6,1.539217611,27,3,3,3,1,-2.54,9.19,2.05,0.0,-0.06,0.06,2.0,-0.125,0.5625,0.23175048828125,0.34161376953125,-0.5311279296875,-0.73992919921875,-3.875,-28.375,10.0,-2.54,9.26,1.98,Nothing,5
1.61,1.539217611,27,3,3,3,1,-2.55,9.23,2.08,-0.01,-0.02,0.1,2.125,-0.1875,0.5625,0.23175048828125,0.3416748046875,-0.53125,-0.73980712890625,-4.25,-28.6875,10.0,-2.54,9.26,1.98,Nothing,5
1.62,1.553664958,27,3,3,3,1,-2.57,9.22,2.12,-0.03,-0.03,0.14,2.0,-0.25,0.6875,0.23175048828125,0.3416748046875,-0.53143310546875,-0.73968505859375,-4.25,-28.6875,10.0,-2.54,9.26,1.97,Nothing,5
1.63,1.553664958,27,3,3,3,1,-2.58,9.25,2.07,-0.04,0.0,0.09,1.8125,-0.5625,0.8125,0.231689453125,0.34161376953125,-0.53155517578125,-0.7396240234375,-4.25,-28.6875,10.0,-2.53,9.26,1.97,Nothing,5
1.64,1.583927084,27,3,3,3,1,-2.61,9.28,2.08,-0.07,0.01,0.11,1.6875,-0.8125,1.0,0.231689453125,0.341552734375,-0.53173828125,-0.73956298828125,-4.25,-28.6875,10.0,-2.53,9.26,1.97,Nothing,5
1.65,1.583927084,27,3,3,3,1,-2.6,9.34,2.06,-0.06,0.07,0.09,1.6875,-0.875,1.1875,0.231689453125,0.3414306640625,-0.5318603515625,-0.739501953125,-4.25,-28.6875,10.0,-2.53,9.26,1.97,Nothing,5
1.66,1.599896729,27,3,3,3,1,-2.58,9.35,2.01,-0.05,0.08,0.04,1.6875,-0.75,1.125,0.23162841796875,0.34136962890625,-0.53204345703125,-0.7393798828125,-5.0,-28.6875,9.6875,-2.53,9.26,1.96,Nothing,5
1.67,1.599896729,27,3,3,3,1,-2.54,9.32,2.0,-0.01,0.06,0.03,1.875,-0.4375,1.0,0.231689453125,0.34136962890625,-0.53216552734375,-0.73931884765625,-5.0,-28.6875,9.6875,-2.53,9.26,1.96,Nothing,5
1.68,1.615114625,27,3,3,3,1,-2.52,9.31,2.01,0.0,0.04,0.05,2.1875,-0.375,1.125,0.231689453125,0.34136962890625,-0.5323486328125,-0.73919677734375,-5.0,-28.6875,9.6875,-2.52,9.26,1.96,Nothing,5
1.69,1.615114625,27,3,3,3,1,-2.52,9.32,2.0,0.0,0.05,0.04,2.5,-0.25,1.0625,0.231689453125,0.34136962890625,-0.53253173828125,-0.739013671875,-5.0,-28.6875,9.6875,-2.52,9.27,1.95,Nothing,5
1.7,1.644907309,27,3,3,3,1,-2.51,9.3,2.01,0.01,0.03,0.05,2.5,0.0,1.0625,0.231689453125,0.34136962890625,-0.53277587890625,-0.7388916015625,-5.0,-28.6875,9.6875,-2.52,9.27,1.95,Nothing,5
1.71,1.644907309,27,3,3,3,1,-2.5,9.26,2.03,0.01,0.0,0.08,2.5,0.3125,1.0,0.231689453125,0.34136962890625,-0.532958984375,-0.73876953125,-4.25,-28.0,11.1875,-2.52,9.27,1.95,Nothing,5
1.72,1.674067262,27,3,3,3,1,-2.51,9.24,2.03,0.0,-0.02,0.08,2.1875,0.25,1.0625,0.231689453125,0.34136962890625,-0.53314208984375,-0.7386474609375,-4.25,-28.0,11.1875,-2.52,9.27,1.94,Nothing,5
1.73,1.674067262,27,3,3,3,1,-2.49,9.26,2.01,0.02,0.0,0.06,2.25,0.0,1.3125,0.231689453125,0.34136962890625,-0.5333251953125,-0.738525390625,-4.25,-28.0,11.1875,-2.52,9.27,1.94,Nothing,5
1.74,1.679298056,27,3,3,3,1,-2.49,9.23,2.0,0.02,-0.04,0.06,2.25,0.1875,1.4375,0.231689453125,0.34130859375,-0.53350830078125,-0.7384033203125,-4.25,-28.0,11.1875,-2.51,9.27,1.93,Nothing,5
1.75,1.679298056,27,3,3,3,1,-2.47,9.22,1.96,0.03,-0.05,0.02,2.1875,0.125,1.625,0.23175048828125,0.34130859375,-0.53369140625,-0.73822021484375,-4.25,-28.0,11.1875,-2.51,9.27,1.93,Nothing,5
1.76,1.704738892,27,3,3,3,1,-2.5,9.2,1.94,0.0,-0.07,0.01,2.1875,0.0625,1.6875,0.2318115234375,0.34124755859375,-0.53387451171875,-0.73809814453125,-3.5,-28.6875,11.1875,-2.51,9.28,1.93,Nothing,5
1.77,1.704738892,27,3,3,3,1,-2.52,9.19,1.94,-0.01,-0.08,0.01,2.125,0.1875,1.8125,0.23187255859375,0.3411865234375,-0.5340576171875,-0.73797607421875,-3.5,-28.6875,11.1875,-2.51,9.28,1.92,Nothing,5
1.78,1.720059408,27,3,3,3,1,-2.54,9.19,1.96,-0.03,-0.08,0.03,2.125,0.0,2.0625,0.23193359375,0.34112548828125,-0.53424072265625,-0.73785400390625,-3.5,-28.6875,11.1875,-2.5,9.28,1.92,Nothing,5
1.79,1.720059408,27,3,3,3,1,-2.55,9.24,1.97,-0.05,-0.04,0.05,2.0625,-0.25,2.125,0.23199462890625,0.341064453125,-0.534423828125,-0.7376708984375,-3.5,-28.6875,11.1875,-2.5,9.28,1.92,Nothing,5
1.8,1.734176637,27,3,3,3,1,-2.54,9.33,1.98,-0.04,0.05,0.06,1.9375,-0.5625,2.1875,0.2320556640625,0.34100341796875,-0.53466796875,-0.737548828125,-3.5,-28.6875,11.1875,-2.49,9.28,1.91,Nothing,5
1.81,1.734176637,27,3,3,3,1,-2.52,9.34,1.94,-0.03,0.05,0.03,1.9375,-0.9375,2.125,0.23211669921875,0.34088134765625,-0.53485107421875,-0.73748779296875,-3.875,-28.6875,10.75,-2.49,9.28,1.91,Nothing,5
1.82,1.764930136,27,3,3,3,1,-2.54,9.37,1.95,-0.05,0.08,0.04,2.3125,-1.4375,2.3125,0.23211669921875,0.3406982421875,-0.53509521484375,-0.73736572265625,-3.875,-28.6875,10.75,-2.49,9.28,1.91,Nothing,5
1.83,1.764930136,27,3,3,3,1,-2.57,9.41,2.04,-0.09,0.12,0.13,2.8125,-1.625,2.625,0.23211669921875,0.34051513671875,-0.535400390625,-0.73724365234375,-3.875,-28.6875,10.75,-2.48,9.29,1.9,Nothing,5
1.84,1.7940188,27,3,3,3,1,-2.56,9.34,1.94,-0.08,0.04,0.04,3.125,-0.25,2.3125,0.232177734375,0.34051513671875,-0.53564453125,-0.737060546875,-3.875,-28.6875,10.75,-2.48,9.29,1.9,Nothing,5
1.85,1.7940188,27,3,3,3,1,-2.57,9.25,1.72,-0.09,-0.03,-0.17,1.75,1.125,1.875,0.2322998046875,0.34051513671875,-0.53582763671875,-0.73687744140625,-3.875,-28.6875,10.75,-2.48,9.29,1.9,Nothing,5
1.86,1.799524008,27,3,3,3,1,-2.61,9.26,1.69,-0.13,-0.03,-0.2,1.375,0.5625,1.75,0.23236083984375,0.34051513671875,-0.53594970703125,-0.73675537109375,-3.1875,-28.0,11.1875,-2.47,9.29,1.89,Nothing,5
1.87,1.799524008,27,3,3,3,1,-2.5,9.31,1.91,-0.03,0.01,0.01,3.1875,-0.4375,1.625,0.232421875,0.34051513671875,-0.53619384765625,-0.736572265625,-3.1875,-28.0,11.1875,-2.47,9.29,1.89,Nothing,5
1.88,1.823968995,27,3,3,3,1,-2.49,9.4,2.01,-0.02,0.1,0.12,4.25,-1.3125,1.75,0.2322998046875,0.34039306640625,-0.53656005859375,-0.73638916015625,-3.1875,-28.0,11.1875,-2.47,9.3,1.88,Nothing,5
1.89,1.823968995,27,3,3,3,1,-2.48,9.42,2.13,-0.01,0.12,0.24,4.0,-3.3125,2.0,0.232177734375,0.34014892578125,-0.53692626953125,-0.73626708984375,-3.1875,-28.0,11.1875,-2.46,9.3,1.88,Nothing,5
1.9,1.837994915,27,3,3,3,1,-2.47,9.42,2.1,-0.01,0.11,0.22,2.25,-4.25,2.5625,0.2320556640625,0.33984375,-0.5372314453125,-0.7362060546875,-3.1875,-28.0,11.1875,-2.46,9.3,1.88,Nothing,5
1.91,1.837994915,27,3,3,3,1,-2.48,9.25,1.8,-0.03,-0.04,-0.07,0.0,-3.3125,2.5,0.2320556640625,0.3394775390625,-0.53741455078125,-0.73626708984375,-3.875,-28.375,10.75,-2.45,9.3,1.88,Nothing,5
1.92,1.854547201,27,3,3,3,1,-2.45,9.26,1.8,0.0,-0.04,-0.07,-0.0625,-1.3125,2.375,0.232177734375,0.33929443359375,-0.5374755859375,-0.73626708984375,-3.875,-28.375,10.75,-2.45,9.3,1.88,Nothing,5
1.93,1.854547201,27,3,3,3,1,-2.45,9.31,1.85,0.0,0.01,-0.02,1.8125,0.75,2.0625,0.2322998046875,0.33929443359375,-0.53765869140625,-0.73614501953125,-3.875,-28.375,10.75,-2.44,9.3,1.87,Nothing,5
1.94,1.886228964,27,3,3,3,1,-2.44,9.35,1.98,0.0,0.04,0.11,3.5,2.5625,1.75,0.232421875,0.33941650390625,-0.537841796875,-0.73583984375,-3.875,-28.375,10.75,-2.44,9.3,1.87,Nothing,5
1.95,1.886228964,27,3,3,3,1,-2.47,9.46,2.08,-0.02,0.15,0.22,3.125,2.375,1.8125,0.2325439453125,0.33953857421875,-0.5380859375,-0.735595703125,-3.875,-28.375,10.75,-2.44,9.31,1.86,Nothing,5
1.96,1.898634034,27,3,3,3,1,-2.52,9.47,2.05,-0.08,0.15,0.19,1.4375,0.0,2.0,0.23260498046875,0.3394775390625,-0.5382080078125,-0.7354736328125,-3.875,-28.6875,10.375,-2.44,9.31,1.86,Nothing,5
1.97,1.898634034,27,3,3,3,1,-2.57,9.45,1.93,-0.13,0.13,0.06,-0.9375,-2.1875,2.0625,0.232666015625,0.3392333984375,-0.53826904296875,-0.73553466796875,-3.875,-28.6875,10.375,-2.43,9.31,1.86,Nothing,5
1.98,1.914179363,27,3,3,3,1,-2.59,9.41,1.85,-0.16,0.1,-0.01,-2.25,-3.5,2.125,0.23272705078125,0.3388671875,-0.53826904296875,-0.7357177734375,-3.875,-28.6875,10.375,-2.43,9.31,1.87,Nothing,5
1.99,1.914179363,27,3,3,3,1,-2.55,9.36,1.87,-0.12,0.04,0.0,-2.1875,-3.5625,1.875,0.23272705078125,0.3385009765625,-0.53826904296875,-0.73590087890625,-3.875,-28.6875,10.375,-2.42,9.31,1.87,Nothing,5
2.0,1.947779094,27,3,3,3,1,-2.52,9.33,1.94,-0.09,0.02,0.06,-1.4375,-2.625,1.5,0.2327880859375,0.3382568359375,-0.53826904296875,-0.73602294921875,-3.875,-28.6875,10.375,-2.42,9.31,1.88,Nothing,5
2.01,1.947779094,27,3,3,3,1,-2.48,9.31,1.99,-0.05,0.0,0.11,-0.75,-1.25,1.25,0.2327880859375,0.33807373046875,-0.53826904296875,-0.736083984375,-3.5,-28.6875,10.75,-2.42,9.31,1.88,Nothing,5
2.02,1.959723837,27,3,3,3,1,-2.44,9.28,1.96,-0.02,-0.03,0.08,0.0,-0.1875,1.25,0.23291015625,0.3380126953125,-0.53826904296875,-0.73602294921875,-3.5,-28.6875,10.75,-2.42,9.31,1.88,Nothing,5
2.03,1.959723837,27,3,3,3,1,-2.43,9.26,1.93,-0.02,-0.05,0.04,0.0625,0.0625,1.4375,0.23297119140625,0.33795166015625,-0.538330078125,-0.73602294921875,-3.5,-28.6875,10.75,-2.41,9.31,1.88,Nothing,5
2.04,1.974263347,27,3,3,3,1,-2.45,9.22,1.89,-0.04,-0.08,0.0,0.0625,0.3125,1.6875,0.23309326171875,0.337890625,-0.53839111328125,-0.7359619140625,-3.5,-28.6875,10.75,-2.41,9.31,1.88,Nothing,5
2.05,1.974263347,27,3,3,3,1,-2.44,9.22,1.89,-0.03,-0.09,0.0,0.0625,0.3125,1.9375,0.23321533203125,0.3377685546875,-0.5384521484375,-0.7359619140625,-3.5,-28.6875,10.75,-2.41,9.31,1.88,Nothing,5
2.06,2.014760011,27,3,3,3,1,-2.48,9.21,1.87,-0.07,-0.09,0.0,0.125,0.0625,2.5625,0.2333984375,0.337646484375,-0.53851318359375,-0.73590087890625,-3.5,-28.375,11.5625,-2.4,9.31,1.88,Nothing,5
2.07,2.014760011,27,3,3,3,1,-2.45,9.24,1.85,-0.05,-0.07,-0.02,0.1875,-0.625,2.8125,0.2335205078125,0.33746337890625,-0.53863525390625,-0.73583984375,-3.5,-28.375,11.5625,-2.4,9.31,1.88,Nothing,5
2.08,2.021728924,27,3,3,3,1,-2.48,9.26,1.83,-0.08,-0.05,-0.04,0.0,-1.0,3.0625,0.23370361328125,0.3372802734375,-0.5386962890625,-0.73583984375,-3.5,-28.375,11.5625,-2.39,9.32,1.88,Nothing,5
2.09,2.021728924,27,3,3,3,1,-2.5,9.29,1.79,-0.11,-0.03,-0.09,-0.75,-0.8125,2.875,0.23388671875,0.3370361328125,-0.53875732421875,-0.73583984375,-3.5,-28.375,11.5625,-2.39,9.32,1.88,Nothing,5
2.1,2.034204062,27,3,3,3,1,-2.51,9.28,1.96,-0.12,-0.03,0.07,-1.125,-0.875,3.1875,0.23406982421875,0.3367919921875,-0.538818359375,-0.73583984375,-3.5,-28.375,11.5625,-2.38,9.32,1.88,Nothing,5
2.11,2.034204062,27,3,3,3,1,-2.52,9.27,1.92,-0.14,-0.04,0.03,-0.75,-0.75,3.3125,0.2342529296875,0.33660888671875,-0.53887939453125,-0.73583984375,-3.5,-29.0625,11.5625,-2.38,9.32,1.88,Nothing,5
2.12,2.064485434,27,3,3,3,1,-2.5,9.27,1.83,-0.12,-0.04,-0.05,-0.4375,-1.0,3.3125,0.23443603515625,0.33636474609375,-0.53900146484375,-0.73577880859375,-3.5,-29.0625,11.5625,-2.37,9.32,1.88,Nothing,5
2.13,2.064485434,27,3,3,3,1,-2.5,9.31,1.85,-0.13,-0.01,-0.03,0.0,-0.9375,3.375,0.234619140625,0.33612060546875,-0.53912353515625,-0.73577880859375,-3.5,-29.0625,11.5625,-2.37,9.32,1.89,Nothing,5
2.14,2.079212688,27,3,3,3,1,-2.46,9.34,1.89,-0.09,0.01,0.0,1.0625,-0.25,3.4375,0.23480224609375,0.33599853515625,-0.539306640625,-0.73565673828125,-3.5,-29.0625,11.5625,-2.36,9.32,1.88,Nothing,5
2.15,2.079212688,27,3,3,3,1,-2.43,9.34,1.92,-0.07,0.01,0.03,1.625,0.4375,3.375,0.2349853515625,0.33587646484375,-0.53948974609375,-0.7354736328125,-3.5,-29.0625,11.5625,-2.35,9.33,1.88,Nothing,5
2.16,2.109807822,27,3,3,3,1,-2.44,9.38,1.98,-0.08,0.04,0.1,1.4375,1.1875,3.4375,0.23516845703125,0.3358154296875,-0.5396728515625,-0.73529052734375,-3.5,-28.6875,10.0,-2.35,9.33,1.88,Nothing,5
2.17,2.109807822,27,3,3,3,1,-2.46,9.33,1.96,-0.11,0.0,0.08,0.625,1.1875,3.3125,0.2354736328125,0.33575439453125,-0.53973388671875,-0.73516845703125,-3.5,-28.6875,10.0,-2.34,9.33,1.88,Nothing,5
2.18,2.123921388,27,3,3,3,1,-2.48,9.29,1.92,-0.13,-0.04,0.03,-0.0625,0.5625,3.8125,0.2357177734375,0.33563232421875,-0.53985595703125,-0.735107421875,-3.5,-28.6875,10.0,-2.34,9.33,1.88,Nothing,5
2.19,2.123921388,27,3,3,3,1,-2.5,9.28,1.91,-0.16,-0.05,0.03,-0.25,0.125,4.0625,0.2359619140625,0.33544921875,-0.53997802734375,-0.7349853515625,-3.5,-28.6875,10.0,-2.33,9.33,1.88,Nothing,5
2.2,2.138911948,27,3,3,3,1,-2.51,9.25,1.87,-0.18,-0.08,0.0,0.1875,-0.25,4.3125,0.23626708984375,0.335205078125,-0.54010009765625,-0.73492431640625,-3.5,-28.6875,10.0,-2.32,9.33,1.88,Nothing,5
2.21,2.138911948,27,3,3,3,1,-2.49,9.31,1.9,-0.17,-0.02,0.02,0.9375,-0.625,4.5,0.23651123046875,0.3349609375,-0.540283203125,-0.73480224609375,-3.875,-28.375,11.5625,-2.32,9.34,1.87,Nothing,5
2.22,2.153862469,27,3,3,3,1,-2.47,9.33,1.91,-0.16,0.0,0.03,1.3125,-0.3125,4.5,0.23675537109375,0.33477783203125,-0.54052734375,-0.734619140625,-3.875,-28.375,11.5625,-2.31,9.34,1.87,Nothing,5
2.23,2.153862469,27,3,3,3,1,-2.48,9.35,1.91,-0.17,0.0,0.03,1.125,-0.1875,4.5,0.23699951171875,0.3345947265625,-0.54071044921875,-0.7344970703125,-3.875,-28.375,11.5625,-2.3,9.34,1.87,Nothing,5
2.24,2.183530397,27,3,3,3,1,-2.48,9.34,1.92,-0.18,0.0,0.05,0.5625,-0.375,4.4375,0.23724365234375,0.33441162109375,-0.5408935546875,-0.734375,-3.875,-28.375,11.5625,-2.29,9.34,1.87,Nothing,5
2.25,2.183530397,27,3,3,3,1,-2.46,9.31,1.92,-0.17,-0.03,0.05,0.125,-0.5625,4.4375,0.23748779296875,0.33416748046875,-0.541015625,-0.73431396484375,-3.875,-28.375,11.5625,-2.29,9.34,1.87,Nothing,5
2.26,2.199486044,27,3,3,3,1,-2.43,9.29,1.92,-0.15,-0.05,0.04,0.1875,-0.5,4.5,0.23779296875,0.333984375,-0.5411376953125,-0.73419189453125,-4.25,-28.6875,11.875,-2.28,9.35,1.87,Nothing,5
2.27,2.199486044,27,3,3,3,1,-2.43,9.29,1.9,-0.15,-0.06,0.03,0.875,-0.5625,4.625,0.238037109375,0.333740234375,-0.5413818359375,-0.73406982421875,-4.25,-28.6875,11.875,-2.27,9.35,1.87,Nothing,5
2.28,2.214858725,27,3,3,3,1,-2.41,9.31,1.88,-0.14,-0.03,0.01,1.6875,-0.125,4.625,0.23828125,0.33355712890625,-0.5416259765625,-0.73388671875,-4.25,-28.6875,11.875,-2.26,9.35,1.87,Nothing,5
2.29,2.214858725,27,3,3,3,1,-2.42,9.37,1.96,-0.16,0.01,0.1,2.25,0.25,4.625,0.238525390625,0.3333740234375,-0.5418701171875,-0.73370361328125,-4.25,-28.6875,11.875,-2.26,9.35,1.86,Nothing,5
2.3,2.245402752,27,3,3,3,1,-2.39,9.39,1.97,-0.14,0.03,0.11,2.4375,0.9375,4.8125,0.23876953125,0.333251953125,-0.54217529296875,-0.73345947265625,-4.25,-28.6875,11.875,-2.25,9.36,1.86,Nothing,5
2.31,2.245402752,27,3,3,3,1,-2.37,9.41,1.98,-0.12,0.05,0.12,2.25,1.125,5.125,0.2391357421875,0.3331298828125,-0.54241943359375,-0.73321533203125,-4.6875,-28.0,11.1875,-2.24,9.36,1.85,Nothing,5
2.32,2.259553712,27,3,3,3,1,-2.37,9.4,1.94,-0.13,0.03,0.08,1.625,1.125,5.375,0.23944091796875,0.3330078125,-0.54266357421875,-0.73297119140625,-4.6875,-28.0,11.1875,-2.23,9.36,1.85,Nothing,5
2.33,2.259553712,27,3,3,3,1,-2.39,9.35,1.83,-0.16,-0.01,-0.02,1.4375,0.75,5.6875,0.23980712890625,0.33282470703125,-0.54290771484375,-0.7327880859375,-4.6875,-28.0,11.1875,-2.22,9.36,1.85,Nothing,5
2.34,2.274151816,27,3,3,3,1,-2.37,9.35,1.83,-0.15,-0.01,-0.02,1.6875,1.0,6.125,0.240234375,0.33258056640625,-0.54315185546875,-0.7325439453125,-4.6875,-28.0,11.1875,-2.21,9.37,1.85,Nothing,5
2.35,2.274151816,27,3,3,3,1,-2.4,9.34,1.85,-0.19,-0.02,0.01,2.3125,1.375,6.1875,0.2406005859375,0.33245849609375,-0.54345703125,-0.7322998046875,-4.6875,-28.0,11.1875,-2.21,9.37,1.84,Nothing,5
2.36,2.304837281,27,3,3,3,1,-2.39,9.37,1.88,-0.19,0.0,0.04,2.75,1.625,6.375,0.24102783203125,0.33233642578125,-0.5438232421875,-0.73193359375,-4.6875,-28.0,12.25,-2.2,9.37,1.84,Nothing,5
2.37,2.304837281,27,3,3,3,1,-2.39,9.37,1.82,-0.2,0.0,0.0,3.0,1.6875,6.375,0.24139404296875,0.33221435546875,-0.54412841796875,-0.73162841796875,-4.6875,-28.0,12.25,-2.19,9.38,1.83,Nothing,5
2.38,2.319127117,27,3,3,3,1,-2.36,9.35,1.81,-0.18,-0.03,-0.01,3.0,1.1875,6.625,0.2418212890625,0.33203125,-0.54449462890625,-0.7313232421875,-4.6875,-28.0,12.25,-2.17,9.38,1.82,Nothing,5
2.39,2.319127117,27,3,3,3,1,-2.36,9.32,1.82,-0.19,-0.05,0.0,3.0625,1.4375,6.5625,0.2421875,0.33184814453125,-0.54486083984375,-0.73095703125,-4.6875,-28.0,12.25,-2.16,9.38,1.82,Nothing,5
2.4,2.334144044,27,3,3,3,1,-2.33,9.31,1.9,-0.17,-0.07,0.08,3.4375,1.625,6.6875,0.24261474609375,0.33172607421875,-0.54522705078125,-0.73065185546875,-4.6875,-28.0,12.25,-2.15,9.39,1.81,Nothing,5
2.41,2.334144044,27,3,3,3,1,-2.33,9.32,1.9,-0.18,-0.07,0.09,4.0625,1.625,6.75,0.24298095703125,0.3316650390625,-0.54559326171875,-0.73028564453125,-4.6875,-28.375,13.875,-2.15,9.39,1.81,Nothing,5
2.42,2.365344484,27,3,3,3,1,-2.31,9.34,1.91,-0.17,-0.05,0.11,4.5,1.125,7.125,0.2432861328125,0.33148193359375,-0.5460205078125,-0.72991943359375,-4.6875,-28.375,13.875,-2.14,9.39,1.8,Nothing,5
2.43,2.365344484,27,3,3,3,1,-2.28,9.36,1.86,-0.15,-0.04,0.07,4.25,1.0,7.1875,0.24365234375,0.33135986328125,-0.54644775390625,-0.72955322265625,-4.6875,-28.375,13.875,-2.13,9.4,1.79,Nothing,5
2.44,2.379498496,27,3,3,3,1,-2.27,9.33,1.79,-0.15,-0.07,0.0,3.625,0.875,7.4375,0.2440185546875,0.3311767578125,-0.54681396484375,-0.729248046875,-4.6875,-28.375,13.875,-2.11,9.4,1.79,Nothing,5
2.45,2.379498496,27,3,3,3,1,-2.24,9.32,1.78,-0.13,-0.08,0.0,3.25,1.4375,7.5625,0.24444580078125,0.33099365234375,-0.54718017578125,-0.7288818359375,-4.6875,-28.375,13.875,-2.1,9.4,1.78,Nothing,5
2.46,2.394896404,27,3,3,3,1,-2.18,9.3,1.75,-0.08,-0.1,-0.02,3.375,2.3125,7.5625,0.24493408203125,0.33087158203125,-0.54754638671875,-0.728515625,-6.0625,-28.6875,12.6875,-2.09,9.41,1.77,Nothing,5
2.47,2.394896404,27,3,3,3,1,-2.16,9.31,1.76,-0.07,-0.09,0.0,4.4375,2.9375,7.625,0.24542236328125,0.330810546875,-0.5479736328125,-0.72808837890625,-6.0625,-28.6875,12.6875,-2.08,9.41,1.77,Nothing,5
2.48,2.424206503,27,3,3,3,1,-2.09,9.33,1.79,-0.02,-0.08,0.03,5.5625,3.25,7.8125,0.245849609375,0.330810546875,-0.5484619140625,-0.7275390625,-6.0625,-28.6875,12.6875,-2.07,9.42,1.76,Nothing,5
2.49,2.424206503,27,3,3,3,1,-2.04,9.34,1.8,0.01,-0.08,0.05,6.3125,3.8125,7.8125,0.246337890625,0.330810546875,-0.54901123046875,-0.72698974609375,-6.0625,-28.6875,12.6875,-2.06,9.42,1.74,Nothing,5
2.5,2.439324627,27,3,3,3,1,-2.02,9.36,1.79,0.02,-0.06,0.05,5.9375,4.5,8.0,0.24688720703125,0.330810546875,-0.54949951171875,-0.72637939453125,-6.0625,-28.6875,12.6875,-2.05,9.43,1.73,Nothing,5
2.51,2.439324627,27,3,3,3,1,-2.05,9.41,1.84,-0.01,-0.02,0.11,5.4375,4.1875,8.75,0.24749755859375,0.330810546875,-0.54998779296875,-0.725830078125,-4.6875,-28.5,12.25,-2.03,9.43,1.72,Nothing,5
2.52,2.454157594,27,3,3,3,1,-2.05,9.49,1.89,-0.03,0.05,0.17,6.0,3.125,9.5,0.24810791015625,0.3306884765625,-0.550537109375,-0.72528076171875,-4.6875,-28.5,12.25,-2.02,9.44,1.71,Nothing,5
2.53,2.454157594,27,3,3,3,1,-2.07,9.51,1.81,-0.06,0.06,0.1,6.5625,3.125,10.1875,0.24871826171875,0.33050537109375,-0.5511474609375,-0.72467041015625,-4.6875,-28.5,12.25,-2.0,9.44,1.7,Nothing,5
2.54,2.483971803,27,3,3,3,1,-2.07,9.48,1.55,-0.07,0.03,-0.13,5.8125,4.125,10.1875,0.2493896484375,0.3304443359375,-0.5517578125,-0.7239990234375,-4.6875,-28.5,12.25,-1.99,9.45,1.69,Nothing,5
2.55,2.483971803,27,3,3,3,1,-2.16,9.44,1.43,-0.18,-0.01,-0.25,5.4375,4.0625,10.375,0.25006103515625,0.330322265625,-0.55230712890625,-0.723388671875,-4.6875,-28.5,12.25,-1.97,9.45,1.68,Nothing,5
2.56,2.499644573,27,3,3,3,1,-2.07,9.48,1.49,-0.11,0.02,-0.17,8.125,3.25,10.3125,0.2506103515625,0.33026123046875,-0.55303955078125,-0.72271728515625,-5.375,-28.5,13.0625,-1.96,9.46,1.66,Nothing,5
2.57,2.499644573,27,3,3,3,1,-2.06,9.59,1.67,-0.11,0.12,0.02,11.375,3.1875,10.375,0.2510986328125,0.3302001953125,-0.553955078125,-0.7218017578125,-5.375,-28.5,13.0625,-1.94,9.46,1.64,Nothing,5
2.58,2.514581544,27,3,3,3,1,-2.04,9.68,1.87,-0.11,0.2,0.24,13.75,2.0,10.75,0.25146484375,0.330078125,-0.55511474609375,-0.72088623046875,-5.375,-28.5,13.0625,-1.92,9.47,1.62,Nothing,5
2.59,2.514581544,27,3,3,3,1,-1.89,9.71,1.96,0.01,0.23,0.35,13.25,0.375,10.8125,0.25177001953125,0.329833984375,-0.55621337890625,-0.72003173828125,-5.375,-28.5,13.0625,-1.91,9.48,1.6,Nothing,5
2.6,2.543743328,27,3,3,3,1,-1.81,9.72,1.8,0.08,0.23,0.21,10.3125,-0.125,10.8125,0.25213623046875,0.32952880859375,-0.55718994140625,-0.71929931640625,-5.375,-28.5,13.0625,-1.89,9.49,1.58,Nothing,5
2.61,2.543743328,27,3,3,3,1,-1.73,9.68,1.61,0.14,0.18,0.04,7.9375,0.5625,10.3125,0.25262451171875,0.32928466796875,-0.55792236328125,-0.71868896484375,-5.6875,-27.6875,15.0625,-1.87,9.49,1.57,Nothing,5
2.62,2.558630454,27,3,3,3,1,-1.63,9.66,1.51,0.22,0.16,-0.04,7.375,3.4375,9.375,0.25311279296875,0.32916259765625,-0.55859375,-0.718017578125,-5.6875,-27.6875,15.0625,-1.86,9.5,1.56,Nothing,5
2.63,2.558630454,27,3,3,3,1,-1.41,9.6,1.43,0.43,0.1,-0.11,7.75,6.375,8.4375,0.2537841796875,0.329345703125,-0.5592041015625,-0.71722412109375,-5.6875,-27.6875,15.0625,-1.85,9.5,1.54,Nothing,5
2.64,2.574092205,27,3,3,3,1,-1.38,9.57,1.42,0.45,0.06,-0.1,8.375,8.0,8.0625,0.25439453125,0.32965087890625,-0.55975341796875,-0.7164306640625,-5.6875,-27.6875,15.0625,-1.83,9.51,1.52,Nothing,5
2.65,2.574092205,27,3,3,3,1,-1.3,9.56,1.45,0.51,0.04,-0.06,9.25,8.25,8.0625,0.25506591796875,0.3299560546875,-0.56036376953125,-0.715576171875,-5.6875,-27.6875,15.0625,-1.82,9.51,1.51,Nothing,5
2.66,2.605033978,27,3,3,3,1,-1.29,9.56,1.47,0.51,0.04,-0.01,9.875,8.5,8.3125,0.2557373046875,0.330322265625,-0.56103515625,-0.71466064453125,-6.0625,-27.6875,14.25,-1.81,9.52,1.49,Nothing,5
2.67,2.605033978,27,3,3,3,1,-1.28,9.57,1.51,0.51,0.04,0.04,10.125,8.6875,8.75,0.25640869140625,0.3306884765625,-0.561767578125,-0.71368408203125,-6.0625,-27.6875,14.25,-1.8,9.52,1.47,Nothing,5
2.68,2.619132529,27,3,3,3,1,-1.32,9.59,1.45,0.46,0.06,0.0,9.5625,8.5625,9.0,0.257080078125,0.33099365234375,-0.5623779296875,-0.7127685546875,-6.0625,-27.6875,14.25,-1.79,9.53,1.45,Nothing,5
2.69,2.619132529,27,3,3,3,1,-1.35,9.65,1.42,0.42,0.11,-0.01,8.1875,7.8125,9.0,0.2578125,0.3311767578125,-0.56298828125,-0.71197509765625,-6.0625,-27.6875,14.25,-1.77,9.53,1.43,Nothing,5
2.7,2.634108237,27,3,3,3,1,-1.31,9.64,1.39,0.43,0.1,-0.02,6.875,6.75,9.25,0.25872802734375,0.3310546875,-0.56365966796875,-0.71112060546875,-6.0625,-27.6875,14.25,-1.75,9.54,1.42,Nothing,5
2.71,2.634108237,27,3,3,3,1,-1.29,9.58,1.37,0.43,0.03,-0.03,6.3125,6.375,9.3125,0.2596435546875,0.3309326171875,-0.5643310546875,-0.7103271484375,-6.5,-27.25,15.875,-1.73,9.54,1.41,Nothing,5
2.72,2.664599529,27,3,3,3,1,-1.27,9.54,1.33,0.44,0.0,-0.06,6.625,6.5,9.125,0.26055908203125,0.33087158203125,-0.56500244140625,-0.70953369140625,-6.5,-27.25,15.875,-1.71,9.55,1.39,Nothing,5
2.73,2.664599529,27,3,3,3,1,-1.26,9.57,1.26,0.43,0.01,-0.11,7.4375,7.0625,8.5625,0.26141357421875,0.330810546875,-0.565673828125,-0.70867919921875,-6.5,-27.25,15.875,-1.69,9.55,1.38,Nothing,5
2.74,2.67870455,27,3,3,3,1,-1.25,9.65,1.3,0.42,0.09,-0.06,8.0,7.8125,8.125,0.26226806640625,0.3309326171875,-0.56634521484375,-0.707763671875,-6.5,-27.25,15.875,-1.68,9.56,1.36,Nothing,5
2.75,2.67870455,27,3,3,3,1,-1.25,9.73,1.38,0.41,0.16,0.03,8.0,8.3125,7.75,0.26312255859375,0.33099365234375,-0.5670166015625,-0.7069091796875,-6.5,-27.25,15.875,-1.66,9.56,1.35,Nothing,5
2.76,2.693825807,27,3,3,3,1,-1.26,9.78,1.43,0.38,0.21,0.1,8.0,8.75,7.3125,0.26397705078125,0.3311767578125,-0.567626953125,-0.70599365234375,-6.5,-27.6875,16.5625,-1.64,9.57,1.33,Nothing,5
2.77,2.693825807,27,3,3,3,1,-1.25,9.86,1.41,0.38,0.28,0.09,7.375,8.6875,6.8125,0.2647705078125,0.33135986328125,-0.56817626953125,-0.7052001953125,-6.5,-27.6875,16.5625,-1.63,9.57,1.32,Nothing,5
2.78,2.723599692,27,3,3,3,1,-1.29,9.85,1.38,0.31,0.26,0.07,5.9375,8.5625,6.375,0.265625,0.33148193359375,-0.568603515625,-0.7044677734375,-6.5,-27.6875,16.5625,-1.61,9.58,1.31,Nothing,5
2.79,2.723599692,27,3,3,3,1,-1.27,9.83,1.39,0.33,0.24,0.09,5.3125,7.625,6.0,0.266357421875,0.33160400390625,-0.5689697265625,-0.70379638671875,-6.5,-27.6875,16.5625,-1.6,9.58,1.3,Nothing,5
2.8,2.738882895,27,3,3,3,1,-1.27,9.84,1.33,0.32,0.25,0.04,5.3125,7.375,5.8125,0.26708984375,0.33172607421875,-0.5693359375,-0.70318603515625,-6.5,-27.6875,16.5625,-1.59,9.59,1.29,Nothing,5
2.81,2.738882895,27,3,3,3,1,-1.26,9.89,1.29,0.31,0.3,0.01,5.5,7.0625,5.5,0.26776123046875,0.33184814453125,-0.56976318359375,-0.7025146484375,-7.1875,-27.0,16.1875,-1.58,9.59,1.27,Nothing,5
2.82,2.75408598,27,3,3,3,1,-1.28,9.92,1.18,0.28,0.32,-0.07,5.6875,7.25,5.3125,0.26837158203125,0.33203125,-0.5701904296875,-0.70184326171875,-7.1875,-27.0,16.1875,-1.56,9.59,1.26,Nothing,5
2.83,2.75408598,27,3,3,3,1,-1.23,9.87,1.16,0.32,0.27,-0.08,5.625,8.0625,4.8125,0.26904296875,0.33233642578125,-0.57061767578125,-0.70111083984375,-7.1875,-27.0,16.1875,-1.55,9.6,1.25,Nothing,5
2.84,2.784472983,27,3,3,3,1,-1.19,9.9,1.23,0.35,0.3,-0.01,5.875,8.375,4.1875,0.26971435546875,0.3326416015625,-0.57098388671875,-0.700439453125,-7.1875,-27.0,16.1875,-1.54,9.6,1.24,Nothing,5
2.85,2.784472983,27,3,3,3,1,-1.24,9.89,1.34,0.29,0.29,0.11,6.375,8.25,3.6875,0.270263671875,0.33294677734375,-0.57135009765625,-0.69970703125,-7.1875,-27.0,16.1875,-1.54,9.6,1.22,Nothing,5
2.86,2.798244101,27,3,3,3,1,-1.29,9.86,1.38,0.23,0.26,0.16,6.125,8.0,3.1875,0.27081298828125,0.33331298828125,-0.5716552734375,-0.6990966796875,-7.1875,-27.25,16.5625,-1.53,9.6,1.21,Nothing,5
2.87,2.798244101,27,3,3,3,1,-1.32,9.83,1.38,0.19,0.22,0.18,4.5625,7.8125,2.625,0.2713623046875,0.3336181640625,-0.5718994140625,-0.6986083984375,-7.1875,-27.25,16.5625,-1.52,9.61,1.2,Nothing,5
2.88,2.814263429,27,3,3,3,1,-1.31,9.8,1.34,0.2,0.19,0.14,2.1875,6.5,2.1875,0.2718505859375,0.3338623046875,-0.5718994140625,-0.6982421875,-7.1875,-27.25,16.5625,-1.52,9.61,1.2,Nothing,5
2.89,2.814263429,27,3,3,3,1,-1.28,9.72,1.22,0.23,0.1,0.02,-0.125,5.0,2.125,0.27227783203125,0.333984375,-0.5718994140625,-0.69805908203125,-7.1875,-27.25,16.5625,-1.51,9.61,1.2,Nothing,5
2.9,2.843640545,27,3,3,3,1,-1.28,9.71,1.18,0.23,0.09,-0.01,-1.375,4.1875,1.5625,0.272705078125,0.33404541015625,-0.57177734375,-0.69793701171875,-7.1875,-27.25,16.5625,-1.51,9.61,1.2,Nothing,5
2.91,2.843640545,27,3,3,3,0,-1.3,9.7,1.13,0.2,0.08,-0.07,-1.3125,4.4375,1.0625,0.27313232421875,0.33416748046875,-0.5716552734375,-0.69781494140625,-6.75,-27.25,15.875,-1.51,9.61,1.2,Nothing,5
2.92,2.85870512,27,3,3,3,0,-1.3,9.71,1.15,0.2,0.09,-0.04,-0.625,5.0,0.6875,0.27349853515625,0.3343505859375,-0.57159423828125,-0.6976318359375,-6.75,-27.25,15.875,-1.5,9.61,1.2,Nothing,5
2.93,2.85870512,27,3,3,3,0,-1.33,9.74,1.13,0.17,0.13,-0.06,0.0,5.875,0.0,0.2738037109375,0.33465576171875,-0.57147216796875,-0.69744873046875,-6.75,-27.25,15.875,-1.5,9.61,1.2,Nothing,5
2.94,2.873719891,27,3,3,3,0,-1.37,9.75,1.19,0.13,0.14,0.0,-0.3125,6.1875,-0.75,0.27410888671875,0.33502197265625,-0.57135009765625,-0.697265625,-6.75,-27.25,15.875,-1.51,9.61,1.2,Nothing,5
2.95,2.873719891,27,3,3,3,0,-1.38,9.76,1.18,0.13,0.15,-0.01,-1.5,6.25,-1.375,0.2744140625,0.33544921875,-0.57110595703125,-0.6971435546875,-6.75,-27.25,15.875,-1.51,9.61,1.2,Nothing,5
2.96,2.90390735,27,3,3,3,0,-1.39,9.76,1.18,0.11,0.15,-0.01,-2.75,5.75,-2.0,0.27471923828125,0.3358154296875,-0.57073974609375,-0.6971435546875,-7.5,-27.25,16.1875,-1.51,9.61,1.2,Nothing,5
2.97,2.90390735,27,3,3,3,0,-1.39,9.68,1.18,0.13,0.07,-0.02,-4.0625,5.625,-2.75,0.27496337890625,0.33612060546875,-0.5703125,-0.697265625,-7.5,-27.25,16.1875,-1.52,9.61,1.21,Nothing,5
2.98,2.919235475,27,3,3,3,0,-1.41,9.64,1.19,0.11,0.03,-0.02,-4.8125,5.75,-3.3125,0.27520751953125,0.3365478515625,-0.56976318359375,-0.6973876953125,-7.5,-27.25,16.1875,-1.52,9.61,1.21,Nothing,5
2.99,2.919235475,27,3,3,3,0,-1.39,9.63,1.22,0.13,0.02,0.0,-4.5,6.5625,-4.0,0.27545166015625,0.33697509765625,-0.56927490234375,-0.697509765625,-7.5,-27.25,16.1875,-1.53,9.6,1.22,Nothing,5
3.0,2.933963624,27,3,3,3,0,-1.39,9.63,1.23,0.14,0.02,0.0,-3.6875,7.0625,-4.1875,0.27569580078125,0.3375244140625,-0.5687255859375,-0.69757080078125,-7.5,-27.25,16.1875,-1.54,9.6,1.22,Nothing,5
3.01,2.933963624,27,3,3,3,0,-1.39,9.64,1.26,0.15,0.04,0.02,-3.25,7.75,-4.4375,0.27593994140625,0.33807373046875,-0.5682373046875,-0.69757080078125,-8.6875,-27.0625,16.1875,-1.55,9.6,1.23,Nothing,5
3.02,2.965053061,27,3,3,3,0,-1.4,9.63,1.26,0.15,0.03,0.02,-3.4375,8.25,-4.5,0.27618408203125,0.33868408203125,-0.5677490234375,-0.6976318359375,-8.6875,-27.0625,16.1875,-1.55,9.6,1.23,Nothing,5
3.03,2.965053061,27,3,3,3,0,-1.41,9.64,1.27,0.15,0.04,0.03,-4.4375,8.4375,-4.3125,0.27655029296875,0.33929443359375,-0.567138671875,-0.69769287109375,-8.6875,-27.0625,16.1875,-1.56,9.6,1.24,Nothing,5
3.04,2.978796225,27,3,3,3,0,-1.44,9.63,1.33,0.13,0.03,0.08,-5.625,8.0,-4.4375,0.27685546875,0.33984375,-0.56646728515625,-0.69781494140625,-8.6875,-27.0625,16.1875,-1.57,9.59,1.24,Nothing,5
3.05,2.978796225,27,3,3,3,0,-1.46,9.61,1.34,0.11,0.02,0.08,-7.125,7.625,-4.375,0.2772216796875,0.34027099609375,-0.56573486328125,-0.69805908203125,-8.6875,-27.0625,16.1875,-1.58,9.59,1.25,Nothing,5
3.06,2.992954266,27,3,3,3,0,-1.5,9.63,1.37,0.09,0.04,0.11,-8.0,7.0,-4.625,0.27752685546875,0.3406982421875,-0.56494140625,-0.6983642578125,-7.875,-27.375,16.1875,-1.59,9.59,1.26,Nothing,5
3.07,2.992954266,27,3,3,3,0,-1.51,9.6,1.39,0.08,0.01,0.11,-8.1875,6.9375,-4.6875,0.27789306640625,0.34112548828125,-0.56414794921875,-0.69866943359375,-7.875,-27.375,16.1875,-1.6,9.58,1.28,Nothing,5
3.08,3.030138673,27,3,3,3,0,-1.51,9.59,1.37,0.09,0.0,0.08,-8.625,7.25,-4.875,0.2781982421875,0.34161376953125,-0.56329345703125,-0.69903564453125,-7.875,-27.375,16.1875,-1.6,9.58,1.29,Nothing,5
3.09,3.030138673,27,3,3,3,0,-1.5,9.6,1.39,0.11,0.01,0.08,-9.0625,6.9375,-4.9375,0.278564453125,0.342041015625,-0.56243896484375,-0.69940185546875,-7.875,-27.375,16.1875,-1.61,9.58,1.3,Nothing,5
3.1,3.038453249,27,3,3,3,0,-1.52,9.56,1.39,0.1,-0.01,0.07,-9.875,6.625,-5.0,0.27886962890625,0.3424072265625,-0.5615234375,-0.69976806640625,-7.875,-27.375,16.1875,-1.62,9.57,1.32,Nothing,5
3.11,3.038453249,27,3,3,3,0,-1.5,9.54,1.4,0.13,-0.02,0.06,-10.3125,6.4375,-5.0625,0.27923583984375,0.3427734375,-0.560546875,-0.7001953125,-7.375,-27.75,15.75,-1.63,9.57,1.33,Nothing,5
3.12,3.054404095,27,3,3,3,0,-1.55,9.49,1.37,0.09,-0.07,0.01,-10.5,5.5625,-5.0625,0.279541015625,0.34307861328125,-0.55963134765625,-0.70068359375,-7.375,-27.75,15.75,-1.64,9.57,1.35,Nothing,5
3.13,3.054404095,27,3,3,3,0,-1.56,9.5,1.34,0.09,-0.06,-0.02,-10.3125,5.0,-4.8125,0.27978515625,0.34332275390625,-0.55877685546875,-0.701171875,-7.375,-27.75,15.75,-1.65,9.56,1.37,Nothing,5
3.14,3.087795615,27,3,3,3,0,-1.56,9.45,1.34,0.09,-0.1,-0.04,-9.8125,4.5625,-4.75,0.280029296875,0.3436279296875,-0.55792236328125,-0.70159912109375,-7.375,-27.75,15.75,-1.66,9.56,1.38,Nothing,5
3.15,3.087795615,27,3,3,3,0,-1.59,9.45,1.34,0.08,-0.1,-0.05,-8.5625,5.125,-4.75,0.2802734375,0.34393310546875,-0.55712890625,-0.70196533203125,-7.375,-27.75,15.75,-1.67,9.56,1.39,Nothing,5
3.16,3.099680421,27,3,3,3,0,-1.62,9.52,1.37,0.05,-0.02,-0.03,-7.3125,5.8125,-4.8125,0.28045654296875,0.3443603515625,-0.556396484375,-0.7022705078125,-7.375,-28.1875,15.25,-1.68,9.55,1.4,Nothing,5
3.17,3.099680421,27,3,3,3,0,-1.64,9.55,1.4,0.04,0.0,-0.01,-6.0,6.3125,-4.875,0.28070068359375,0.34478759765625,-0.55572509765625,-0.7025146484375,-7.375,-28.1875,15.25,-1.69,9.55,1.41,Nothing,5
3.18,3.113460003,27,3,3,3,0,-1.66,9.6,1.43,0.03,0.04,0.0,-4.5625,6.1875,-5.125,0.28082275390625,0.3453369140625,-0.55511474609375,-0.70263671875,-7.375,-28.1875,15.25,-1.7,9.55,1.42,Nothing,5
3.19,3.113460003,27,3,3,3,0,-1.71,9.62,1.59,0.0,0.07,0.16,-3.125,5.375,-5.1875,0.2808837890625,0.3458251953125,-0.5546875,-0.7027587890625,-7.375,-28.1875,15.25,-1.71,9.55,1.42,Nothing,5
3.2,3.144698773,27,3,3,3,0,-1.67,9.6,1.55,0.04,0.05,0.12,-2.1875,4.9375,-5.1875,0.2808837890625,0.3463134765625,-0.55426025390625,-0.702880859375,-7.375,-28.1875,15.25,-1.72,9.54,1.42,Nothing,5
3.21,3.144698773,27,3,3,3,0,-1.65,9.5,1.39,0.07,-0.03,-0.03,-2.8125,5.1875,-5.6875,0.2808837890625,0.3468017578125,-0.55377197265625,-0.7030029296875,-6.375,-27.375,16.0625,-1.73,9.54,1.43,Nothing,5
3.22,3.159053631,27,3,3,3,0,-1.64,9.44,1.36,0.09,-0.09,-0.07,-3.3125,4.3125,-6.3125,0.28076171875,0.3472900390625,-0.55328369140625,-0.70318603515625,-6.375,-27.375,16.0625,-1.74,9.54,1.43,Nothing,5
3.23,3.159053631,27,3,3,3,0,-1.63,9.49,1.4,0.11,-0.04,-0.02,-1.4375,3.125,-6.375,0.28057861328125,0.34771728515625,-0.55291748046875,-0.70330810546875,-6.375,-27.375,16.0625,-1.75,9.54,1.43,Nothing,5
3.24,3.173550457,27,3,3,3,0,-1.66,9.56,1.53,0.1,0.02,0.1,1.25,1.5625,-5.9375,0.2802734375,0.34814453125,-0.55279541015625,-0.70330810546875,-6.375,-27.375,16.0625,-1.76,9.53,1.43,Nothing,5
3.25,3.173550457,27,3,3,3,0,-1.67,9.57,1.68,0.09,0.03,0.25,2.5,0.8125,-5.6875,0.2799072265625,0.3485107421875,-0.552734375,-0.70330810546875,-6.375,-27.375,16.0625,-1.77,9.53,1.43,Nothing,5
3.26,3.204250612,27,3,3,3,0,-1.66,9.52,1.71,0.11,-0.01,0.27,0.875,0.375,-5.5625,0.27960205078125,0.3487548828125,-0.5526123046875,-0.70343017578125,-6.6875,-27.0625,14.1875,-1.78,9.53,1.43,Nothing,5
3.27,3.204250612,27,3,3,3,0,-1.73,9.48,1.49,0.05,-0.04,0.06,-1.75,0.0,-5.6875,0.27935791015625,0.34893798828125,-0.55230712890625,-0.70367431640625,-6.6875,-27.0625,14.1875,-1.79,9.53,1.43,Nothing,5
3.28,3.218025433,27,3,3,3,0,-1.7,9.42,1.43,0.09,-0.1,0.0,-3.375,0.25,-5.9375,0.27911376953125,0.34912109375,-0.5518798828125,-0.7039794921875,-6.6875,-27.0625,14.1875,-1.79,9.53,1.44,Nothing,5
3.29,3.218025433,27,3,3,3,0,-1.71,9.37,1.41,0.09,-0.15,-0.02,-3.0,1.75,-6.3125,0.27886962890625,0.34942626953125,-0.55145263671875,-0.70428466796875,-6.6875,-27.0625,14.1875,-1.81,9.52,1.44,Nothing,5
3.3,3.233592246,27,3,3,3,0,-1.7,9.36,1.4,0.12,-0.15,-0.04,-1.25,3.25,-7.0625,0.2786865234375,0.34991455078125,-0.55108642578125,-0.70440673828125,-6.6875,-27.0625,14.1875,-1.82,9.52,1.44,Nothing,5
3.31,3.233592246,27,3,3,3,0,-1.72,9.51,1.49,0.11,0.0,0.04,0.25,3.8125,-7.5,0.27838134765625,0.35052490234375,-0.55078125,-0.7044677734375,-6.0,-28.1875,14.1875,-1.83,9.52,1.44,Nothing,5
3.32,3.264499228,27,3,3,3,0,-1.75,9.56,1.56,0.08,0.04,0.12,1.1875,3.625,-7.625,0.278076171875,0.35113525390625,-0.550537109375,-0.7044677734375,-6.0,-28.1875,14.1875,-1.84,9.52,1.44,Nothing,5
3.33,3.264499228,27,3,3,3,0,-1.76,9.59,1.6,0.09,0.07,0.16,1.125,3.1875,-7.75,0.27777099609375,0.3516845703125,-0.55029296875,-0.70452880859375,-6.0,-28.1875,14.1875,-1.86,9.51,1.44,Nothing,5
3.34,3.278652345,27,3,3,3,0,-1.78,9.52,1.59,0.09,0.0,0.15,0.3125,2.4375,-7.75,0.2774658203125,0.3521728515625,-0.54998779296875,-0.70465087890625,-6.0,-28.1875,14.1875,-1.87,9.51,1.44,Nothing,5
3.35,3.278652345,27,3,3,3,0,-1.74,9.5,1.55,0.13,-0.01,0.1,-0.875,1.875,-7.4375,0.27716064453125,0.35260009765625,-0.5496826171875,-0.704833984375,-6.0,-28.1875,14.1875,-1.88,9.51,1.44,Nothing,5
3.36,3.293170208,27,3,3,3,0,-1.74,9.49,1.49,0.15,-0.02,0.04,-1.5625,1.375,-7.25,0.27685546875,0.3529052734375,-0.54931640625,-0.70501708984375,-7.375,-28.5625,13.75,-1.89,9.51,1.44,Nothing,5
3.37,3.293170208,27,3,3,3,0,-1.73,9.51,1.5,0.17,0.0,0.05,-1.5,1.5,-7.3125,0.27655029296875,0.353271484375,-0.5489501953125,-0.70526123046875,-7.375,-28.5625,13.75,-1.9,9.5,1.44,Nothing,5
3.38,3.324008547,27,3,3,3,0,-1.73,9.52,1.48,0.18,0.01,0.03,-0.875,2.1875,-7.3125,0.27630615234375,0.35369873046875,-0.54864501953125,-0.70538330078125,-7.375,-28.5625,13.75,-1.92,9.5,1.44,Nothing,5
3.39,3.324008547,27,3,3,3,0,-1.75,9.53,1.52,0.17,0.03,0.07,-0.25,2.9375,-7.5,0.2760009765625,0.35418701171875,-0.54833984375,-0.7054443359375,-7.375,-28.5625,13.75,-1.93,9.5,1.44,Nothing,5
3.4,3.338462648,27,3,3,3,0,-1.77,9.53,1.52,0.17,0.03,0.08,0.0,3.4375,-7.6875,0.2757568359375,0.354736328125,-0.54803466796875,-0.70556640625,-7.375,-28.5625,13.75,-1.94,9.5,1.44,Nothing,5
3.41,3.338462648,27,3,3,3,0,-1.75,9.56,1.54,0.19,0.06,0.09,-0.0625,3.5,-7.6875,0.2755126953125,0.355224609375,-0.5477294921875,-0.70562744140625,-6.6875,-28.1875,13.75,-1.95,9.49,1.44,Nothing,5
3.42,3.356575522,27,3,3,3,0,-1.74,9.63,1.56,0.22,0.13,0.11,-0.1875,3.0625,-7.625,0.2752685546875,0.355712890625,-0.54742431640625,-0.7056884765625,-6.6875,-28.1875,13.75,-1.96,9.49,1.44,Nothing,5
3.43,3.356575522,27,3,3,3,0,-1.7,9.62,1.56,0.27,0.12,0.11,-0.125,3.1875,-7.625,0.2750244140625,0.35614013671875,-0.547119140625,-0.705810546875,-6.6875,-28.1875,13.75,-1.97,9.49,1.44,Nothing,5
3.44,3.384715985,27,3,3,3,0,-1.69,9.57,1.5,0.29,0.07,0.05,0.0,3.5625,-7.8125,0.27484130859375,0.35662841796875,-0.546875,-0.70587158203125,-6.6875,-28.1875,13.75,-1.98,9.49,1.44,Nothing,5
3.45,3.384715985,27,3,3,3,0,-1.74,9.58,1.45,0.25,0.09,0.01,0.1875,4.1875,-7.9375,0.274658203125,0.357177734375,-0.54656982421875,-0.70587158203125,-6.6875,-28.1875,13.75,-2.0,9.49,1.44,Nothing,5
3.46,3.399658164,27,3,3,3,0,-1.76,9.55,1.56,0.24,0.06,0.12,1.5625,4.1875,-7.8125,0.2744140625,0.35772705078125,-0.54632568359375,-0.70587158203125,-7.375,-27.75,14.1875,-2.01,9.48,1.44,Nothing,5
3.47,3.399658164,27,3,3,3,0,-1.82,9.58,1.53,0.2,0.09,0.09,2.375,4.125,-7.625,0.274169921875,0.3582763671875,-0.546142578125,-0.705810546875,-7.375,-27.75,14.1875,-2.02,9.48,1.43,Nothing,5
3.48,3.414676841,27,3,3,3,0,-1.81,9.62,1.58,0.22,0.13,0.14,2.0625,3.5625,-7.4375,0.27392578125,0.35882568359375,-0.5460205078125,-0.70574951171875,-7.375,-27.75,14.1875,-2.03,9.48,1.43,Nothing,5
3.49,3.414676841,27,3,3,3,0,-1.78,9.62,1.56,0.25,0.14,0.13,1.625,3.75,-7.4375,0.273681640625,0.35931396484375,-0.5457763671875,-0.70574951171875,-7.375,-27.75,14.1875,-2.04,9.48,1.43,Nothing,5
3.5,3.446353232,27,3,3,3,0,-1.73,9.5,1.44,0.31,0.02,0.01,0.6875,4.1875,-7.875,0.27349853515625,0.35980224609375,-0.5455322265625,-0.70574951171875,-7.375,-27.75,14.1875,-2.05,9.48,1.42,Nothing,5
3.51,3.446353232,27,3,3,3,0,-1.72,9.51,1.44,0.34,0.03,0.01,0.75,4.125,-8.125,0.2733154296875,0.3603515625,-0.5452880859375,-0.70574951171875,-6.6875,-27.375,13.0,-2.06,9.47,1.42,Nothing,5
3.52,3.461093996,27,3,3,3,0,-1.73,9.5,1.44,0.34,0.02,0.02,2.5,4.4375,-8.375,0.2730712890625,0.36090087890625,-0.545166015625,-0.7056884765625,-6.6875,-27.375,13.0,-2.07,9.47,1.42,Nothing,5
3.53,3.461093996,27,3,3,3,0,-1.8,9.46,1.46,0.28,-0.01,0.04,4.1875,5.0625,-8.625,0.27276611328125,0.36163330078125,-0.54510498046875,-0.70550537109375,-6.6875,-27.375,13.0,-2.08,9.47,1.41,Nothing,5
3.54,3.474421104,27,3,3,3,0,-1.86,9.47,1.5,0.23,0.0,0.09,4.75,5.5,-8.6875,0.2724609375,0.36236572265625,-0.54498291015625,-0.70526123046875,-6.6875,-27.375,13.0,-2.1,9.47,1.4,Nothing,5
3.55,3.474421104,27,3,3,3,0,-1.86,9.51,1.5,0.24,0.03,0.1,4.1875,5.3125,-8.75,0.27215576171875,0.36309814453125,-0.54486083984375,-0.70513916015625,-6.6875,-27.375,13.0,-2.11,9.47,1.39,Nothing,5
3.56,3.504015912,27,3,3,3,0,-1.86,9.52,1.54,0.25,0.04,0.15,3.0,4.5625,-8.9375,0.2718505859375,0.36376953125,-0.544677734375,-0.705078125,-6.375,-27.75,13.375,-2.12,9.47,1.39,Nothing,5
3.57,3.504015912,27,3,3,3,0,-1.83,9.51,1.49,0.3,0.04,0.1,1.8125,3.875,-8.8125,0.27154541015625,0.36431884765625,-0.54449462890625,-0.705078125,-6.375,-27.75,13.375,-2.13,9.46,1.38,Nothing,5
3.58,3.518773114,27,3,3,3,0,-1.84,9.48,1.47,0.3,0.01,0.08,1.0625,3.9375,-9.0625,0.271240234375,0.3648681640625,-0.544189453125,-0.705078125,-6.375,-27.75,13.375,-2.15,9.46,1.38,Nothing,5
3.59,3.518773114,27,3,3,3,0,-1.81,9.45,1.46,0.34,-0.01,0.07,1.25,3.9375,-9.25,0.27099609375,0.36541748046875,-0.5439453125,-0.70513916015625,-6.375,-27.75,13.375,-2.16,9.46,1.38,Nothing,5
3.6,3.533964805,27,3,3,3,0,-1.84,9.48,1.43,0.32,0.01,0.05,1.625,4.5625,-9.125,0.270751953125,0.36602783203125,-0.543701171875,-0.705078125,-6.375,-27.75,13.375,-2.17,9.46,1.38,Nothing,5
3.61,3.533964805,27,3,3,3,0,-1.84,9.48,1.43,0.34,0.02,0.05,2.0625,4.8125,-9.1875,0.2705078125,0.36663818359375,-0.54345703125,-0.70501708984375,-5.5625,-28.1875,13.375,-2.18,9.46,1.37,Nothing,5
3.62,3.565140016,27,3,3,3,0,-1.83,9.48,1.42,0.36,0.02,0.05,2.0,5.0,-9.4375,0.270263671875,0.36724853515625,-0.54327392578125,-0.7049560546875,-5.5625,-28.1875,13.375,-2.19,9.45,1.37,Climbing Up,5
3.63,3.565140016,27,3,3,3,0,-1.83,9.47,1.43,0.37,0.02,0.06,0.875,4.6875,-9.625,0.27001953125,0.3677978515625,-0.54296875,-0.7049560546875,-5.5625,-28.1875,13.375,-2.21,9.45,1.37,Climbing Up,5
3.64,3.579127565,27,3,3,3,0,-1.82,9.45,1.41,0.39,0.0,0.04,0.0,4.3125,-9.8125,0.26983642578125,0.36834716796875,-0.54266357421875,-0.70501708984375,-5.5625,-28.1875,13.375,-2.22,9.45,1.37,Climbing Up,5
3.65,3.579127565,27,3,3,3,0,-1.84,9.43,1.43,0.38,-0.01,0.06,-0.1875,4.5,-10.125,0.26959228515625,0.368896484375,-0.54229736328125,-0.705078125,-5.5625,-28.1875,13.375,-2.23,9.45,1.36,Climbing Up,5
3.66,3.593935793,27,3,3,3,0,-1.85,9.45,1.43,0.38,0.01,0.06,-0.125,5.0,-10.5,0.2694091796875,0.3695068359375,-0.54193115234375,-0.70513916015625,-5.5625,-28.5625,13.375,-2.24,9.44,1.36,Climbing Up,5
3.67,3.593935793,27,3,3,3,0,-1.88,9.46,1.42,0.37,0.02,0.05,0.5,5.4375,-10.625,0.2691650390625,0.3701171875,-0.54156494140625,-0.7052001953125,-5.5625,-28.5625,13.375,-2.25,9.44,1.36,Climbing Up,5
3.68,3.623998618,27,3,3,3,0,-1.92,9.43,1.41,0.34,0.0,0.04,1.1875,5.8125,-10.8125,0.2689208984375,0.37078857421875,-0.541259765625,-0.70513916015625,-5.5625,-28.5625,13.375,-2.27,9.44,1.36,Climbing Up,5
3.69,3.623998618,27,3,3,3,0,-1.99,9.46,1.43,0.29,0.02,0.07,1.3125,6.0,-11.0,0.2686767578125,0.37158203125,-0.5408935546875,-0.70513916015625,-5.5625,-28.5625,13.375,-2.28,9.43,1.36,Climbing Up,5
3.7,3.640125287,27,3,3,3,0,-2.03,9.5,1.42,0.26,0.07,0.07,0.9375,5.625,-11.5,0.268310546875,0.372314453125,-0.54046630859375,-0.70513916015625,-5.5625,-28.5625,13.375,-2.3,9.43,1.35,Climbing Up,5
3.71,3.640125287,27,3,3,3,0,-2.06,9.52,1.42,0.25,0.09,0.06,0.125,5.25,-12.125,0.2679443359375,0.37310791015625,-0.5400390625,-0.70526123046875,-5.5625,-28.1875,13.0,-2.32,9.43,1.35,Climbing Up,5
3.72,3.654331138,27,3,3,3,0,-2.09,9.54,1.45,0.24,0.12,0.09,-0.4375,4.6875,-12.5625,0.26751708984375,0.37384033203125,-0.53955078125,-0.70538330078125,-5.5625,-28.1875,13.0,-2.34,9.42,1.35,Climbing Up,5
3.73,3.654331138,27,3,3,3,0,-2.14,9.51,1.46,0.21,0.09,0.1,-0.75,4.6875,-13.375,0.26708984375,0.3746337890625,-0.53900146484375,-0.70556640625,-5.5625,-28.1875,13.0,-2.36,9.42,1.35,Climbing Up,5
3.74,3.700968711,27,3,3,3,0,-2.13,9.45,1.49,0.24,0.04,0.13,-0.6875,4.875,-13.9375,0.26654052734375,0.37542724609375,-0.53839111328125,-0.70574951171875,-5.5625,-28.1875,13.0,-2.38,9.41,1.35,Climbing Up,5
3.75,3.700968711,27,3,3,3,0,-2.14,9.42,1.49,0.25,0.01,0.13,-0.4375,5.1875,-15.0625,0.2659912109375,0.3763427734375,-0.537841796875,-0.7059326171875,-5.5625,-28.1875,13.0,-2.4,9.41,1.35,Climbing Up,5
3.77,3.715411338,27,3,3,3,0,-2.24,9.34,1.42,0.21,-0.04,0.07,0.25,4.125,-16.4375,0.26458740234375,0.378173828125,-0.53662109375,-0.7064208984375,-4.875,-28.5625,11.75,-2.45,9.39,1.35,Climbing Up,5
3.78,3.715411338,27,3,3,3,0,-2.33,9.33,1.4,0.14,-0.05,0.05,1.5625,4.3125,-17.1875,0.26373291015625,0.37921142578125,-0.53607177734375,-0.70660400390625,-4.875,-28.5625,11.75,-2.48,9.39,1.35,Climbing Up,5
3.79,3.728927207,27,3,3,3,0,-2.42,9.38,1.4,0.08,0.0,0.05,2.9375,4.75,-17.625,0.2628173828125,0.38031005859375,-0.53558349609375,-0.70672607421875,-4.875,-28.5625,11.75,-2.51,9.38,1.34,Climbing Up,5
3.8,3.728927207,27,3,3,3,0,-2.63,9.34,1.45,-0.08,-0.03,0.12,4.25,5.25,-18.0,0.2618408203125,0.381591796875,-0.53509521484375,-0.70672607421875,-4.875,-28.5625,11.75,-2.54,9.37,1.33,Climbing Up,5
3.81,3.743899416,27,3,3,3,0,-2.7,9.26,1.54,-0.12,-0.1,0.21,5.3125,5.9375,-18.375,0.26080322265625,0.3829345703125,-0.53466796875,-0.70672607421875,-4.875,-28.875,12.1875,-2.57,9.37,1.32,Climbing Up,5
3.82,3.743899416,27,3,3,3,0,-2.84,9.12,1.66,-0.23,-0.24,0.35,6.5625,6.75,-18.75,0.259765625,0.38433837890625,-0.5343017578125,-0.70660400390625,-4.875,-28.875,12.1875,-2.6,9.36,1.3,Climbing Up,5
3.83,3.77408065,27,3,3,3,0,-2.98,8.94,1.74,-0.34,-0.41,0.45,7.375,6.875,-19.0,0.2586669921875,0.3858642578125,-0.53399658203125,-0.70648193359375,-4.875,-28.875,12.1875,-2.63,9.35,1.29,Climbing Up,5
3.84,3.77408065,27,3,3,3,0,-3.28,8.57,1.5,-0.61,-0.77,0.22,6.875,6.5625,-19.25,0.257568359375,0.38726806640625,-0.53363037109375,-0.70635986328125,-4.875,-28.875,12.1875,-2.66,9.34,1.28,Climbing Up,5
3.85,3.789378583,27,3,3,3,0,-3.48,8.4,1.22,-0.77,-0.93,-0.04,4.5,6.5,-20.0,0.2564697265625,0.38873291015625,-0.5330810546875,-0.70635986328125,-4.875,-28.875,12.1875,-2.7,9.34,1.26,Climbing Up,5
3.86,3.789378583,27,3,3,3,0,-3.72,8.32,1.01,-0.98,-1.0,-0.24,3.125,5.25,-20.375,0.25537109375,0.39007568359375,-0.532470703125,-0.70648193359375,-3.375,-27.75,11.75,-2.73,9.33,1.26,Climbing Up,5
3.87,3.803791465,27,3,3,3,0,-4.01,8.5,0.86,-1.24,-0.82,-0.38,5.375,3.875,-20.375,0.25408935546875,0.391357421875,-0.531982421875,-0.70660400390625,-3.375,-27.75,11.75,-2.77,9.32,1.25,Climbing Up,5
3.88,3.803791465,27,3,3,3,0,-4.17,8.66,0.85,-1.37,-0.64,-0.37,9.375,4.3125,-20.5,0.25274658203125,0.39276123046875,-0.53179931640625,-0.7064208984375,-3.375,-27.75,11.75,-2.8,9.31,1.23,Climbing Up,5
3.89,3.835222658,27,3,3,3,0,-4.34,8.92,1.04,-1.5,-0.38,-0.16,13.875,3.75,-20.0,0.251220703125,0.39422607421875,-0.5318603515625,-0.70611572265625,-3.375,-27.75,11.75,-2.83,9.3,1.21,Climbing Up,5
3.9,3.835222658,27,3,3,3,0,-4.49,9.17,1.15,-1.62,-0.13,-0.02,16.375,3.4375,-19.25,0.24957275390625,0.39569091796875,-0.5321044921875,-0.70562744140625,-3.375,-27.75,11.75,-2.87,9.3,1.18,Climbing Up,5
3.91,3.848715497,27,3,3,3,0,-4.58,9.46,1.44,-1.68,0.16,0.28,16.6875,3.625,-18.5625,0.248046875,0.39715576171875,-0.53240966796875,-0.70513916015625,-3.75,-28.5625,12.1875,-2.9,9.29,1.15,Climbing Up,5
3.92,3.848715497,27,3,3,3,0,-4.52,9.56,1.57,-1.58,0.27,0.45,16.4375,3.4375,-18.375,0.24652099609375,0.3985595703125,-0.53271484375,-0.70465087890625,-3.75,-28.5625,12.1875,-2.93,9.28,1.12,Climbing Up,5
3.93,3.87916736,27,3,3,3,0,-4.43,9.55,1.7,-1.47,0.27,0.6,16.75,4.25,-18.875,0.24493408203125,0.40008544921875,-0.53302001953125,-0.70416259765625,-3.75,-28.5625,12.1875,-2.96,9.28,1.09,Climbing Up,5
3.94,3.87916736,27,3,3,3,0,-4.33,9.49,1.81,-1.33,0.21,0.74,16.25,5.25,-20.375,0.243408203125,0.4017333984375,-0.533203125,-0.70367431640625,-3.75,-28.5625,12.1875,-2.99,9.27,1.06,Climbing Up,5
3.95,3.893447959,27,3,3,3,0,-4.07,9.33,1.74,-1.04,0.06,0.7,14.1875,4.375,-21.8125,0.24176025390625,0.4033203125,-0.533203125,-0.70330810546875,-3.75,-28.5625,12.1875,-3.03,9.26,1.04,Climbing Up,5
3.96,3.893447959,27,3,3,3,0,-3.96,9.29,1.59,-0.89,0.03,0.57,10.8125,1.1875,-22.375,0.24005126953125,0.4046630859375,-0.53302001953125,-0.7032470703125,-2.6875,-28.1875,10.25,-3.07,9.25,1.02,Climbing Up,5
3.97,3.908646079,27,3,3,3,0,-3.94,9.23,1.42,-0.83,-0.01,0.41,7.0625,-2.625,-22.1875,0.23828125,0.4056396484375,-0.53271484375,-0.70343017578125,-2.6875,-28.1875,10.25,-3.1,9.24,1.01,Climbing Up,5
3.98,3.908646079,27,3,3,3,0,-3.96,9.19,1.3,-0.82,-0.03,0.29,4.4375,-5.25,-20.8125,0.23663330078125,0.4063720703125,-0.5323486328125,-0.703857421875,-2.6875,-28.1875,10.25,-3.13,9.23,1.0,Climbing Up,5
3.99,3.938744102,27,3,3,3,0,-4.06,8.89,1.18,-0.89,-0.32,0.18,5.125,-5.9375,-19.5625,0.23492431640625,0.40704345703125,-0.5321044921875,-0.70428466796875,-2.6875,-28.1875,10.25,-3.17,9.22,1.0,Climbing Up,5
4.0,3.938744102,27,3,3,3,0,-4.13,8.82,1.23,-0.93,-0.39,0.24,10.125,-4.375,-18.5,0.23321533203125,0.4078369140625,-0.53216552734375,-0.704345703125,-2.6875,-28.1875,10.25,-3.19,9.21,0.98,Climbing Up,5
4.01,3.954759808,27,3,3,3,0,-4.22,8.77,1.28,-0.99,-0.43,0.32,18.0,-1.75,-18.25,0.23138427734375,0.408935546875,-0.53265380859375,-0.70391845703125,-2.75,-28.5625,11.75,-3.22,9.2,0.96,Climbing Up,5
4.02,3.954759808,27,3,3,3,0,-4.27,8.81,1.39,-1.01,-0.39,0.47,24.375,0.6875,-18.6875,0.2293701171875,0.41033935546875,-0.533447265625,-0.703125,-2.75,-28.5625,11.75,-3.25,9.2,0.92,Climbing Up,5
4.03,3.969469932,27,3,3,3,0,-4.26,8.86,1.41,-0.97,-0.33,0.53,26.75,1.0,-18.875,0.227294921875,0.411865234375,-0.53436279296875,-0.7022705078125,-2.75,-28.5625,11.75,-3.29,9.19,0.87,Climbing Up,5
4.04,3.969469932,27,3,3,3,0,-4.21,8.87,1.44,-0.89,-0.31,0.6,25.5,-0.5625,-19.375,0.22515869140625,0.4132080078125,-0.53521728515625,-0.70147705078125,-2.75,-28.5625,11.75,-3.32,9.18,0.83,Climbing Up,5
4.05,3.985652753,27,3,3,3,0,-4.18,8.84,1.4,-0.81,-0.32,0.58,22.4375,-2.875,-19.625,0.222412109375,0.41473388671875,-0.53497314453125,-0.70166015625,-2.75,-28.5625,11.75,-3.37,9.17,0.81,Climbing Up,5
4.06,3.985652753,27,3,3,3,0,-4.09,8.64,1.31,-0.67,-0.51,0.51,19.6875,-5.5,-19.4375,0.21966552734375,0.416015625,-0.53466796875,-0.7020263671875,-2.0625,-27.375,11.5,-3.42,9.15,0.8,Climbing Up,5
4.07,4.029568809,27,3,3,3,0,-4.06,8.63,1.25,-0.59,-0.5,0.46,18.25,-6.9375,-19.4375,0.217041015625,0.41705322265625,-0.534423828125,-0.702392578125,-2.0625,-27.375,11.5,-3.47,9.13,0.79,Climbing Up,5
4.08,4.029568809,27,3,3,3,0,-3.98,8.63,1.13,-0.46,-0.48,0.35,17.75,-6.875,-19.5625,0.2144775390625,0.4180908203125,-0.5343017578125,-0.70263671875,-2.0625,-27.375,11.5,-3.51,9.12,0.77,Climbing Up,5
4.09,4.034931602,27,3,3,3,0,-4.0,8.67,1.04,-0.45,-0.43,0.28,17.5,-6.125,-19.8125,0.21234130859375,0.4189453125,-0.53472900390625,-0.70245361328125,-2.0625,-27.375,11.5,-3.54,9.11,0.75,Climbing Up,5
4.1,4.034931602,27,3,3,3,0,-4.03,8.73,1.07,-0.46,-0.37,0.34,16.375,-4.9375,-20.0,0.21026611328125,0.419921875,-0.53509521484375,-0.7022705078125,-2.0625,-27.375,11.5,-3.57,9.1,0.73,Climbing Up,5
4.11,4.060141115,27,3,3,3,0,-4.03,8.72,1.19,-0.43,-0.37,0.48,15.375,-3.375,-19.875,0.20831298828125,0.4208984375,-0.53533935546875,-0.7020263671875,-1.375,-28.1875,12.1875,-3.6,9.09,0.71,Climbing Up,5
4.12,4.060141115,27,3,3,3,0,-4.05,8.63,1.22,-0.41,-0.44,0.53,14.5,-2.375,-19.375,0.20648193359375,0.42193603515625,-0.53558349609375,-0.7017822265625,-1.375,-28.1875,12.1875,-3.63,9.08,0.68,Climbing Up,5
4.13,4.073502037,27,3,3,3,0,-4.07,8.61,1.26,-0.39,-0.45,0.58,13.3125,-2.75,-19.0625,0.20440673828125,0.4229736328125,-0.5350341796875,-0.7021484375,-1.375,-28.1875,12.1875,-3.67,9.06,0.68,Climbing Up,5
4.14,4.073502037,27,3,3,3,0,-4.07,8.63,1.37,-0.35,-0.41,0.69,13.125,-3.25,-18.625,0.202392578125,0.423828125,-0.534423828125,-0.70269775390625,-1.375,-28.1875,12.1875,-3.71,9.04,0.68,Climbing Up,5
4.15,4.089307497,27,3,3,3,0,-4.05,8.62,1.35,-0.29,-0.4,0.67,12.875,-3.125,-18.3125,0.20037841796875,0.42462158203125,-0.5338134765625,-0.7032470703125,-1.375,-28.1875,12.1875,-3.75,9.03,0.68,Climbing Up,5
4.16,4.089307497,27,3,3,3,0,-4.02,8.59,1.34,-0.23,-0.42,0.65,11.5625,-2.8125,-17.6875,0.19854736328125,0.4254150390625,-0.53314208984375,-0.703857421875,-1.6875,-27.0625,11.75,-3.79,9.01,0.68,Climbing Up,5
4.17,4.118773846,27,3,3,3,0,-4.11,8.63,1.21,-0.28,-0.36,0.53,9.625,-2.5625,-17.0,0.19683837890625,0.42608642578125,-0.532470703125,-0.70440673828125,-1.6875,-27.0625,11.75,-3.83,9.0,0.68,Climbing Up,5
4.18,4.118773846,27,3,3,3,0,-4.13,8.67,1.15,-0.27,-0.31,0.47,8.375,-2.25,-16.125,0.19525146484375,0.42681884765625,-0.5318603515625,-0.70489501953125,-1.6875,-27.0625,11.75,-3.86,8.98,0.68,Climbing Up,5
4.19,4.1333619,27,3,3,3,0,-4.16,8.69,1.22,-0.27,-0.28,0.54,8.0,-0.875,-14.75,0.19384765625,0.427490234375,-0.53125,-0.70526123046875,-1.6875,-27.0625,11.75,-3.89,8.97,0.68,Climbing Up,5
4.2,4.1333619,27,3,3,3,0,-4.23,8.68,1.3,-0.31,-0.27,0.62,8.6875,1.3125,-13.375,0.192626953125,0.42828369140625,-0.5306396484375,-0.70562744140625,-1.6875,-27.0625,11.75,-3.92,8.96,0.68,Climbing Up,5
4.21,4.148436485,27,3,3,3,0,-4.34,8.67,1.44,-0.39,-0.27,0.76,10.0,3.0,-12.0625,0.19146728515625,0.4290771484375,-0.52996826171875,-0.7059326171875,-2.0625,-27.0625,13.0625,-3.95,8.94,0.68,Climbing Up,5
4.22,4.148436485,27,3,3,3,0,-4.38,8.65,1.43,-0.4,-0.27,0.74,10.75,4.0,-10.875,0.1903076171875,0.42987060546875,-0.529296875,-0.706298828125,-2.0625,-27.0625,13.0625,-3.97,8.93,0.68,Climbing Up,5
4.23,4.1787935,27,3,3,3,0,-4.39,8.61,1.45,-0.39,-0.31,0.76,10.1875,4.1875,-10.125,0.18927001953125,0.4306640625,-0.52850341796875,-0.7066650390625,-2.0625,-27.0625,13.0625,-4.0,8.92,0.69,Climbing Up,5
4.24,4.1787935,27,3,3,3,0,-4.39,8.54,1.4,-0.35,-0.36,0.7,8.6875,3.5,-9.625,0.18829345703125,0.43133544921875,-0.5277099609375,-0.7071533203125,-2.0625,-27.0625,13.0625,-4.03,8.91,0.69,Climbing Up,5
4.25,4.193231203,27,3,3,3,0,-4.44,8.49,1.22,-0.38,-0.4,0.52,7.6875,2.9375,-9.3125,0.187255859375,0.4320068359375,-0.5269775390625,-0.70751953125,-2.0625,-27.0625,13.0625,-4.05,8.89,0.69,Climbing Up,5
4.26,4.193231203,27,3,3,3,0,-4.45,8.43,1.12,-0.37,-0.45,0.42,7.8125,3.0,-9.125,0.186279296875,0.43280029296875,-0.5263671875,-0.707763671875,-0.6875,-26.75,13.5,-4.08,8.88,0.69,Climbing Up,5
4.27,4.209589113,27,3,3,3,0,-4.47,8.42,1.09,-0.37,-0.45,0.4,9.125,4.5,-9.125,0.185302734375,0.43365478515625,-0.52593994140625,-0.707763671875,-0.6875,-26.75,13.5,-4.1,8.87,0.69,Climbing Up,5
4.28,4.209589113,27,3,3,3,0,-4.5,8.41,1.07,-0.37,-0.45,0.4,11.0625,6.8125,-8.875,0.18463134765625,0.4346923828125,-0.52618408203125,-0.7071533203125,-0.6875,-26.75,13.5,-4.12,8.87,0.67,Climbing Up,5
4.29,4.23889315,27,3,3,3,0,-4.58,8.5,1.21,-0.44,-0.36,0.57,12.875,9.0,-8.6875,0.18402099609375,0.43585205078125,-0.5264892578125,-0.70635986328125,-0.6875,-26.75,13.5,-4.13,8.86,0.64,Climbing Up,5
4.3,4.23889315,27,3,3,3,0,-4.6,8.59,1.3,-0.45,-0.27,0.68,13.75,10.875,-8.25,0.1834716796875,0.4371337890625,-0.52685546875,-0.70550537109375,-0.6875,-26.75,13.5,-4.15,8.86,0.61,Climbing Up,5
4.31,4.253685956,27,3,3,3,1,-4.63,8.61,1.38,-0.45,-0.23,0.78,12.875,11.75,-7.375,0.1827392578125,0.4383544921875,-0.5262451171875,-0.70538330078125,-1.375,-27.0625,13.0625,-4.17,8.85,0.6,Climbing Up,5
4.32,4.253685956,27,3,3,3,1,-4.64,8.58,1.44,-0.43,-0.25,0.84,10.75,11.5,-6.375,0.18218994140625,0.43939208984375,-0.525390625,-0.7054443359375,-1.375,-27.0625,13.0625,-4.2,8.83,0.6,Climbing Up,5
4.33,4.269187828,27,3,3,3,1,-4.6,8.51,1.47,-0.37,-0.3,0.86,8.0625,10.5,-5.1875,0.1817626953125,0.44024658203125,-0.52447509765625,-0.70574951171875,-1.375,-27.0625,13.0625,-4.22,8.82,0.61,Climbing Up,5
4.34,4.269187828,27,3,3,3,1,-4.59,8.53,1.43,-0.35,-0.28,0.81,6.3125,9.375,-4.0625,0.181396484375,0.44085693359375,-0.52349853515625,-0.7061767578125,-1.375,-27.0625,13.0625,-4.24,8.81,0.61,Climbing Up,5
4.35,4.299713462,27,3,3,3,1,-4.6,8.52,1.41,-0.34,-0.28,0.78,5.3125,8.625,-2.875,0.18121337890625,0.44140625,-0.52252197265625,-0.70660400390625,-1.375,-27.0625,13.0625,-4.26,8.81,0.62,Climbing Up,5
4.36,4.299713462,27,3,3,3,1,-4.68,8.53,1.49,-0.41,-0.26,0.85,4.8125,9.125,-1.9375,0.1810302734375,0.44195556640625,-0.52154541015625,-0.70703125,-0.6875,-27.0625,14.6875,-4.27,8.8,0.64,Climbing Up,5
4.37,4.315109418,27,3,3,3,1,-4.71,8.5,1.56,-0.42,-0.28,0.9,4.875,9.75,-0.9375,0.18096923828125,0.44244384765625,-0.52056884765625,-0.70745849609375,-0.6875,-27.0625,14.6875,-4.29,8.79,0.65,Climbing Up,5
4.38,4.315109418,27,3,3,3,1,-4.75,8.41,1.56,-0.44,-0.36,0.89,4.5,9.5625,0.0,0.180908203125,0.44287109375,-0.51953125,-0.70794677734375,-0.6875,-27.0625,14.6875,-4.3,8.78,0.66,Climbing Up,5
4.39,4.329070844,27,3,3,3,1,-4.8,8.38,1.56,-0.48,-0.39,0.87,3.0625,8.0,1.0,0.180908203125,0.4432373046875,-0.5184326171875,-0.70855712890625,-0.6875,-27.0625,14.6875,-4.31,8.77,0.68,Climbing Up,5
4.4,4.329070844,27,3,3,3,1,-4.92,8.36,1.46,-0.59,-0.4,0.76,1.5,5.625,2.1875,0.1807861328125,0.44342041015625,-0.517333984375,-0.709228515625,-0.6875,-27.0625,14.6875,-4.33,8.76,0.7,Climbing Up,5
4.41,4.360637413,27,3,3,3,1,-4.94,8.25,1.41,-0.6,-0.5,0.69,0.5625,4.125,3.3125,0.1806640625,0.44354248046875,-0.51629638671875,-0.71002197265625,-1.0,-26.6875,14.25,-4.34,8.76,0.72,Climbing Up,5
4.42,4.360637413,27,3,3,3,1,-5.0,8.1,1.41,-0.63,-0.64,0.67,0.5,3.9375,4.1875,0.1805419921875,0.4437255859375,-0.51513671875,-0.71075439453125,-1.0,-26.6875,14.25,-4.36,8.75,0.74,Climbing Up,5
4.43,4.374306195,27,3,3,3,1,-5.03,8.05,1.42,-0.68,-0.69,0.68,1.5625,4.25,4.75,0.180908203125,0.44378662109375,-0.51531982421875,-0.71044921875,-1.0,-26.6875,14.25,-4.35,8.75,0.73,Climbing Up,5
4.44,4.374306195,27,3,3,3,1,-5.05,8.09,1.47,-0.7,-0.66,0.74,2.5625,4.9375,4.6875,0.18133544921875,0.44390869140625,-0.51556396484375,-0.7100830078125,-1.0,-26.6875,14.25,-4.34,8.75,0.72,Climbing Up,5
4.45,4.38867322,27,3,3,3,1,-5.06,8.21,1.49,-0.72,-0.54,0.78,3.6875,4.25,4.9375,0.18170166015625,0.44403076171875,-0.51593017578125,-0.709716796875,-1.0,-26.6875,14.25,-4.34,8.76,0.71,Climbing Up,5
4.46,4.38867322,27,3,3,3,1,-5.03,8.33,1.58,-0.7,-0.43,0.87,4.5,3.125,5.4375,0.18194580078125,0.44403076171875,-0.516357421875,-0.70928955078125,-1.375,-26.25,14.6875,-4.33,8.76,0.71,Climbing Up,5
4.47,4.41910661,27,3,3,3,1,-4.99,8.42,1.61,-0.64,-0.33,0.88,4.625,2.3125,6.0,0.181640625,0.444091796875,-0.51544189453125,-0.71002197265625,-1.375,-26.25,14.6875,-4.34,8.76,0.72,Climbing Up,5
4.48,4.41910661,27,3,3,3,1,-5.06,8.64,1.64,-0.72,-0.12,0.92,3.4375,1.6875,6.8125,0.1820068359375,0.44390869140625,-0.515869140625,-0.709716796875,-1.375,-26.25,14.6875,-4.33,8.76,0.72,Climbing Up,5
4.49,4.435739016,27,3,3,3,1,-5.18,8.83,1.71,-0.86,0.06,0.99,1.9375,0.375,8.3125,0.18243408203125,0.443603515625,-0.51629638671875,-0.70947265625,-1.375,-26.25,14.6875,-4.32,8.77,0.71,Climbing Up,5
4.5,4.435739016,27,3,3,3,1,-5.32,9.05,1.76,-1.01,0.27,1.05,2.375,-0.9375,10.5,0.18292236328125,0.44305419921875,-0.516845703125,-0.70928955078125,-1.375,-26.25,14.6875,-4.3,8.77,0.71,Climbing Up,5
4.51,4.448607872,27,3,3,3,1,-5.56,9.7,1.42,-1.27,0.91,0.71,3.1875,-2.0625,12.5625,0.1834716796875,0.44244384765625,-0.51751708984375,-0.70904541015625,-1.375,-26.6875,14.25,-4.29,8.78,0.71,Climbing Up,5
4.52,4.448607872,27,3,3,3,1,-5.74,10.05,1.27,-1.47,1.25,0.56,2.125,-2.625,13.9375,0.18414306640625,0.441650390625,-0.51824951171875,-0.70880126953125,-1.375,-26.6875,14.25,-4.26,8.8,0.71,Climbing Up,5
4.53,4.464870567,27,3,3,3,1,-5.92,10.53,1.24,-1.67,1.71,0.52,0.9375,-4.1875,15.5625,0.18487548828125,0.44073486328125,-0.5189208984375,-0.708740234375,-1.375,-26.6875,14.25,-4.24,8.81,0.71,Climbing Up,5
4.54,4.464870567,27,3,3,3,1,-6.01,10.99,1.18,-1.79,2.17,0.47,1.375,-6.375,16.5,0.185546875,0.43963623046875,-0.51971435546875,-0.70867919921875,-1.375,-26.6875,14.25,-4.21,8.82,0.71,Climbing Up,5
4.55,4.493622154,27,3,3,3,1,-6.46,12.13,1.4,-2.27,3.29,0.68,0.625,-8.375,17.375,0.18621826171875,0.43829345703125,-0.52056884765625,-0.70867919921875,-1.375,-26.6875,14.25,-4.19,8.83,0.72,Climbing Up,5
4.56,4.493622154,27,3,3,3,1,-6.77,12.45,1.54,-2.61,3.6,0.81,-0.125,-9.5,18.9375,0.18695068359375,0.4368896484375,-0.52142333984375,-0.708740234375,-1.6875,-27.0,14.25,-4.16,8.84,0.73,Climbing Up,5
4.57,4.509676882,27,3,3,3,1,-7.08,12.5,1.49,-2.96,3.64,0.75,-3.1875,-7.625,21.125,0.18798828125,0.43536376953125,-0.5220947265625,-0.7088623046875,-1.6875,-27.0,14.25,-4.12,8.86,0.74,Climbing Up,5
4.58,4.509676882,27,3,3,3,1,-7.14,12.22,1.28,-3.05,3.34,0.52,-7.9375,-7.5625,24.5,0.189453125,0.43365478515625,-0.52264404296875,-0.70916748046875,-1.6875,-27.0,14.25,-4.08,8.88,0.76,Climbing Up,5
4.59,4.540330894,27,3,3,3,1,-6.65,11.69,0.61,-2.6,2.79,-0.17,-15.6875,-8.6875,26.25,0.1912841796875,0.43170166015625,-0.52276611328125,-0.70977783203125,-1.6875,-27.0,14.25,-4.04,8.89,0.79,Climbing Up,5
4.6,4.540330894,27,3,3,3,1,-6.29,11.84,0.36,-2.29,2.93,-0.46,-22.6875,-8.0625,26.4375,0.193359375,0.4295654296875,-0.5224609375,-0.710693359375,-1.6875,-27.0,14.25,-4.0,8.91,0.83,Climbing Up,5
4.61,4.55519385,27,3,3,3,1,-6.04,12.14,0.15,-2.08,3.22,-0.71,-22.4375,-5.25,27.0625,0.19561767578125,0.42767333984375,-0.52215576171875,-0.71148681640625,-1.375,-27.6875,16.1875,-3.96,8.92,0.87,Climbing Up,5
4.62,4.55519385,27,3,3,3,1,-5.95,12.73,-0.04,-2.03,3.79,-0.94,-16.0625,-1.75,29.1875,0.19793701171875,0.42596435546875,-0.52227783203125,-0.7117919921875,-1.375,-27.6875,16.1875,-3.91,8.94,0.89,Climbing Up,5
4.63,4.569675661,27,3,3,3,1,-6.06,14.23,-0.06,-2.19,5.27,-0.97,-9.6875,1.9375,31.4375,0.2003173828125,0.4244384765625,-0.52276611328125,-0.71160888671875,-1.375,-27.6875,16.1875,-3.87,8.96,0.91,Climbing Up,5
4.64,4.569675661,27,3,3,3,1,-6.14,14.78,0.21,-2.32,5.79,-0.7,-6.25,5.4375,33.5625,0.202880859375,0.42315673828125,-0.52349853515625,-0.71112060546875,-1.375,-27.6875,16.1875,-3.81,8.98,0.91,Climbing Up,5
4.65,4.598629885,27,3,3,3,1,-5.93,14.82,0.52,-2.17,5.81,-0.4,-5.9375,9.0,35.1875,0.2056884765625,0.4219970703125,-0.52423095703125,-0.71044921875,-1.375,-27.6875,16.1875,-3.76,9.0,0.92,Climbing Up,5
4.66,4.598629885,27,3,3,3,1,-5.3,14.02,0.62,-1.59,4.99,-0.3,-8.5,9.875,35.3125,0.2086181640625,0.4208984375,-0.52484130859375,-0.7098388671875,-3.875,-28.5,14.6875,-3.71,9.02,0.93,Climbing Up,5
4.67,4.603576256,27,3,3,3,1,-5.3,14.02,0.62,-1.59,4.99,-0.3,-8.5,9.875,35.3125,0.2086181640625,0.4208984375,-0.52484130859375,-0.7098388671875,-3.875,-28.5,14.6875,-3.71,9.02,0.93,Climbing Up,5
4.68,4.603576256,27,3,3,3,1,-3.67,11.65,0.02,-0.01,2.6,-0.93,-15.875,6.1875,33.8125,0.21160888671875,0.41943359375,-0.52496337890625,-0.70977783203125,-3.875,-28.5,14.6875,-3.66,9.04,0.95,Climbing Up,5
4.68,4.613646405,27,3,3,3,1,-3.06,10.66,-0.31,0.54,1.6,-1.29,-24.0625,1.3125,32.1875,0.21453857421875,0.4176025390625,-0.52459716796875,-0.710205078125,-3.875,-28.5,14.6875,-3.61,9.06,0.98,Climbing Up,5
4.69,4.613646405,27,3,3,3,1,-2.48,9.82,-0.67,1.07,0.74,-1.7,-27.4375,-0.75,31.9375,0.21746826171875,0.41558837890625,-0.5240478515625,-0.7109375,-3.875,-28.5,14.6875,-3.55,9.07,1.03,Climbing Up,5
4.7,4.643858604,27,3,3,3,1,-1.2,8.33,-1.36,2.3,-0.76,-2.43,-26.4375,1.1875,32.25,0.220458984375,0.4136962890625,-0.52349853515625,-0.71148681640625,-3.875,-28.5,14.6875,-3.5,9.09,1.07,Climbing Up,5
4.71,4.643858604,27,3,3,3,1,-0.7,7.85,-1.59,2.75,-1.25,-2.7,-23.875,6.3125,32.875,0.2236328125,0.412109375,-0.5230712890625,-0.71173095703125,-5.375,-27.0,15.375,-3.45,9.1,1.1,Climbing Up,5
4.72,4.661114748,27,3,3,3,1,-0.49,7.57,-1.78,2.9,-1.55,-2.92,-19.9375,10.6875,33.9375,0.2269287109375,0.41082763671875,-0.5228271484375,-0.7115478515625,-5.375,-27.0,15.375,-3.4,9.12,1.13,Climbing Up,5
4.73,4.661114748,27,3,3,3,1,-0.44,7.46,-1.88,2.91,-1.67,-3.03,-14.375,14.75,35.125,0.23028564453125,0.409912109375,-0.52288818359375,-0.71099853515625,-5.375,-27.0,15.375,-3.35,9.14,1.14,Climbing Up,5
4.74,4.689546186,27,3,3,3,1,-0.34,8.64,-1.85,2.95,-0.51,-3.0,-8.0625,20.625,35.5,0.23370361328125,0.40936279296875,-0.52325439453125,-0.70989990234375,-5.375,-27.0,15.375,-3.3,9.16,1.14,Climbing Up,5
4.75,4.689546186,27,3,3,3,1,-0.26,9.3,-1.99,2.99,0.12,-3.12,-0.9375,31.0,34.9375,0.2373046875,0.40966796875,-0.5238037109375,-0.7081298828125,-5.375,-27.0,15.375,-3.25,9.18,1.13,Climbing Up,5
4.76,4.703665896,27,3,3,3,1,-0.01,9.69,-1.93,3.18,0.48,-3.03,8.0,39.0,34.0625,0.24090576171875,0.41070556640625,-0.52471923828125,-0.70562744140625,-6.75,-28.75,14.6875,-3.2,9.2,1.09,Climbing Up,5
4.77,4.703665896,27,3,3,3,1,0.19,9.85,-1.71,3.35,0.62,-2.75,18.875,41.8125,34.3125,0.2442626953125,0.412109375,-0.5262451171875,-0.70257568359375,-6.75,-28.75,14.6875,-3.15,9.22,1.04,Climbing Up,5
4.78,4.71938607,27,3,3,3,1,-0.1,10.01,-0.95,3.0,0.76,-1.92,31.25,39.625,34.25,0.2470703125,0.41363525390625,-0.52850341796875,-0.69891357421875,-6.75,-28.75,14.6875,-3.1,9.24,0.97,Climbing Up,5
4.79,4.71938607,27,3,3,3,1,-0.58,9.89,-0.41,2.48,0.61,-1.28,46.25,34.0625,31.875,0.2489013671875,0.41522216796875,-0.53179931640625,-0.69488525390625,-6.75,-28.75,14.6875,-3.06,9.27,0.87,Climbing Up,5
4.8,4.749433962,27,3,3,3,1,-1.41,9.52,1.23,1.6,0.22,0.46,56.25,31.9375,28.8125,0.25006103515625,0.41705322265625,-0.5355224609375,-0.6904296875,-6.75,-28.75,14.6875,-3.02,9.29,0.77,Climbing Up,5
4.81,4.749433962,27,3,3,3,1,-2.45,9.42,2.51,0.53,0.1,1.83,40.625,51.0,23.4375,0.25238037109375,0.419921875,-0.5377197265625,-0.6861572265625,-6.75,-28.5,16.5625,-2.98,9.31,0.67,Climbing Up,5
4.82,4.765189333,27,3,3,3,1,-2.71,10.04,2.92,0.25,0.71,2.29,13.9375,50.75,18.75,0.25537109375,0.42236328125,-0.53814697265625,-0.6832275390625,-6.75,-28.5,16.5625,-2.96,9.32,0.62,Climbing Up,5
4.83,4.765189333,27,3,3,3,1,-2.35,9.47,2.16,0.58,0.13,1.53,-11.4375,27.0,17.5625,0.25811767578125,0.42291259765625,-0.53753662109375,-0.682373046875,-6.75,-28.5,16.5625,-2.93,9.33,0.63,Climbing Up,5
4.84,4.77836365,27,3,3,3,1,-2.15,8.73,1.22,0.75,-0.59,0.54,-30.5,7.9375,16.375,0.2606201171875,0.42193603515625,-0.5361328125,-0.68310546875,-6.75,-28.5,16.5625,-2.91,9.33,0.67,Climbing Up,5
4.85,4.77836365,27,3,3,3,1,-2.15,7.4,0.21,0.73,-1.93,-0.51,-34.75,0.5,14.75,0.26275634765625,0.42041015625,-0.53460693359375,-0.68438720703125,-6.75,-28.5,16.5625,-2.88,9.34,0.73,Climbing Up,5
4.86,4.809324425,27,3,3,3,1,-2.16,6.97,-0.06,0.7,-2.37,-0.83,-25.75,3.0625,13.4375,0.2646484375,0.41937255859375,-0.53350830078125,-0.68511962890625,-8.25,-29.1875,17.375,-2.86,9.34,0.77,Climbing Up,5
4.87,4.809324425,27,3,3,3,1,-1.99,6.58,-0.3,0.85,-2.76,-1.08,-10.0625,9.3125,11.25,0.26617431640625,0.419189453125,-0.5330810546875,-0.68499755859375,-8.25,-29.1875,17.375,-2.84,9.35,0.78,Climbing Up,5
4.88,4.824933637,27,3,3,3,1,-1.67,6.45,-0.45,1.15,-2.9,-1.22,6.0625,15.9375,8.5,0.2672119140625,0.41986083984375,-0.533447265625,-0.6839599609375,-8.25,-29.1875,17.375,-2.83,9.35,0.76,Climbing Up,5
4.89,4.824933637,27,3,3,3,1,-1.14,6.21,-0.44,1.68,-3.14,-1.17,18.375,22.5,6.9375,0.26800537109375,0.42132568359375,-0.53424072265625,-0.68206787109375,-8.25,-29.1875,17.375,-2.82,9.36,0.72,Climbing Up,5
4.9,4.838413129,27,3,3,3,1,-1.17,6.06,-0.23,1.64,-3.3,-0.9,26.8125,27.125,5.625,0.26861572265625,0.42333984375,-0.53546142578125,-0.6796875,-8.25,-29.1875,17.375,-2.82,9.36,0.66,Climbing Up,5
4.91,4.838413129,27,3,3,3,1,-1.19,5.92,0.06,1.61,-3.44,-0.53,32.6875,29.1875,4.625,0.26904296875,0.42559814453125,-0.536865234375,-0.67694091796875,-8.875,-29.1875,17.0,-2.81,9.37,0.6,Climbing Up,5
4.92,4.870498538,27,3,3,3,1,-1.28,5.85,0.36,1.53,-3.52,-0.16,36.5,29.375,3.875,0.269287109375,0.427978515625,-0.53851318359375,-0.67401123046875,-8.875,-29.1875,17.0,-2.81,9.37,0.52,Climbing Up,5
4.93,4.870498538,27,3,3,3,1,-1.3,5.9,0.68,1.5,-3.47,0.23,37.5,28.4375,3.3125,0.2694091796875,0.43035888671875,-0.5401611328125,-0.671142578125,-8.875,-29.1875,17.0,-2.81,9.38,0.45,Climbing Up,5
4.94,4.884761111,27,3,3,3,1,-1.29,5.96,0.7,1.51,-3.42,0.32,33.625,25.9375,2.625,0.26953125,0.43255615234375,-0.5416259765625,-0.66845703125,-8.875,-29.1875,17.0,-2.8,9.38,0.38,Climbing Up,5
4.95,4.884761111,27,3,3,3,1,-1.2,6.07,0.52,1.59,-3.31,0.19,24.5,21.375,2.9375,0.269775390625,0.43426513671875,-0.54266357421875,-0.66644287109375,-8.875,-29.1875,17.0,-2.8,9.39,0.33,Climbing Up,5
4.96,4.899942833,27,3,3,3,1,-1.2,6.07,0.52,1.59,-3.31,0.19,24.5,21.375,2.9375,0.269775390625,0.43426513671875,-0.54266357421875,-0.66644287109375,-8.875,-29.1875,17.0,-2.8,9.39,0.33,Climbing Up,5
4.97,4.899942833,27,3,3,3,1,-1.25,6.16,0.33,1.54,-3.22,0.02,12.5625,14.5625,3.3125,0.27020263671875,0.43524169921875,-0.543212890625,-0.66522216796875,-8.875,-29.1875,17.375,-2.79,9.39,0.3,Climbing Up,5
4.97,4.91427816,27,3,3,3,1,-1.5,6.61,-0.01,1.29,-2.77,-0.31,2.25,6.6875,3.8125,0.27069091796875,0.43548583984375,-0.5433349609375,-0.66473388671875,-8.875,-29.1875,17.375,-2.79,9.39,0.29,Climbing Up,5
4.98,4.91427816,27,3,3,3,1,-1.58,6.92,-0.14,1.19,-2.47,-0.45,-4.625,1.1875,4.375,0.27117919921875,0.43524169921875,-0.543212890625,-0.664794921875,-8.875,-29.1875,17.375,-2.78,9.39,0.3,Climbing Up,5
4.99,4.928931318,27,3,3,3,1,-1.63,7.15,-0.25,1.13,-2.24,-0.57,-6.5,-1.8125,4.6875,0.2716064453125,0.43475341796875,-0.5430908203125,-0.6650390625,-8.875,-29.1875,17.375,-2.77,9.39,0.31,Climbing Up,5
5.0,4.928931318,27,3,3,3,1,-1.78,7.33,-0.27,0.98,-2.07,-0.59,-4.5625,-4.0,5.3125,0.27191162109375,0.43414306640625,-0.54315185546875,-0.665283203125,-8.875,-29.1875,17.375,-2.76,9.4,0.32,Climbing Up,5
5.01,4.959357017,27,3,3,3,1,-2.03,7.76,-0.17,0.72,-1.64,-0.5,-1.375,-4.6875,6.375,0.2720947265625,0.43353271484375,-0.54339599609375,-0.66534423828125,-9.1875,-28.875,18.5,-2.75,9.4,0.32,Climbing Up,5
5.02,4.959357017,27,3,3,3,1,-2.18,8.33,-0.11,0.55,-1.07,-0.44,1.75,-3.3125,7.5,0.2723388671875,0.43304443359375,-0.54388427734375,-0.66522216796875,-9.1875,-28.875,18.5,-2.74,9.4,0.32,Climbing Up,5
5.03,4.973879234,27,3,3,3,1,-2.34,9.01,-0.15,0.39,-0.39,-0.47,4.8125,-0.5,6.4375,0.27252197265625,0.43280029296875,-0.54443359375,-0.664794921875,-9.1875,-28.875,18.5,-2.73,9.41,0.31,Climbing Up,5
5.04,4.973879234,27,3,3,3,1,-2.31,10.1,0.04,0.41,0.68,-0.25,5.3125,4.25,4.4375,0.2728271484375,0.4329833984375,-0.5447998046875,-0.664306640625,-9.1875,-28.875,18.5,-2.72,9.41,0.3,Climbing Up,5
5.05,4.98889726,27,3,3,3,1,-2.27,10.74,0.16,0.45,1.32,-0.13,2.5625,9.25,1.5625,0.27325439453125,0.43353271484375,-0.5447998046875,-0.66375732421875,-9.1875,-28.875,18.5,-2.72,9.41,0.29,Climbing Up,5
5.06,4.98889726,27,3,3,3,1,-2.13,11.54,0.29,0.59,2.13,0.0,0.1875,12.3125,-2.375,0.273681640625,0.434326171875,-0.54443359375,-0.663330078125,-10.0,-29.25,18.0625,-2.72,9.41,0.29,Climbing Up,5
5.07,5.029676882,27,3,3,3,1,-1.99,12.35,0.32,0.74,2.94,0.04,1.1875,13.3125,-6.3125,0.27392578125,0.4354248046875,-0.5439453125,-0.66290283203125,-10.0,-29.25,18.0625,-2.73,9.41,0.28,Climbing Up,5
5.08,5.029676882,27,3,3,3,1,-1.59,13.47,0.19,1.16,4.06,-0.07,4.25,13.3125,-9.125,0.27386474609375,0.43670654296875,-0.5435791015625,-0.66241455078125,-10.0,-29.25,18.0625,-2.75,9.4,0.27,Climbing Up,5
5.09,5.038358442,27,3,3,3,1,-1.37,13.65,0.05,1.4,4.24,-0.19,6.125,12.625,-11.125,0.27362060546875,0.4381103515625,-0.543212890625,-0.66192626953125,-10.0,-29.25,18.0625,-2.77,9.4,0.25,Climbing Up,5
5.1,5.038358442,27,3,3,3,1,-1.23,13.59,-0.01,1.56,4.19,-0.25,4.6875,10.0625,-11.875,0.27325439453125,0.43939208984375,-0.54278564453125,-0.66156005859375,-10.0,-29.25,18.0625,-2.79,9.39,0.24,Climbing Up,5
5.11,5.049206464,27,3,3,3,1,-1.12,13.52,0.0,1.68,4.13,-0.23,0.125,6.25,-11.875,0.2728271484375,0.4403076171875,-0.54217529296875,-0.66162109375,-10.25,-29.375,18.875,-2.81,9.39,0.23,Climbing Up,5
5.12,5.049206464,27,3,3,3,1,-1.32,13.25,0.2,1.5,3.86,-0.03,-5.25,2.75,-11.125,0.27252197265625,0.44085693359375,-0.54144287109375,-0.6619873046875,-10.25,-29.375,18.875,-2.82,9.38,0.24,Climbing Up,5
5.13,5.082537112,27,3,3,3,1,-1.5,13.37,0.26,1.33,3.98,0.0,-9.4375,-0.6875,-9.8125,0.2723388671875,0.4410400390625,-0.54052734375,-0.66265869140625,-10.25,-29.375,18.875,-2.84,9.38,0.26,Climbing Up,5
5.14,5.082537112,27,3,3,3,1,-1.59,13.47,0.27,1.26,4.09,0.0,-12.5,-3.25,-8.3125,0.272216796875,0.44091796875,-0.53955078125,-0.66357421875,-10.25,-29.375,18.875,-2.85,9.37,0.28,Climbing Up,5
5.15,5.094671837,27,3,3,3,1,-1.69,13.47,0.24,1.17,4.09,-0.06,-15.8125,-4.8125,-6.125,0.272216796875,0.4405517578125,-0.53857421875,-0.6646728515625,-10.25,-29.375,18.875,-2.86,9.37,0.31,Climbing Up,5
5.16,5.094671837,27,3,3,3,1,-2.37,12.94,0.72,0.49,3.57,0.37,-19.3125,-6.5,-4.5625,0.27239990234375,0.43994140625,-0.53741455078125,-0.6658935546875,-9.0625,-29.0,17.6875,-2.87,9.36,0.34,Climbing Up,5
5.17,5.109202192,27,3,3,3,1,-2.65,12.65,0.85,0.22,3.29,0.46,-22.625,-8.0,-4.1875,0.272705078125,0.4390869140625,-0.53619384765625,-0.6673583984375,-9.0625,-29.0,17.6875,-2.87,9.36,0.38,Climbing Up,5
5.18,5.109202192,27,3,3,3,1,-2.86,12.44,0.53,0.01,3.07,0.1,-26.3125,-9.3125,-5.9375,0.27294921875,0.43817138671875,-0.53466796875,-0.6690673828125,-9.0625,-29.0,17.6875,-2.88,9.36,0.43,Climbing Up,5
5.19,5.138696943,27,3,3,3,1,-3.47,12.58,-0.44,-0.57,3.22,-0.93,-30.75,-11.3125,-9.625,0.27301025390625,0.437255859375,-0.53277587890625,-0.671142578125,-9.0625,-29.0,17.6875,-2.9,9.35,0.49,Climbing Up,5
5.2,5.138696943,27,3,3,3,1,-3.57,12.63,-0.51,-0.65,3.29,-1.06,-28.875,-17.625,-12.4375,0.2725830078125,0.43609619140625,-0.53106689453125,-0.6734619140625,-9.0625,-29.0,17.6875,-2.92,9.34,0.54,Climbing Up,5
5.21,5.154559491,27,3,3,3,1,-3.67,12.71,-0.58,-0.73,3.37,-1.17,-22.4375,-21.5,-14.875,0.2716064453125,0.4349365234375,-0.5296630859375,-0.6756591796875,-10.5625,-29.6875,18.0625,-2.94,9.33,0.59,Climbing Up,5
5.22,5.154559491,27,3,3,3,1,-3.8,12.83,-0.6,-0.84,3.5,-1.22,-13.25,-24.625,-17.0625,0.26995849609375,0.4339599609375,-0.52886962890625,-0.67755126953125,-10.5625,-29.6875,18.0625,-2.96,9.32,0.62,Climbing Up,5
5.23,5.169400271,27,3,3,3,1,-4.34,12.61,-0.73,-1.35,3.3,-1.38,-5.8125,-27.6875,-18.125,0.26788330078125,0.4329833984375,-0.52850341796875,-0.6793212890625,-10.5625,-29.6875,18.0625,-2.99,9.31,0.65,Climbing Up,5
5.24,5.169400271,27,3,3,3,1,-4.55,11.76,-0.71,-1.53,2.45,-1.38,-2.9375,-29.1875,-17.4375,0.265625,0.4320068359375,-0.52838134765625,-0.680908203125,-10.5625,-29.6875,18.0625,-3.01,9.3,0.67,Climbing Up,5
5.25,5.183758263,27,3,3,3,1,-4.55,11.76,-0.71,-1.53,2.45,-1.38,-2.9375,-29.1875,-17.4375,0.265625,0.4320068359375,-0.52838134765625,-0.680908203125,-10.5625,-29.6875,18.0625,-3.01,9.3,0.67,Climbing Up,5
5.26,5.183758263,27,3,3,3,1,-4.61,10.33,-0.56,-1.58,1.03,-1.26,-4.125,-30.5625,-14.4375,0.26348876953125,0.43072509765625,-0.5283203125,-0.68255615234375,-10.5625,-29.6875,18.0625,-3.03,9.29,0.69,Climbing Up,5
5.26,5.19921859,27,3,3,3,1,-4.46,9.06,-0.6,-1.41,-0.22,-1.33,-9.5625,-32.375,-12.0625,0.26165771484375,0.42913818359375,-0.528076171875,-0.68450927734375,-10.25,-31.5,15.75,-3.05,9.29,0.72,Climbing Up,5
5.27,5.19921859,27,3,3,3,1,-4.33,7.67,-0.99,-1.26,-1.61,-1.76,-15.0625,-34.9375,-11.5625,0.25994873046875,0.42724609375,-0.52752685546875,-0.686767578125,-10.25,-31.5,15.75,-3.06,9.28,0.76,Climbing Up,5
5.28,5.230431155,27,3,3,3,1,-4.38,7.19,-1.27,-1.3,-2.07,-2.08,-16.6875,-39.1875,-11.5,0.258056640625,0.42498779296875,-0.52703857421875,-0.689208984375,-10.25,-31.5,15.75,-3.07,9.27,0.81,Climbing Up,5
5.29,5.230431155,27,3,3,3,1,-4.55,6.85,-1.38,-1.46,-2.41,-2.25,-14.9375,-45.4375,-12.25,0.25579833984375,0.4224853515625,-0.52667236328125,-0.69183349609375,-10.25,-31.5,15.75,-3.09,9.26,0.86,Climbing Up,5
5.3,5.244790693,27,3,3,3,1,-4.88,6.69,-1.35,-1.78,-2.56,-2.25,-8.4375,-51.625,-13.5625,0.2529296875,0.4197998046875,-0.52685546875,-0.69439697265625,-10.25,-31.5,15.75,-3.1,9.25,0.9,Climbing Up,5
5.31,5.244790693,27,3,3,3,1,-5.51,6.91,-1.36,-2.39,-2.34,-2.29,3.1875,-54.875,-14.875,0.2493896484375,0.417236328125,-0.5277099609375,-0.69659423828125,-8.75,-31.5,14.5625,-3.11,9.25,0.92,Climbing Up,5
5.32,5.259797244,27,3,3,3,1,-5.6,7.21,-1.45,-2.47,-2.02,-2.38,16.9375,-54.4375,-15.875,0.24530029296875,0.4150390625,-0.52935791015625,-0.6981201171875,-8.75,-31.5,14.5625,-3.13,9.24,0.93,Climbing Up,5
5.33,5.259797244,27,3,3,3,1,-5.37,7.6,-1.42,-2.22,-1.63,-2.33,28.3125,-51.875,-15.75,0.24090576171875,0.4132080078125,-0.53167724609375,-0.698974609375,-8.75,-31.5,14.5625,-3.15,9.24,0.91,Climbing Up,5
5.34,5.289960533,27,3,3,3,1,-5.01,7.95,-1.2,-1.84,-1.27,-2.08,34.25,-44.5,-14.8125,0.2366943359375,0.41192626953125,-0.5341796875,-0.69927978515625,-8.75,-31.5,14.5625,-3.16,9.23,0.88,Climbing Up,5
5.35,5.289960533,27,3,3,3,1,-4.15,8.06,-0.37,-0.96,-1.16,-1.21,36.625,-34.3125,-13.6875,0.23291015625,0.41119384765625,-0.53662109375,-0.69903564453125,-8.75,-31.5,14.5625,-3.18,9.23,0.84,Climbing Up,5
5.36,5.303585248,27,3,3,3,1,-3.88,8.04,0.22,-0.68,-1.19,-0.56,37.4375,-24.6875,-13.25,0.2296142578125,0.41107177734375,-0.5389404296875,-0.69842529296875,-8.0625,-31.875,16.0625,-3.2,9.23,0.79,Climbing Up,5
5.37,5.303585248,27,3,3,3,1,-3.56,8.06,0.73,-0.34,-1.16,-0.01,36.6875,-17.625,-13.3125,0.22662353515625,0.411376953125,-0.54107666015625,-0.69757080078125,-8.0625,-31.875,16.0625,-3.22,9.23,0.74,Climbing Up,5
5.38,5.319104739,27,3,3,3,1,-2.64,8.11,1.62,0.59,-1.11,0.92,34.5625,-17.25,-14.1875,0.22369384765625,0.41168212890625,-0.54302978515625,-0.69683837890625,-8.0625,-31.875,16.0625,-3.24,9.22,0.69,Climbing Up,5
5.39,5.319104739,27,3,3,3,1,-2.14,8.06,1.84,1.12,-1.15,1.18,29.625,-24.6875,-15.625,0.22052001953125,0.41156005859375,-0.5447998046875,-0.69659423828125,-8.0625,-31.875,16.0625,-3.26,9.22,0.66,Climbing Up,5
5.4,5.349208336,27,3,3,3,1,-1.84,7.84,1.8,1.43,-1.36,1.15,21.5,-36.5,-17.3125,0.21697998046875,0.41058349609375,-0.54620361328125,-0.6971435546875,-8.0625,-31.875,16.0625,-3.28,9.21,0.64,Climbing Up,5
5.41,5.349208336,27,3,3,3,1,-1.8,7.53,1.47,1.5,-1.67,0.81,12.6875,-47.75,-17.875,0.213134765625,0.40875244140625,-0.5472412109375,-0.6986083984375,-7.0,-31.5,15.25,-3.31,9.2,0.65,Climbing Up,5
5.42,5.364472211,27,3,3,3,1,-1.92,6.92,0.7,1.4,-2.27,0.03,4.75,-53.4375,-17.375,0.2093505859375,0.40643310546875,-0.54791259765625,-0.7005615234375,-7.0,-31.5,15.25,-3.33,9.19,0.67,Climbing Up,5
5.43,5.364472211,27,3,3,3,1,-1.89,6.68,0.38,1.46,-2.5,-0.32,-0.1875,-52.8125,-16.0,0.205810546875,0.40399169921875,-0.54827880859375,-0.70269775390625,-7.0,-31.5,15.25,-3.35,9.18,0.7,Climbing Up,5
5.44,5.379040774,27,3,3,3,1,-1.81,6.52,0.13,1.55,-2.65,-0.6,-2.25,-47.1875,-14.125,0.2027587890625,0.4017333984375,-0.54852294921875,-0.7047119140625,-7.0,-31.5,15.25,-3.37,9.17,0.74,Climbing Up,5
5.45,5.379040774,27,3,3,3,1,-1.74,6.33,-0.02,1.63,-2.84,-0.78,-1.0625,-40.0625,-11.625,0.2001953125,0.3997802734375,-0.54876708984375,-0.70635986328125,-7.0,-31.5,15.25,-3.38,9.17,0.76,Climbing Up,5
5.46,5.409553347,27,3,3,3,1,-1.46,6.02,-0.2,1.92,-3.14,-0.97,3.625,-33.75,-8.625,0.1978759765625,0.398193359375,-0.54931640625,-0.70745849609375,-5.0625,-31.1875,16.875,-3.39,9.16,0.77,Climbing Up,5
5.47,5.409553347,27,3,3,3,1,-1.39,5.97,-0.22,2.0,-3.19,-1.0,9.625,-27.375,-5.4375,0.1959228515625,0.39697265625,-0.5501708984375,-0.70806884765625,-5.0625,-31.1875,16.875,-3.39,9.16,0.77,Climbing Up,5
5.48,5.423887047,27,3,3,3,1,-1.28,6.0,-0.2,2.11,-3.16,-0.96,15.9375,-21.25,-2.9375,0.19415283203125,0.39605712890625,-0.55145263671875,-0.70806884765625,-5.0625,-31.1875,16.875,-3.4,9.16,0.76,Climbing Up,5
5.49,5.423887047,27,3,3,3,1,-1.28,6.1,-0.08,2.11,-3.06,-0.82,21.4375,-14.625,-0.875,0.192626953125,0.39556884765625,-0.552978515625,-0.70751953125,-5.0625,-31.1875,16.875,-3.39,9.16,0.73,Climbing Up,5
5.5,5.438999311,27,3,3,3,1,-1.44,6.25,0.24,1.94,-2.91,-0.45,26.5,-8.8125,0.875,0.19134521484375,0.39544677734375,-0.5548095703125,-0.70654296875,-5.0625,-31.1875,16.875,-3.39,9.17,0.7,Climbing Up,5
5.51,5.438999311,27,3,3,3,1,-1.5,6.38,0.46,1.89,-2.79,-0.19,29.6875,-3.875,2.0625,0.19024658203125,0.3956298828125,-0.55682373046875,-0.70513916015625,-5.5,-32.25,16.5,-3.39,9.17,0.65,Climbing Up,5
5.52,5.453740115,27,3,3,3,1,-1.67,6.64,0.69,1.7,-2.54,0.08,31.125,-0.125,3.75,0.18939208984375,0.39593505859375,-0.55889892578125,-0.70355224609375,-5.5,-32.25,16.5,-3.38,9.18,0.6,Climbing Up,5
5.53,5.453740115,27,3,3,3,1,-1.67,6.64,0.69,1.7,-2.54,0.08,31.125,-0.125,3.75,0.18939208984375,0.39593505859375,-0.55889892578125,-0.70355224609375,-5.5,-32.25,16.5,-3.38,9.18,0.6,Climbing Up,5
5.53,5.468812706,27,3,3,3,1,-2.55,7.09,1.2,0.82,-2.09,0.64,30.1875,1.75,4.6875,0.18878173828125,0.39630126953125,-0.5609130859375,-0.701904296875,-5.5,-32.25,16.5,-3.37,9.18,0.55,Climbing Up,5
5.54,5.468812706,27,3,3,3,1,-2.86,7.45,1.34,0.5,-1.74,0.83,26.875,2.0,4.0,0.18817138671875,0.39666748046875,-0.56268310546875,-0.700439453125,-5.5,-32.25,16.5,-3.37,9.19,0.51,Climbing Up,5
5.55,5.501321455,27,3,3,3,1,-3.1,7.89,1.37,0.25,-1.3,0.89,21.9375,-0.0625,3.125,0.1876220703125,0.39691162109375,-0.56414794921875,-0.6993408203125,-5.5,-32.25,16.5,-3.36,9.19,0.47,Climbing Up,5
5.56,5.501321455,27,3,3,3,1,-3.32,8.4,1.35,0.03,-0.79,0.9,16.5625,-4.375,1.75,0.1868896484375,0.3968505859375,-0.5653076171875,-0.6986083984375,-5.5,-31.875,18.875,-3.36,9.2,0.45,Climbing Up,5
5.57,5.519372683,27,3,3,3,1,-3.94,10.16,1.19,-0.58,0.96,0.75,11.25,-8.6875,0.0625,0.18609619140625,0.396484375,-0.56610107421875,-0.69830322265625,-5.5,-31.875,18.875,-3.36,9.2,0.43,Climbing Up,5
5.58,5.519372683,27,3,3,3,1,-4.51,11.25,1.26,-1.15,2.05,0.83,6.75,-11.1875,-1.1875,0.18524169921875,0.39599609375,-0.56671142578125,-0.6983642578125,-5.5,-31.875,18.875,-3.36,9.2,0.43,Climbing Up,5
5.59,5.529296634,27,3,3,3,1,-5.12,12.44,1.43,-1.76,3.24,1.0,3.75,-9.6875,-1.375,0.18450927734375,0.3955078125,-0.5670166015625,-0.69854736328125,-5.5,-31.875,18.875,-3.36,9.2,0.43,Climbing Up,5
5.6,5.529296634,27,3,3,3,1,-5.64,13.28,1.59,-2.27,4.08,1.16,2.5,-2.25,0.875,0.18438720703125,0.3953857421875,-0.5672607421875,-0.698486328125,-5.5,-31.875,18.875,-3.36,9.2,0.42,Climbing Up,5
5.61,5.560957685,27,3,3,3,1,-6.55,13.58,1.56,-3.19,4.38,1.14,1.5625,9.25,4.3125,0.18505859375,0.395751953125,-0.5673828125,-0.697998046875,-5.875,-31.5,20.5,-3.35,9.2,0.42,Climbing Up,5
5.62,5.560957685,27,3,3,3,1,-7.03,13.14,1.62,-3.68,3.93,1.21,-2.0625,16.9375,6.5625,0.1864013671875,0.39642333984375,-0.56719970703125,-0.6973876953125,-5.875,-31.5,20.5,-3.34,9.2,0.41,Climbing Up,5
5.63,5.574619998,27,3,3,3,1,-7.17,12.53,1.57,-3.83,3.32,1.15,-9.9375,17.1875,6.625,0.18798828125,0.39697265625,-0.56658935546875,-0.69720458984375,-5.875,-31.5,20.5,-3.33,9.21,0.41,Climbing Up,5
5.64,5.574619998,27,3,3,3,1,-6.94,12.29,1.38,-3.61,3.07,0.94,-19.0625,9.875,6.1875,0.18951416015625,0.39697265625,-0.56549072265625,-0.69769287109375,-5.875,-31.5,20.5,-3.33,9.21,0.44,Climbing Up,5
5.65,5.589013675,27,3,3,3,1,-6.11,11.84,0.88,-2.79,2.62,0.39,-24.625,0.4375,7.6875,0.1907958984375,0.39617919921875,-0.564208984375,-0.69873046875,-5.875,-31.5,20.5,-3.31,9.21,0.48,Climbing Up,5
5.66,5.589013675,27,3,3,3,1,-5.69,11.59,0.7,-2.4,2.37,0.18,-24.375,-4.6875,12.3125,0.19219970703125,0.3948974609375,-0.563232421875,-0.69989013671875,-5.875,-31.1875,20.5,-3.29,9.22,0.52,Climbing Up,5
5.67,5.619412397,27,3,3,3,1,-5.29,11.5,0.56,-2.02,2.27,0.0,-17.6875,-5.75,18.3125,0.193603515625,0.39337158203125,-0.5628662109375,-0.70068359375,-5.875,-31.1875,20.5,-3.26,9.22,0.55,Climbing Up,5
5.69,5.619412397,27,3,3,3,1,-4.76,12.08,0.28,-1.53,2.83,-0.28,-7.25,-3.625,24.3125,0.1951904296875,0.391845703125,-0.5633544921875,-0.70074462890625,-5.875,-31.1875,20.5,-3.22,9.24,0.57,Climbing Up,5
5.7,5.634115563,27,3,3,3,1,-4.75,12.6,0.3,-1.57,3.34,-0.26,1.75,1.4375,30.4375,0.197021484375,0.39044189453125,-0.564453125,-0.7000732421875,-5.875,-31.1875,20.5,-3.17,9.25,0.56,Climbing Up,5
5.7,5.634115563,27,3,3,3,1,-4.68,13.07,0.27,-1.56,3.79,-0.27,5.5625,8.0625,35.1875,0.19940185546875,0.38934326171875,-0.56585693359375,-0.69891357421875,-5.875,-31.1875,20.5,-3.12,9.27,0.55,Climbing Up,5
5.71,5.649354617,27,3,3,3,1,-4.46,13.53,0.25,-1.4,4.23,-0.28,3.0,13.9375,39.0,0.20233154296875,0.3883056640625,-0.567138671875,-0.69757080078125,-5.875,-31.5,17.6875,-3.06,9.3,0.54,Climbing Up,5
5.72,5.649354617,27,3,3,3,1,-3.69,13.4,-0.09,-0.69,4.08,-0.63,-3.125,17.0,41.1875,0.205810546875,0.38726806640625,-0.56805419921875,-0.6964111328125,-5.875,-31.5,17.6875,-2.99,9.32,0.53,Climbing Up,5
5.73,5.679985314,27,3,3,3,1,-3.22,12.88,-0.48,-0.29,3.54,-1.03,-9.0625,15.8125,41.75,0.20941162109375,0.385986328125,-0.568603515625,-0.695556640625,-5.875,-31.5,17.6875,-2.93,9.34,0.54,Climbing Up,5
5.74,5.679985314,27,3,3,3,1,-2.88,12.16,-0.94,-0.02,2.8,-1.5,-13.3125,10.125,39.6875,0.2127685546875,0.3843994140625,-0.5689697265625,-0.6951904296875,-5.875,-31.5,17.6875,-2.86,9.36,0.55,Climbing Up,5
5.75,5.694806155,27,3,3,3,1,-2.67,11.27,-1.35,0.13,1.89,-1.94,-18.625,4.0,35.375,0.2156982421875,0.382568359375,-0.5689697265625,-0.6953125,-5.875,-31.5,17.6875,-2.8,9.37,0.58,Climbing Up,5
5.77,5.694806155,27,3,3,3,2,-2.24,9.9,-1.99,0.51,0.51,-2.61,-25.4375,1.8125,30.1875,0.218505859375,0.38067626953125,-0.568359375,-0.6959228515625,-7.25,-32.25,18.5,-2.76,9.38,0.62,Climbing Up,5
5.78,5.709694217,27,3,3,3,2,-1.74,9.54,-2.35,0.96,0.14,-3.02,-29.875,4.5625,25.6875,0.22125244140625,0.379150390625,-0.56732177734375,-0.69671630859375,-7.25,-32.25,18.5,-2.71,9.39,0.67,Climbing Up,5
5.78,5.709694217,27,3,3,3,2,-1.1,9.48,-2.61,1.57,0.07,-3.33,-30.9375,9.625,22.25,0.22412109375,0.37799072265625,-0.56597900390625,-0.697509765625,-7.25,-32.25,18.5,-2.68,9.4,0.72,Climbing Up,5
5.79,5.724449222,27,3,3,3,2,-1.1,9.48,-2.61,1.57,0.07,-3.33,-30.9375,9.625,22.25,0.22412109375,0.37799072265625,-0.56597900390625,-0.697509765625,-7.25,-32.25,18.5,-2.68,9.4,0.72,Climbing Up,5
5.8,5.724449222,27,3,3,3,2,-0.51,9.41,-2.78,2.13,0.0,-3.54,-29.6875,17.375,20.0,0.2271728515625,0.37750244140625,-0.56451416015625,-0.697998046875,-7.25,-32.25,18.5,-2.65,9.41,0.76,Climbing Up,5
5.8,5.738781904,27,3,3,3,2,0.44,9.48,-2.89,3.07,0.07,-3.68,-27.75,27.6875,18.3125,0.23052978515625,0.37774658203125,-0.56292724609375,-0.69805908203125,-7.25,-32.25,18.5,-2.62,9.41,0.79,Climbing Up,5
5.81,5.738781904,27,3,3,3,2,0.76,9.53,-2.89,3.37,0.11,-3.7,-24.0,38.375,16.0,0.23419189453125,0.37884521484375,-0.56121826171875,-0.6976318359375,-8.5,-31.875,18.75,-2.6,9.41,0.81,Climbing Up,5
5.82,5.770056766,27,3,3,3,2,0.97,9.5,-2.76,3.56,0.08,-3.58,-15.25,44.875,13.4375,0.23773193359375,0.380615234375,-0.559814453125,-0.69659423828125,-8.5,-31.875,18.75,-2.58,9.42,0.81,Climbing Up,5
5.83,5.770056766,27,3,3,3,2,0.89,9.36,-2.52,3.47,-0.06,-3.32,-2.9375,46.1875,11.375,0.24078369140625,0.3828125,-0.55908203125,-0.6949462890625,-8.5,-31.875,18.75,-2.57,9.42,0.8,Climbing Up,5
5.84,5.784578535,27,3,3,3,2,0.25,9.34,-1.82,2.81,-0.08,-2.59,11.0,44.875,10.5625,0.24322509765625,0.38525390625,-0.5592041015625,-0.692626953125,-8.5,-31.875,18.75,-2.56,9.43,0.76,Climbing Up,5
5.86,5.784578535,27,3,3,3,2,-0.09,9.31,-1.43,2.46,-0.12,-2.13,25.25,40.625,9.9375,0.24493408203125,0.38775634765625,-0.56024169921875,-0.6898193359375,-8.5,-31.875,18.75,-2.55,9.44,0.7,Climbing Up,5
5.86,5.799917605,27,3,3,3,2,-0.55,9.22,-0.99,1.98,-0.22,-1.62,36.375,37.0625,8.375,0.24603271484375,0.39031982421875,-0.5618896484375,-0.6865234375,-8.5,-32.25,16.375,-2.54,9.45,0.62,Climbing Up,5
5.87,5.799917605,27,3,3,3,2,-3.2,8.78,1.21,-0.66,-0.67,0.68,44.375,40.125,7.125,0.2469482421875,0.39337158203125,-0.56396484375,-0.68280029296875,-8.5,-32.25,16.375,-2.53,9.45,0.53,Climbing Up,5
5.88,5.828977664,27,3,3,3,2,-3.87,8.35,1.31,-1.33,-1.1,0.87,41.6875,64.0,4.3125,0.2489013671875,0.3978271484375,-0.56524658203125,-0.67840576171875,-8.5,-32.25,16.375,-2.53,9.46,0.43,Climbing Up,5
5.89,5.828977664,27,3,3,3,2,-3.93,8.02,1.99,-1.39,-1.44,1.65,34.125,73.8125,2.875,0.25152587890625,0.40283203125,-0.5657958984375,-0.674072265625,-8.5,-32.25,16.375,-2.53,9.46,0.34,Climbing Up,5
5.9,5.843643517,27,3,3,3,2,-3.53,7.75,2.15,-1.0,-1.71,1.86,19.0,58.625,4.625,0.2540283203125,0.40643310546875,-0.5657958984375,-0.67095947265625,-8.5,-32.25,16.375,-2.52,9.47,0.28,Climbing Up,5
5.91,5.843643517,27,3,3,3,2,-2.52,7.03,1.05,0.0,-2.43,0.77,-2.6875,35.9375,5.625,0.2562255859375,0.408203125,-0.5650634765625,-0.66961669921875,-10.5625,-31.875,18.75,-2.52,9.47,0.27,Climbing Up,5
5.92,5.859153079,27,3,3,3,2,-2.01,6.8,0.31,0.49,-2.67,0.01,-16.6875,15.5,5.1875,0.25787353515625,0.40850830078125,-0.56396484375,-0.66973876953125,-10.5625,-31.875,18.75,-2.51,9.47,0.29,Climbing Up,5
5.94,5.859153079,27,3,3,3,2,-1.58,6.74,-0.2,0.92,-2.72,-0.53,-18.875,3.5,4.0,0.25897216796875,0.4080810546875,-0.56292724609375,-0.67047119140625,-10.5625,-31.875,18.75,-2.5,9.47,0.32,Climbing Up,5
5.95,5.889804568,27,3,3,3,2,-1.29,6.6,-0.53,1.2,-2.87,-0.87,-13.3125,0.25,1.9375,0.25958251953125,0.40765380859375,-0.562255859375,-0.6710205078125,-10.5625,-31.875,18.75,-2.5,9.47,0.34,Climbing Up,5
5.95,5.889804568,27,3,3,3,2,-1.18,6.22,-0.67,1.31,-3.25,-1.03,-5.1875,2.375,0.0625,0.2598876953125,0.40771484375,-0.5618896484375,-0.67120361328125,-10.5625,-31.875,18.75,-2.5,9.47,0.35,Climbing Up,5
5.96,5.903459516,27,3,3,3,2,-1.27,6.0,-0.69,1.23,-3.47,-1.03,2.5625,6.875,-1.875,0.260009765625,0.40826416015625,-0.5618896484375,-0.67083740234375,-9.875,-32.6875,18.75,-2.5,9.47,0.34,Climbing Up,5
5.97,5.903459516,27,3,3,3,2,-1.27,5.8,-0.65,1.23,-3.66,-0.98,8.125,11.8125,-4.1875,0.26007080078125,0.40936279296875,-0.56195068359375,-0.67010498046875,-9.875,-32.6875,18.75,-2.51,9.47,0.32,Climbing Up,5
5.98,5.918643517,27,3,3,3,2,-1.23,5.72,-0.61,1.28,-3.74,-0.91,10.125,16.125,-6.375,0.2601318359375,0.41082763671875,-0.56195068359375,-0.66912841796875,-9.875,-32.6875,18.75,-2.52,9.47,0.3,Climbing Up,5
5.99,5.918643517,27,3,3,3,2,-1.02,5.53,-0.46,1.51,-3.93,-0.74,9.25,19.125,-7.625,0.26025390625,0.41253662109375,-0.56182861328125,-0.66815185546875,-9.875,-32.6875,18.75,-2.53,9.46,0.27,Climbing Up,5
6.01,5.94940845,27,3,3,3,2,-0.96,5.56,-0.41,1.58,-3.89,-0.66,6.6875,20.625,-8.125,0.26055908203125,0.414306640625,-0.56146240234375,-0.667236328125,-9.875,-32.6875,18.75,-2.55,9.46,0.25,Climbing Up,5
6.02,5.94940845,27,3,3,3,2,-0.92,5.63,-0.36,1.64,-3.82,-0.6,4.4375,20.125,-7.8125,0.26092529296875,0.41595458984375,-0.56103515625,-0.66644287109375,-10.5,-32.6875,17.1875,-2.56,9.46,0.23,Climbing Up,5
6.03,5.964414106,27,3,3,3,2,-0.9,6.06,-0.29,1.67,-3.39,-0.52,3.0,18.6875,-6.6875,0.2613525390625,0.41748046875,-0.560546875,-0.66571044921875,-10.5,-32.6875,17.1875,-2.57,9.45,0.22,Climbing Up,5
6.03,5.964414106,27,3,3,3,2,-0.98,6.27,-0.25,1.6,-3.17,-0.47,2.6875,16.6875,-5.5625,0.26171875,0.41876220703125,-0.56011962890625,-0.66510009765625,-10.5,-32.6875,17.1875,-2.58,9.45,0.21,Climbing Up,5
6.04,5.978989586,27,3,3,3,2,-1.11,6.4,-0.2,1.48,-3.05,-0.4,3.1875,13.75,-4.375,0.26202392578125,0.41986083984375,-0.55987548828125,-0.66448974609375,-10.5,-32.6875,17.1875,-2.59,9.45,0.2,Climbing Up,5
6.05,5.978989586,27,3,3,3,2,-1.11,6.4,-0.2,1.48,-3.05,-0.4,3.1875,13.75,-4.375,0.26202392578125,0.41986083984375,-0.55987548828125,-0.66448974609375,-10.5,-32.6875,17.1875,-2.59,9.45,0.2,Climbing Up,5
6.06,5.994359378,27,3,3,3,2,-1.22,6.57,-0.17,1.37,-2.87,-0.36,3.25,11.3125,-2.5625,0.2623291015625,0.42071533203125,-0.55975341796875,-0.6639404296875,-10.5,-32.6875,17.1875,-2.59,9.45,0.18,Climbing Up,5
6.07,5.994359378,27,3,3,3,2,-1.56,7.14,-0.01,1.03,-2.3,-0.19,2.1875,8.9375,-0.1875,0.2626953125,0.42132568359375,-0.5596923828125,-0.66351318359375,-9.375,-32.25,17.5625,-2.59,9.45,0.18,Climbing Up,5
6.08,6.009520796,27,3,3,3,2,-1.8,7.56,0.02,0.79,-1.89,-0.14,0.25,7.0625,1.875,0.26312255859375,0.421630859375,-0.55963134765625,-0.6632080078125,-9.375,-32.25,17.5625,-2.59,9.45,0.17,Climbing Up,5
6.09,6.009520796,27,3,3,3,2,-1.97,8.08,0.01,0.61,-1.36,-0.16,-2.1875,7.4375,3.4375,0.2637939453125,0.421875,-0.5594482421875,-0.66290283203125,-9.375,-32.25,17.5625,-2.59,9.45,0.17,Climbing Up,5
6.1,6.039549686,27,3,3,3,2,-2.18,8.68,0.08,0.39,-0.77,-0.09,-5.1875,9.25,4.125,0.26470947265625,0.42205810546875,-0.55914306640625,-0.6627197265625,-9.375,-32.25,17.5625,-2.58,9.45,0.18,Climbing Up,5
6.11,6.039549686,27,3,3,3,2,-2.41,10.09,0.37,0.16,0.62,0.18,-8.125,11.5625,4.25,0.26580810546875,0.42236328125,-0.55859375,-0.66253662109375,-9.375,-32.25,17.5625,-2.57,9.46,0.18,Climbing Up,5
6.11,6.054238691,27,3,3,3,2,-2.39,10.87,0.43,0.17,1.41,0.23,-11.3125,14.25,3.375,0.26708984375,0.4227294921875,-0.5577392578125,-0.6624755859375,-9.75,-32.25,19.1875,-2.57,9.46,0.2,Climbing Up,5
6.12,6.054238691,27,3,3,3,2,-2.31,11.72,0.49,0.24,2.26,0.27,-15.75,16.5,1.4375,0.26861572265625,0.42327880859375,-0.5565185546875,-0.66259765625,-9.75,-32.25,19.1875,-2.56,9.46,0.21,Climbing Up,5
6.13,6.069696129,27,3,3,3,2,-2.22,12.58,0.52,0.34,3.12,0.28,-18.25,17.3125,-2.3125,0.26995849609375,0.4239501953125,-0.55499267578125,-0.662841796875,-9.75,-32.25,19.1875,-2.57,9.46,0.24,Climbing Up,5
6.14,6.069696129,27,3,3,3,2,-2.07,13.31,0.54,0.51,3.86,0.28,-17.0,18.0625,-6.8125,0.2711181640625,0.4249267578125,-0.5533447265625,-0.66314697265625,-9.75,-32.25,19.1875,-2.58,9.45,0.26,Climbing Up,5
6.15,6.100203982,27,3,3,3,2,-2.18,13.2,0.59,0.41,3.75,0.32,-14.0625,16.375,-10.9375,0.27178955078125,0.42608642578125,-0.5517578125,-0.6634521484375,-9.75,-32.25,19.1875,-2.6,9.45,0.27,Climbing Up,5
6.17,6.100203982,27,3,3,3,2,-2.37,13.12,0.75,0.24,3.67,0.46,-13.75,14.0625,-13.75,0.27215576171875,0.42718505859375,-0.55010986328125,-0.66387939453125,-9.375,-33.375,16.75,-2.62,9.44,0.29,Climbing Up,5
6.18,6.114649987,27,3,3,3,2,-2.6,13.08,0.81,0.05,3.64,0.49,-15.6875,13.3125,-15.75,0.27252197265625,0.4283447265625,-0.54833984375,-0.66448974609375,-9.375,-33.375,16.75,-2.65,9.43,0.31,Climbing Up,5
6.19,6.114649987,27,3,3,3,2,-2.66,13.42,0.75,0.01,4.0,0.41,-18.0,12.3125,-17.0,0.27276611328125,0.429443359375,-0.54638671875,-0.665283203125,-9.375,-33.375,16.75,-2.68,9.42,0.33,Climbing Up,5
6.2,6.129512861,27,3,3,3,2,-2.58,13.61,0.74,0.12,4.2,0.38,-20.125,10.0625,-17.5625,0.27301025390625,0.430419921875,-0.5443115234375,-0.666259765625,-9.375,-33.375,16.75,-2.7,9.41,0.36,Climbing Up,5
6.2,6.129512861,27,3,3,3,2,-2.49,13.75,0.75,0.24,4.34,0.36,-22.0,7.125,-17.1875,0.273193359375,0.43109130859375,-0.542236328125,-0.66741943359375,-9.375,-33.375,16.75,-2.73,9.4,0.39,Climbing Up,5
6.21,6.160194664,27,3,3,3,2,-2.3,13.62,0.76,0.46,4.22,0.33,-22.75,3.0,-16.875,0.273193359375,0.4315185546875,-0.54022216796875,-0.66876220703125,-10.1875,-33.375,17.1875,-2.76,9.39,0.42,Climbing Up,5
6.22,6.160194664,27,3,3,3,2,-2.3,13.23,0.71,0.48,3.84,0.24,-22.75,-2.1875,-16.1875,0.27301025390625,0.431640625,-0.53839111328125,-0.6702880859375,-10.1875,-33.375,17.1875,-2.79,9.38,0.46,Climbing Up,5
6.23,6.174041995,27,3,3,3,2,-2.52,13.27,0.42,0.29,3.89,-0.08,-22.1875,-8.1875,-15.4375,0.2725830078125,0.43133544921875,-0.5367431640625,-0.6719970703125,-10.1875,-33.375,17.1875,-2.81,9.38,0.5,Climbing Up,5
6.25,6.174041995,27,3,3,3,2,-2.95,13.71,-0.02,-0.11,4.33,-0.57,-21.8125,-13.3125,-15.625,0.2718505859375,0.43072509765625,-0.53515625,-0.67388916015625,-10.1875,-33.375,17.1875,-2.83,9.37,0.54,Climbing Up,5
6.26,6.188437625,27,3,3,3,2,-3.61,14.05,-0.19,-0.74,4.68,-0.78,-20.5,-18.25,-15.875,0.2708740234375,0.429931640625,-0.5338134765625,-0.6759033203125,-10.1875,-33.375,17.1875,-2.86,9.36,0.59,Climbing Up,5
6.27,6.188437625,27,3,3,3,2,-3.83,14.06,-0.31,-0.94,4.71,-0.94,-14.25,-21.75,-16.1875,0.26947021484375,0.42901611328125,-0.53289794921875,-0.677734375,-9.375,-34.5,14.5,-2.88,9.35,0.62,Climbing Up,5
6.28,6.219298262,27,3,3,3,2,-3.99,14.04,-0.78,-1.07,4.69,-1.43,-6.0,-22.9375,-18.1875,0.26751708984375,0.42840576171875,-0.532470703125,-0.67926025390625,-9.375,-34.5,14.5,-2.91,9.34,0.64,Climbing Up,5
6.28,6.219298262,27,3,3,3,2,-4.2,13.9,-1.17,-1.25,4.57,-1.83,-1.3125,-24.5625,-19.875,0.2652587890625,0.42779541015625,-0.5322265625,-0.68072509765625,-9.375,-34.5,14.5,-2.94,9.33,0.66,Climbing Up,5
6.29,6.234344974,27,3,3,3,2,-4.4,11.18,-1.33,-1.43,1.86,-2.01,0.125,-27.875,-17.875,0.262939453125,0.427001953125,-0.5322265625,-0.68212890625,-9.375,-34.5,14.5,-2.96,9.32,0.67,Climbing Up,5
6.3,6.234344974,27,3,3,3,2,-4.4,11.18,-1.33,-1.43,1.86,-2.01,0.125,-27.875,-17.875,0.262939453125,0.427001953125,-0.5322265625,-0.68212890625,-9.375,-34.5,14.5,-2.96,9.32,0.67,Climbing Up,5
6.31,6.250508345,27,3,3,3,2,-4.27,9.24,-1.22,-1.28,-0.07,-1.91,-1.8125,-30.75,-13.6875,0.2607421875,0.42572021484375,-0.5323486328125,-0.68365478515625,-9.375,-34.5,14.5,-2.98,9.31,0.69,Climbing Up,5
6.31,6.250508345,27,3,3,3,2,-4.03,8.09,-1.3,-1.03,-1.2,-2.02,-6.125,-33.0,-13.0,0.2586669921875,0.4241943359375,-0.5322265625,-0.6854248046875,-6.875,-33.375,14.0625,-3.0,9.3,0.72,Climbing Up,5
6.33,6.263448123,27,3,3,3,2,-3.9,7.57,-1.52,-0.88,-1.72,-2.27,-10.5,-35.1875,-13.875,0.256591796875,0.42254638671875,-0.53192138671875,-0.6875,-6.875,-33.375,14.0625,-3.02,9.29,0.75,Climbing Up,5
6.34,6.263448123,27,3,3,3,2,-4.25,7.1,-1.7,-1.22,-2.18,-2.49,-11.75,-39.0625,-13.9375,0.25439453125,0.42059326171875,-0.5316162109375,-0.68975830078125,-6.875,-33.375,14.0625,-3.03,9.29,0.79,Climbing Up,5
6.35,6.2783689,27,3,3,3,2,-4.62,7.07,-1.65,-1.57,-2.2,-2.48,-8.0,-42.625,-13.0625,0.251953125,0.41845703125,-0.5316162109375,-0.69195556640625,-6.875,-33.375,14.0625,-3.05,9.28,0.82,Climbing Up,5
6.36,6.2783689,27,3,3,3,2,-4.9,7.2,-1.64,-1.83,-2.06,-2.49,1.6875,-44.1875,-12.1875,0.24908447265625,0.4163818359375,-0.53228759765625,-0.6937255859375,-6.875,-33.375,14.0625,-3.06,9.27,0.84,Climbing Up,5
6.36,6.309388268,27,3,3,3,2,-5.15,7.34,-1.52,-2.07,-1.92,-2.37,14.0,-44.25,-11.5625,0.245849609375,0.41455078125,-0.53369140625,-0.6949462890625,-7.1875,-33.6875,13.6875,-3.07,9.27,0.85,Climbing Up,5
6.37,6.309388268,27,3,3,3,2,-5.08,7.42,-1.19,-1.99,-1.84,-2.03,24.125,-44.0,-10.5,0.24224853515625,0.41290283203125,-0.53570556640625,-0.695556640625,-7.1875,-33.6875,13.6875,-3.08,9.27,0.83,Climbing Up,5
6.38,6.323507571,27,3,3,3,2,-4.89,7.63,-0.82,-1.79,-1.63,-1.63,29.5625,-39.5,-9.625,0.23876953125,0.41156005859375,-0.53802490234375,-0.69580078125,-7.1875,-33.6875,13.6875,-3.09,9.26,0.8,Climbing Up,5
6.39,6.323507571,27,3,3,3,2,-4.62,7.93,-0.31,-1.51,-1.33,-1.09,32.0625,-30.4375,-9.25,0.235595703125,0.41082763671875,-0.540283203125,-0.695556640625,-7.1875,-33.6875,13.6875,-3.1,9.26,0.77,Climbing Up,5
6.41,6.338241417,27,3,3,3,2,-4.07,8.42,0.87,-0.95,-0.84,0.14,32.3125,-18.75,-9.25,0.23297119140625,0.41082763671875,-0.5423583984375,-0.69488525390625,-7.1875,-33.6875,13.6875,-3.12,9.26,0.72,Climbing Up,5
6.42,6.338241417,27,3,3,3,2,-3.6,8.48,1.4,-0.46,-0.78,0.71,28.625,-9.5625,-9.75,0.23089599609375,0.41131591796875,-0.5439453125,-0.69403076171875,-7.5625,-35.1875,13.25,-3.13,9.26,0.68,Climbing Up,5
6.43,6.369038008,27,3,3,3,2,-2.97,8.36,2.02,0.17,-0.89,1.37,21.125,-9.3125,-10.375,0.22906494140625,0.41168212890625,-0.5450439453125,-0.69354248046875,-7.5625,-35.1875,13.25,-3.15,9.26,0.65,Climbing Up,5
6.44,6.369038008,27,3,3,3,2,-2.28,8.22,2.29,0.88,-1.03,1.65,11.25,-17.375,-12.1875,0.22711181640625,0.41143798828125,-0.545654296875,-0.69384765625,-7.5625,-35.1875,13.25,-3.16,9.25,0.64,Climbing Up,5
6.45,6.384243778,27,3,3,3,2,-1.54,7.66,1.37,1.64,-1.58,0.71,4.3125,-30.875,-15.6875,0.2244873046875,0.410400390625,-0.5460205078125,-0.69500732421875,-7.5625,-35.1875,13.25,-3.19,9.24,0.65,Climbing Up,5
6.45,6.384243778,27,3,3,3,2,-1.54,7.25,0.61,1.67,-1.98,-0.06,0.9375,-41.4375,-18.5625,0.22137451171875,0.4088134765625,-0.54620361328125,-0.69677734375,-7.5625,-35.1875,13.25,-3.21,9.23,0.67,Climbing Up,5
6.46,6.399022016,27,3,3,3,2,-1.52,6.87,0.17,1.71,-2.35,-0.52,-1.75,-46.25,-19.125,0.218017578125,0.4068603515625,-0.54632568359375,-0.6988525390625,-6.1875,-34.0625,14.875,-3.24,9.22,0.7,Climbing Up,5
6.48,6.399022016,27,3,3,3,2,-1.22,6.6,0.03,2.03,-2.61,-0.69,-1.8125,-47.3125,-16.25,0.21484375,0.40472412109375,-0.54656982421875,-0.700927734375,-6.1875,-34.0625,14.875,-3.26,9.21,0.73,Climbing Up,5
6.49,6.429052493,27,3,3,3,2,-0.5,6.18,-0.12,2.76,-3.02,-0.88,0.0,-43.6875,-11.8125,0.2120361328125,0.40264892578125,-0.5469970703125,-0.70269775390625,-6.1875,-34.0625,14.875,-3.27,9.21,0.75,Climbing Up,5
6.5,6.429052493,27,3,3,3,2,-0.25,5.98,-0.13,3.02,-3.22,-0.9,3.75,-37.5,-6.75,0.209716796875,0.4007568359375,-0.54766845703125,-0.70391845703125,-6.1875,-34.0625,14.875,-3.28,9.2,0.77,Climbing Up,5
6.51,6.443641157,27,3,3,3,2,-0.11,5.76,-0.12,3.16,-3.44,-0.9,8.625,-30.1875,-1.25,0.2078857421875,0.39910888671875,-0.5487060546875,-0.70452880859375,-6.1875,-34.0625,14.875,-3.27,9.2,0.77,Climbing Up,5
6.52,6.443641157,27,3,3,3,2,-0.16,5.8,-0.09,3.1,-3.4,-0.86,13.6875,-23.25,3.625,0.20648193359375,0.39776611328125,-0.5501708984375,-0.70458984375,-5.0625,-34.75,15.1875,-3.26,9.21,0.76,Climbing Up,5
6.53,6.45864307,27,3,3,3,2,-0.68,6.23,0.07,2.57,-2.98,-0.67,19.0625,-16.125,6.4375,0.2054443359375,0.39678955078125,-0.5518798828125,-0.7041015625,-5.0625,-34.75,15.1875,-3.25,9.22,0.74,Climbing Up,5
6.53,6.45864307,27,3,3,3,2,-0.97,6.54,0.07,2.26,-2.68,-0.63,23.375,-8.4375,8.5625,0.20477294921875,0.39630126953125,-0.55377197265625,-0.703125,-5.0625,-34.75,15.1875,-3.24,9.22,0.71,Climbing Up,5
6.54,6.489272179,27,3,3,3,2,-1.26,6.62,0.11,1.96,-2.61,-0.55,25.3125,-1.75,9.8125,0.20440673828125,0.39617919921875,-0.55572509765625,-0.70172119140625,-5.0625,-34.75,15.1875,-3.22,9.23,0.67,Climbing Up,5
6.56,6.489272179,27,3,3,3,2,-1.88,6.76,0.35,1.32,-2.48,-0.27,23.75,1.875,9.875,0.20428466796875,0.396240234375,-0.5574951171875,-0.7003173828125,-5.0625,-34.75,15.1875,-3.2,9.24,0.63,Climbing Up,5
6.56,6.495065229,27,3,3,3,2,-1.88,6.76,0.35,1.32,-2.48,-0.27,23.75,1.875,9.875,0.20428466796875,0.396240234375,-0.5574951171875,-0.7003173828125,-5.0625,-34.75,15.1875,-3.2,9.24,0.63,Climbing Up,5
6.57,6.495065229,27,3,3,3,2,-2.22,6.92,0.49,0.96,-2.32,-0.09,19.3125,3.75,9.1875,0.204345703125,0.3963623046875,-0.5589599609375,-0.6990966796875,-5.375,-34.5,14.875,-3.19,9.25,0.59,Climbing Up,5
6.58,6.519088952,27,3,3,3,2,-2.56,7.18,0.68,0.61,-2.06,0.1,14.1875,4.4375,6.8125,0.20452880859375,0.39654541015625,-0.55999755859375,-0.69805908203125,-5.375,-34.5,14.875,-3.18,9.25,0.57,Climbing Up,5
6.59,6.519088952,27,3,3,3,2,-2.91,7.46,0.86,0.26,-1.8,0.31,9.5,4.1875,4.4375,0.20465087890625,0.39678955078125,-0.5606689453125,-0.6973876953125,-5.375,-34.5,14.875,-3.17,9.26,0.55,Climbing Up,5
6.6,6.533848555,27,3,3,3,2,-3.36,7.94,1.27,-0.19,-1.32,0.73,6.625,3.4375,1.375,0.20465087890625,0.39703369140625,-0.56109619140625,-0.6968994140625,-5.375,-34.5,14.875,-3.17,9.26,0.53,Climbing Up,5
6.61,6.533848555,27,3,3,3,2,-3.48,8.23,1.3,-0.31,-1.03,0.77,4.625,2.6875,-1.25,0.20458984375,0.39739990234375,-0.561279296875,-0.696533203125,-5.375,-34.5,14.875,-3.17,9.26,0.53,Climbing Up,5
6.61,6.549059533,27,3,3,3,2,-3.67,8.73,1.25,-0.49,-0.53,0.72,1.4375,-0.3125,-4.0625,0.20428466796875,0.3975830078125,-0.561279296875,-0.696533203125,-4.375,-33.6875,14.5,-3.18,9.26,0.52,Climbing Up,5
6.62,6.549059533,27,3,3,3,2,-3.93,9.43,1.21,-0.74,0.17,0.68,-3.0625,-4.0625,-6.0625,0.20379638671875,0.3975830078125,-0.56097412109375,-0.69696044921875,-4.375,-33.6875,14.5,-3.19,9.25,0.53,Climbing Up,5
6.63,6.5790446,27,3,3,3,2,-4.5,11.15,1.11,-1.3,1.9,0.56,-6.5,-6.5,-6.625,0.20330810546875,0.39739990234375,-0.5604248046875,-0.69757080078125,-4.375,-33.6875,14.5,-3.2,9.25,0.54,Climbing Up,5
6.65,6.5790446,27,3,3,3,2,-4.72,11.74,1.13,-1.51,2.49,0.56,-7.125,-6.0,-5.375,0.20294189453125,0.397216796875,-0.5599365234375,-0.6982421875,-4.375,-33.6875,14.5,-3.21,9.24,0.56,Climbing Up,5
6.66,6.59532707,27,3,3,3,2,-4.86,11.99,1.02,-1.64,2.74,0.45,-6.1875,-2.1875,-3.125,0.202880859375,0.3970947265625,-0.55950927734375,-0.69866943359375,-4.375,-33.6875,14.5,-3.21,9.24,0.57,Climbing Up,5
6.67,6.59532707,27,3,3,3,2,-5.12,12.02,1.02,-1.9,2.78,0.44,-4.4375,1.1875,-1.125,0.2030029296875,0.39715576171875,-0.5592041015625,-0.6988525390625,-4.375,-33.0,14.5,-3.21,9.24,0.57,Climbing Up,5
6.68,6.609422733,27,3,3,3,2,-5.79,12.4,1.37,-2.57,3.15,0.79,-2.375,2.1875,0.0,0.20318603515625,0.39727783203125,-0.55902099609375,-0.6988525390625,-4.375,-33.0,14.5,-3.21,9.24,0.58,Climbing Up,5
6.69,6.609422733,27,3,3,3,2,-6.09,12.55,1.47,-2.87,3.3,0.89,-0.0625,1.9375,0.5,0.2032470703125,0.39739990234375,-0.55902099609375,-0.69879150390625,-4.375,-33.0,14.5,-3.21,9.24,0.58,Climbing Up,5
6.7,6.639787153,27,3,3,3,2,-6.2,12.77,1.62,-2.99,3.52,1.04,1.25,-0.1875,1.1875,0.20330810546875,0.3973388671875,-0.55914306640625,-0.69866943359375,-4.375,-33.0,14.5,-3.21,9.24,0.57,Climbing Up,5
6.7,6.639787153,27,3,3,3,2,-5.76,12.69,1.81,-2.55,3.45,1.23,1.3125,-3.8125,3.3125,0.2032470703125,0.39697265625,-0.55938720703125,-0.69866943359375,-4.375,-33.0,14.5,-3.2,9.24,0.57,Climbing Up,5
6.71,6.655032881,27,3,3,3,2,-5.58,12.68,1.78,-2.38,3.42,1.2,-0.1875,-8.125,5.625,0.20318603515625,0.396240234375,-0.55975341796875,-0.6988525390625,-5.0625,-33.375,15.1875,-3.19,9.25,0.58,Climbing Up,5
6.73,6.655032881,27,3,3,3,2,-5.46,12.71,1.76,-2.28,3.45,1.17,-2.3125,-10.375,7.8125,0.2032470703125,0.39520263671875,-0.56005859375,-0.69915771484375,-5.0625,-33.375,15.1875,-3.18,9.25,0.59,Climbing Up,5
6.74,6.669263634,27,3,3,3,2,-5.12,12.62,1.73,-1.96,3.36,1.13,-4.1875,-9.75,10.4375,0.20355224609375,0.39398193359375,-0.56036376953125,-0.69952392578125,-5.0625,-33.375,15.1875,-3.16,9.26,0.6,Climbing Up,5
6.75,6.669263634,27,3,3,3,2,-4.44,12.64,1.23,-1.29,3.37,0.61,-7.125,-7.0,12.5625,0.2042236328125,0.392822265625,-0.56048583984375,-0.69989013671875,-5.0625,-33.375,15.1875,-3.14,9.26,0.61,Climbing Up,5
6.76,6.699183638,27,3,3,3,2,-4.24,12.97,0.88,-1.12,3.7,0.24,-11.5,-6.0625,15.1875,0.20526123046875,0.39154052734375,-0.5604248046875,-0.70037841796875,-5.0625,-33.375,15.1875,-3.12,9.27,0.64,Climbing Up,5
6.77,6.699183638,27,3,3,3,3,-4.2,13.23,0.58,-1.1,3.94,-0.08,-15.0625,-6.375,18.25,0.20654296875,0.38995361328125,-0.56024169921875,-0.70098876953125,-4.0,-33.375,13.25,-3.09,9.28,0.66,Climbing Up,5
6.78,6.714246585,27,3,3,3,3,-4.03,13.24,0.26,-0.98,3.95,-0.43,-17.75,-4.6875,20.75,0.20819091796875,0.38836669921875,-0.5599365234375,-0.70166015625,-4.0,-33.375,13.25,-3.05,9.29,0.69,Climbing Up,5
6.79,6.714246585,27,3,3,3,3,-3.35,12.55,-0.56,-0.33,3.25,-1.29,-19.625,-0.625,22.4375,0.210205078125,0.38690185546875,-0.55950927734375,-0.70220947265625,-4.0,-33.375,13.25,-3.02,9.3,0.73,Climbing Up,5
6.8,6.730534875,27,3,3,3,3,-3.24,12.2,-0.85,-0.25,2.89,-1.61,-19.0,1.3125,23.0625,0.21234130859375,0.385498046875,-0.55908203125,-0.70263671875,-4.0,-33.375,13.25,-2.98,9.31,0.76,Climbing Up,5
6.81,6.730534875,27,3,3,3,3,-3.11,11.89,-1.06,-0.16,2.57,-1.85,-15.25,1.625,21.8125,0.2142333984375,0.38421630859375,-0.55889892578125,-0.70294189453125,-4.0,-33.375,13.25,-2.94,9.31,0.78,Climbing Up,5
6.82,6.776059045,27,3,3,3,3,-2.94,11.4,-1.36,-0.02,2.07,-2.16,-11.0625,3.25,19.3125,0.2159423828125,0.38330078125,-0.55877685546875,-0.7030029296875,-4.375,-33.375,13.25,-2.91,9.32,0.8,Climbing Up,5
6.82,6.776059045,27,3,3,3,3,-2.94,11.4,-1.36,-0.02,2.07,-2.16,-11.0625,3.25,19.3125,0.2159423828125,0.38330078125,-0.55877685546875,-0.7030029296875,-4.375,-33.375,13.25,-2.91,9.32,0.8,Climbing Up,5
6.83,6.7869137,27,3,3,3,3,-2.22,10.3,-1.83,0.66,0.97,-2.64,-8.75,6.0,16.3125,0.217529296875,0.3826904296875,-0.5587158203125,-0.702880859375,-4.375,-33.375,13.25,-2.89,9.33,0.81,Climbing Up,5
6.84,6.7869137,27,3,3,3,3,-1.74,9.93,-2.06,1.12,0.59,-2.89,-11.25,9.1875,14.125,0.21923828125,0.38238525390625,-0.55828857421875,-0.702880859375,-4.375,-33.375,13.25,-2.87,9.34,0.82,Climbing Up,5
6.85,6.796338382,27,3,3,3,3,-1.2,9.73,-2.2,1.64,0.39,-3.04,-17.8125,13.3125,13.875,0.2213134765625,0.3822021484375,-0.55743408203125,-0.7030029296875,-4.375,-33.375,13.25,-2.84,9.34,0.84,Climbing Up,5
6.86,6.796338382,27,3,3,3,3,-0.64,9.65,-2.13,2.18,0.3,-3.01,-26.8125,19.8125,13.75,0.22406005859375,0.3822021484375,-0.55584716796875,-0.703369140625,-4.375,-33.375,13.25,-2.83,9.34,0.88,Climbing Up,5
