timestamp,android_nano_timestamp,temperature,calib_mag,calib_accel,calib_gyro,calib_sys,acc_x,acc_y,acc_z,lacc_x,lacc_y,lacc_z,gyro_x,gyro_y,gyro_z,quat_w,quat_x,quat_y,quat_z,mag_x,mag_y,mag_z,gravity_x,gravity_y,gravity_z,label,person
0.58,0.513017375,23,3,3,3,0,-916.0,2.39,2.42,0.16,0.48,0.08,-0.66,1.5625,1.125,363.25,-0.4840087890625,0.3829345703125,0.7022705078125,-0.0026,7.6875,30.375,-58.3125,1.9,2.33,Climbing Up,7
0.59,0.513017375,23,3,3,3,0,-903.0,2.31,2.37,0.29,0.4,0.03,-0.63,2.375,1.3125,362.75,-0.4840087890625,0.38299560546875,0.7025146484375,-0.0026,7.6875,30.375,-58.3125,1.91,2.33,Climbing Up,7
0.6,0.525072754,23,3,3,3,0,-895.0,2.28,2.4,0.37,0.36,0.07,-0.39,3.75,1.0,362.3125,-0.48406982421875,0.3831787109375,0.70263671875,-0.0026,7.6875,30.375,-58.25,1.92,2.33,Climbing Up,7
0.61,0.525072754,23,3,3,3,0,-894.0,2.24,2.41,0.38,0.31,0.08,0.0,5.1875,0.375,362.0,-0.48419189453125,0.3834228515625,0.7025146484375,-0.0037,8.0,30.0,-58.3125,1.92,2.32,Climbing Up,7
0.62,0.538600301,23,3,3,3,0,-896.0,2.39,2.15,0.36,0.46,-0.15,0.17,7.25,-0.4375,361.625,-0.484375,0.38397216796875,0.70233154296875,-0.0037,8.0,30.0,-58.3125,1.93,2.31,Climbing Up,7
0.63,0.538600301,23,3,3,3,0,-890.0,2.6,2.39,0.42,0.65,0.09,0.45,8.1875,-1.0,361.1875,-0.4844970703125,0.3846435546875,0.70208740234375,-0.0037,8.0,30.0,-58.3125,1.94,2.3,Climbing Up,7
0.64,0.584707194,23,3,3,3,0,-894.0,2.71,2.52,0.39,0.77,0.23,0.66,9.0,-1.25,361.125,-0.48492431640625,0.3851318359375,0.7015380859375,-0.0037,8.0,30.0,-58.3125,1.94,2.28,Climbing Up,7
0.65,0.584707194,23,3,3,3,0,-902.0,2.71,2.46,0.31,0.77,0.19,0.43,9.0625,-1.4375,361.0625,-0.4854736328125,0.385498046875,0.70098876953125,-0.0037,8.0,30.0,-58.375,1.94,2.26,Climbing Up,7
0.66,0.589998332,23,3,3,3,0,-916.0,2.47,2.05,0.18,0.53,-0.19,0.14,9.625,-1.625,360.875,-0.486083984375,0.38580322265625,0.70050048828125,-0.0037,7.875,29.1875,-58.375,1.94,2.25,Climbing Up,7
0.67,0.589998332,23,3,3,3,0,-907.0,2.4,2.07,0.27,0.46,-0.16,-0.05,11.625,-1.625,360.5625,-0.48681640625,0.3861083984375,0.699951171875,-0.0037,7.875,29.1875,-58.375,1.93,2.23,Climbing Up,7
0.68,0.598550863,23,3,3,3,0,-894.0,2.43,2.23,0.4,0.49,0.02,-0.18,15.3125,-2.0625,359.75,-0.487548828125,0.38677978515625,0.699462890625,-0.0037,7.875,29.1875,-58.4375,1.94,2.21,Climbing Up,7
0.69,0.598550863,23,3,3,3,0,-889.0,2.48,2.34,0.45,0.52,0.16,-0.35,18.8125,-2.625,358.875,-0.48846435546875,0.38739013671875,0.69891357421875,-0.0037,7.875,29.1875,-58.4375,1.95,2.18,Climbing Up,7
0.7,0.630008382,23,3,3,3,0,-913.0,2.41,2.31,0.23,0.45,0.16,-0.34,20.3125,-3.125,358.0625,-0.48956298828125,0.387939453125,0.6982421875,-0.0037,7.875,29.1875,-58.5,1.95,2.15,Climbing Up,7
0.71,0.630008382,23,3,3,3,0,-924.0,2.3,2.21,0.12,0.34,0.09,-0.1,18.625,-3.6875,357.4375,-0.4906005859375,0.38848876953125,0.697509765625,-0.003,7.1875,29.5625,-58.5625,1.95,2.12,Climbing Up,7
0.72,0.643795777,23,3,3,3,0,-930.0,2.16,2.13,0.07,0.21,0.03,0.29,15.0625,-4.0625,357.1875,-0.491455078125,0.38897705078125,0.69677734375,-0.003,7.1875,29.5625,-58.5625,1.95,2.1,Climbing Up,7
0.73,0.643795777,23,3,3,3,0,-923.0,2.09,2.06,0.14,0.14,-0.01,0.66,12.5625,-4.9375,357.25,-0.49224853515625,0.389404296875,0.69598388671875,-0.003,7.1875,29.5625,-58.625,1.94,2.08,Climbing Up,7
0.74,0.660082764,23,3,3,3,0,-905.0,1.94,2.05,0.33,0.0,0.0,0.9,11.75,-6.1875,357.4375,-0.49298095703125,0.38983154296875,0.695068359375,-0.003,7.1875,29.5625,-58.625,1.93,2.05,Climbing Up,7
0.75,0.660082764,23,3,3,3,0,-892.0,1.92,2.0,0.46,0.0,-0.02,1.01,12.875,-8.125,357.75,-0.49383544921875,0.3902587890625,0.694091796875,-0.003,7.1875,29.5625,-58.6875,1.92,2.03,Climbing Up,7
0.76,0.691345785,23,3,3,3,0,-892.0,1.94,1.93,0.48,0.03,-0.07,0.93,15.625,-10.625,358.125,-0.49493408203125,0.390625,0.69287109375,-0.0034,7.5625,31.1875,-58.75,1.91,2.0,Climbing Up,7
0.77,0.691345785,23,3,3,3,0,-899.0,2.1,1.72,0.42,0.21,-0.25,0.79,17.625,-12.375,358.5,-0.49627685546875,0.39093017578125,0.69158935546875,-0.0034,7.5625,31.1875,-58.8125,1.89,1.97,Climbing Up,7
0.78,0.704687704,23,3,3,3,0,-905.0,2.11,1.65,0.37,0.24,-0.28,0.71,19.0625,-13.375,358.875,-0.49774169921875,0.3912353515625,0.690185546875,-0.0034,7.5625,31.1875,-58.875,1.87,1.94,Climbing Up,7
0.79,0.704687704,23,3,3,3,0,-907.0,2.05,1.64,0.36,0.2,-0.26,0.81,19.9375,-14.375,359.25,-0.499267578125,0.39154052734375,0.688720703125,-0.0034,7.5625,31.1875,-58.9375,1.85,1.91,Climbing Up,7
0.8,0.720029053,23,3,3,3,0,-908.0,1.9,1.65,0.36,0.07,-0.21,1.08,21.375,-15.0,359.75,-0.5008544921875,0.39190673828125,0.68707275390625,-0.0034,7.5625,31.1875,-59.0625,1.83,1.87,Climbing Up,7
0.81,0.720029053,23,3,3,3,0,-896.0,1.51,1.7,0.49,-0.29,-0.12,1.44,23.5,-15.75,360.3125,-0.5025634765625,0.39251708984375,0.685302734375,-0.0034,7.5625,30.375,-59.125,1.8,1.83,Climbing Up,7
0.82,0.749797038,23,3,3,3,0,-892.0,1.35,1.76,0.54,-0.43,-0.01,1.95,25.5625,-16.8125,360.9375,-0.5042724609375,0.393310546875,0.6832275390625,-0.0034,7.5625,30.375,-59.1875,1.78,1.78,Climbing Up,7
0.83,0.749797038,23,3,3,3,0,-893.0,1.15,1.94,0.55,-0.6,0.2,2.49,27.0625,-18.0625,361.8125,-0.5059814453125,0.39422607421875,0.68096923828125,-0.0034,7.5625,30.375,-59.3125,1.75,1.73,Climbing Up,7
0.84,0.76520752,23,3,3,3,0,-894.0,0.93,2.17,0.55,-0.79,0.48,2.97,28.5625,-19.25,362.8125,-0.5078125,0.3953857421875,0.678466796875,-0.0034,7.5625,30.375,-59.375,1.73,1.68,Climbing Up,7
0.85,0.76520752,23,3,3,3,0,-910.0,0.46,2.37,0.4,-1.24,0.74,3.29,29.6875,-20.5625,363.9375,-0.50958251953125,0.3966064453125,0.67578125,-0.0034,7.5625,30.375,-59.4375,1.7,1.62,Climbing Up,7
0.86,0.782350057,23,3,3,3,0,-918.0,0.29,2.36,0.35,-1.38,0.79,3.42,29.5,-21.9375,365.1875,-0.51141357421875,0.3978271484375,0.67303466796875,-0.003,7.875,31.1875,-59.5625,1.67,1.57,Climbing Up,7
0.87,0.782350057,23,3,3,3,0,-917.0,0.12,2.3,0.37,-1.51,0.78,3.45,28.375,-22.9375,366.5625,-0.51324462890625,0.39892578125,0.67034912109375,-0.003,7.875,31.1875,-59.625,1.64,1.51,Climbing Up,7
0.88,0.809527873,23,3,3,3,0,-917.0,-0.05,2.14,0.38,-1.66,0.67,3.55,26.0625,-23.625,368.0625,-0.51483154296875,0.39996337890625,0.66766357421875,-0.003,7.875,31.1875,-59.75,1.6,1.46,Climbing Up,7
0.89,0.809527873,23,3,3,3,0,-944.0,-0.24,1.68,0.13,-1.81,0.26,3.6,24.125,-24.25,369.625,-0.51641845703125,0.40093994140625,0.6650390625,-0.003,7.875,31.1875,-59.8125,1.57,1.42,Climbing Up,7
0.9,0.824092123,23,3,3,3,0,-964.0,-0.21,1.47,-0.05,-1.74,0.09,3.63,23.1875,-24.4375,371.3125,-0.51788330078125,0.40191650390625,0.66241455078125,-0.003,7.875,31.1875,-59.875,1.53,1.37,Climbing Up,7
0.91,0.824092123,23,3,3,3,0,-981.0,-0.14,1.38,-0.21,-1.64,0.05,3.83,24.375,-25.0,373.0625,-0.5194091796875,0.40289306640625,0.65966796875,-0.0037,9.0,30.75,-59.9375,1.5,1.33,Climbing Up,7
0.92,0.85459611,23,3,3,3,0,-1000.0,-0.01,1.5,-0.39,-1.47,0.22,4.15,28.4375,-25.1875,374.6875,-0.5211181640625,0.4041748046875,0.65667724609375,-0.0037,9.0,30.75,-60.0625,1.46,1.27,Climbing Up,7
0.93,0.85459611,23,3,3,3,0,-1035.0,0.22,1.9,-0.72,-1.19,0.69,4.49,33.0,-25.0625,376.3125,-0.52294921875,0.40570068359375,0.65338134765625,-0.0037,9.0,30.75,-60.125,1.42,1.21,Climbing Up,7
0.94,0.869910767,23,3,3,3,0,-1053.0,0.3,2.12,-0.89,-1.08,0.98,4.69,35.4375,-24.0625,377.8125,-0.52490234375,0.4073486328125,0.64996337890625,-0.0037,9.0,30.75,-60.1875,1.39,1.14,Climbing Up,7
0.95,0.869910767,23,3,3,3,0,-1070.0,0.38,2.26,-1.05,-0.97,1.18,4.67,35.1875,-22.625,379.1875,-0.5267333984375,0.40911865234375,0.64654541015625,-0.0037,9.0,30.75,-60.3125,1.36,1.08,Climbing Up,7
0.96,0.884434815,23,3,3,3,0,-1077.0,0.43,2.44,-1.11,-0.89,1.42,4.53,34.1875,-21.6875,380.5,-0.528564453125,0.41082763671875,0.64324951171875,-0.0037,9.0,31.875,-60.375,1.33,1.01,Climbing Up,7
0.97,0.884434815,23,3,3,3,0,-1073.0,0.4,2.58,-1.05,-0.89,1.63,4.46,34.4375,-20.875,381.8125,-0.5302734375,0.41253662109375,0.6400146484375,-0.0037,9.0,31.875,-60.4375,1.3,0.95,Climbing Up,7
0.98,0.915337403,23,3,3,3,0,-1068.0,0.4,2.66,-0.99,-0.86,1.77,4.49,35.9375,-20.3125,382.9375,-0.5321044921875,0.414306640625,0.63665771484375,-0.0037,9.0,31.875,-60.5,1.27,0.88,Climbing Up,7
0.99,0.915337403,23,3,3,3,0,-1065.0,0.43,2.67,-0.96,-0.81,1.85,4.61,35.625,-19.5625,384.125,-0.53387451171875,0.4161376953125,0.63330078125,-0.0037,9.0,31.875,-60.5625,1.24,0.82,Climbing Up,7
1.0,0.92959786,23,3,3,3,0,-1041.0,0.63,2.58,-0.71,-0.58,1.82,4.81,32.6875,-18.5,385.4375,-0.53533935546875,0.41796875,0.630126953125,-0.0037,9.0,31.875,-60.625,1.21,0.75,Climbing Up,7
1.01,0.92959786,23,3,3,3,0,-1017.0,0.69,2.42,-0.46,-0.48,1.71,4.91,28.8125,-17.5,386.8125,-0.53656005859375,0.4197998046875,0.6270751953125,-0.0041,8.5625,32.6875,-60.625,1.18,0.7,Climbing Up,7
1.02,0.944196411,23,3,3,3,0,-986.0,0.73,2.21,-0.14,-0.43,1.56,4.85,26.5,-16.5625,388.1875,-0.53759765625,0.4215087890625,0.6241455078125,-0.0041,8.5625,32.6875,-60.6875,1.16,0.65,Climbing Up,7
1.03,0.944196411,23,3,3,3,0,-943.0,0.79,2.26,0.29,-0.34,1.66,4.9,27.25,-15.8125,389.5625,-0.53863525390625,0.42333984375,0.6212158203125,-0.0041,8.5625,32.6875,-60.75,1.13,0.6,Climbing Up,7
1.04,0.974722657,23,3,3,3,0,-899.0,0.86,2.16,0.73,-0.25,1.61,4.87,28.875,-15.1875,390.75,-0.53973388671875,0.42523193359375,0.61822509765625,-0.0041,8.5625,32.6875,-60.75,1.11,0.54,Climbing Up,7
1.05,0.974722657,23,3,3,3,0,-889.0,0.85,1.85,0.83,-0.24,1.35,4.71,29.0,-14.25,391.875,-0.54083251953125,0.42706298828125,0.61529541015625,-0.0041,8.5625,32.6875,-60.8125,1.09,0.49,Climbing Up,7
1.06,0.990492961,23,3,3,3,0,-878.0,0.79,1.52,0.94,-0.28,1.08,4.57,28.3125,-13.25,392.9375,-0.5418701171875,0.42889404296875,0.61248779296875,-0.0036,9.0,33.0,-60.8125,1.07,0.43,Climbing Up,7
1.07,0.990492961,23,3,3,3,0,-867.0,0.75,1.28,1.06,-0.3,0.89,4.36,28.625,-11.8125,393.8125,-0.54296875,0.43072509765625,0.6097412109375,-0.0036,9.0,33.0,-60.875,1.05,0.38,Climbing Up,7
1.08,1.012258993,23,3,3,3,0,-874.0,0.72,0.99,1.0,-0.31,0.66,4.01,31.125,-10.875,394.4375,-0.544189453125,0.4326171875,0.60693359375,-0.0036,9.0,33.0,-60.875,1.03,0.32,Climbing Up,7
1.09,1.012258993,23,3,3,3,0,-890.0,0.66,0.98,0.84,-0.35,0.71,3.77,33.625,-10.3125,394.875,-0.5455322265625,0.4344482421875,0.6041259765625,-0.0036,9.0,33.0,-60.875,1.02,0.26,Climbing Up,7
1.1,1.019384318,23,3,3,3,0,-897.0,0.66,0.99,0.78,-0.34,0.79,3.67,35.5625,-9.3125,395.125,-0.5469970703125,0.4364013671875,0.60125732421875,-0.0036,9.0,33.0,-60.9375,1.0,0.2,Climbing Up,7
1.11,1.019384318,23,3,3,3,0,-885.0,0.75,0.97,0.89,-0.23,0.84,3.69,36.9375,-7.875,395.25,-0.54840087890625,0.4384765625,0.59832763671875,-0.0046,9.375,33.0,-60.9375,0.99,0.13,Climbing Up,7
1.12,1.050249227,23,3,3,3,0,-877.0,0.85,0.92,0.98,-0.12,0.85,3.69,37.9375,-6.3125,395.25,-0.54986572265625,0.44061279296875,0.595458984375,-0.0046,9.375,33.0,-60.9375,0.98,0.06,Climbing Up,7
1.13,1.050249227,23,3,3,3,0,-877.0,0.95,0.83,0.98,-0.01,0.83,3.45,39.5,-4.6875,395.0,-0.55133056640625,0.44281005859375,0.592529296875,-0.0046,9.375,33.0,-60.9375,0.97,0.0,Climbing Up,7
1.14,1.065112264,23,3,3,3,0,-879.0,0.9,0.79,0.96,-0.05,0.87,3.04,41.75,-3.4375,394.5,-0.552978515625,0.44500732421875,0.5897216796875,-0.0046,9.375,33.0,-60.9375,0.96,-0.07,Climbing Up,7
1.15,1.065112264,23,3,3,3,0,-896.0,0.84,0.74,0.79,-0.12,0.89,2.52,43.625,-1.9375,393.625,-0.55474853515625,0.44720458984375,0.5869140625,-0.0046,9.375,33.0,-60.9375,0.96,-0.15,Climbing Up,7
1.16,1.079714234,23,3,3,3,0,-904.0,0.78,0.75,0.71,-0.17,0.96,1.95,45.625,-0.3125,393.0625,-0.555908203125,0.4486083984375,0.5850830078125,-0.0049,9.5625,34.0625,-60.9375,0.96,-0.2,Climbing Up,7
1.17,1.079714234,23,3,3,3,0,-912.0,0.75,0.68,0.63,-0.21,0.94,1.5,46.3125,1.9375,392.25,-0.55712890625,0.45001220703125,0.5833740234375,-0.0049,9.5625,34.0625,-60.9375,0.96,-0.25,Climbing Up,7
1.18,1.109231893,23,3,3,3,0,-915.0,0.69,0.63,0.6,-0.27,0.96,1.24,43.6875,4.5625,390.6875,-0.55889892578125,0.45208740234375,0.58111572265625,-0.0049,9.5625,34.0625,-60.9375,0.97,-0.32,Climbing Up,7
1.19,1.109231893,23,3,3,3,0,-944.0,0.6,0.48,0.3,-0.37,0.87,0.96,39.125,6.9375,389.0625,-0.56036376953125,0.45404052734375,0.5792236328125,-0.0049,9.5625,34.0625,-60.875,0.98,-0.39,Climbing Up,7
1.2,1.124163615,23,3,3,3,0,-958.0,0.59,0.46,0.15,-0.39,0.91,0.71,33.5625,9.5625,387.4375,-0.5615234375,0.455810546875,0.57769775390625,-0.0049,9.5625,34.0625,-60.875,0.99,-0.45,Climbing Up,7
1.21,1.124163615,23,3,3,3,0,-976.0,0.48,0.49,-0.02,-0.53,0.99,0.53,28.4375,11.8125,385.875,-0.5623779296875,0.45745849609375,0.57659912109375,-0.0052,9.5625,34.5,-60.875,1.01,-0.5,Climbing Up,7
1.22,1.139055949,23,3,3,3,0,-1007.0,0.29,0.52,-0.34,-0.74,1.07,0.42,25.0625,13.3125,384.3125,-0.56298828125,0.45904541015625,0.57568359375,-0.0052,9.5625,34.5,-60.8125,1.03,-0.54,Climbing Up,7
1.23,1.139055949,23,3,3,3,0,-1024.0,0.11,0.6,-0.51,-0.94,1.18,0.39,23.5,14.5,382.75,-0.56353759765625,0.46063232421875,0.574951171875,-0.0052,9.5625,34.5,-60.8125,1.06,-0.58,Climbing Up,7
1.24,1.169736247,23,3,3,3,0,-1050.0,0.01,0.58,-0.77,-1.07,1.2,0.57,21.8125,16.0,381.1875,-0.5638427734375,0.4622802734375,0.57427978515625,-0.0052,9.5625,34.5,-60.75,1.09,-0.62,Climbing Up,7
1.25,1.169736247,23,3,3,3,0,-1083.0,-0.06,0.54,-1.11,-1.18,1.19,1.09,18.125,17.75,379.875,-0.56378173828125,0.464111328125,0.57366943359375,-0.0052,9.5625,34.5,-60.75,1.11,-0.65,Climbing Up,7
1.26,1.184848877,23,3,3,3,0,-1086.0,-0.05,0.67,-1.15,-1.2,1.34,1.66,13.125,19.8125,378.875,-0.56329345703125,0.46600341796875,0.5732421875,-0.0043,9.25,34.5,-60.6875,1.15,-0.67,Climbing Up,7
1.27,1.184848877,23,3,3,3,0,-1057.0,0.15,0.8,-0.87,-1.02,1.49,1.99,9.875,22.25,378.0,-0.5625,0.468017578125,0.572998046875,-0.0043,9.25,34.5,-60.625,1.18,-0.69,Climbing Up,7
1.28,1.216059856,23,3,3,3,0,-1047.0,0.45,0.96,-0.77,-0.77,1.67,2.15,9.5625,25.0,377.0,-0.56146240234375,0.47021484375,0.57281494140625,-0.0043,9.25,34.5,-60.625,1.22,-0.71,Climbing Up,7
1.29,1.216059856,23,3,3,3,0,-1060.0,0.81,1.09,-0.91,-0.45,1.82,2.06,11.3125,28.0,375.75,-0.56048583984375,0.4725341796875,0.5726318359375,-0.0043,9.25,34.5,-60.5625,1.27,-0.73,Climbing Up,7
1.3,1.230473633,23,3,3,3,0,-1089.0,1.05,1.43,-1.2,-0.27,2.19,1.58,12.375,30.5,374.1875,-0.55950927734375,0.47491455078125,0.5726318359375,-0.0043,9.25,34.5,-60.5,1.32,-0.75,Climbing Up,7
1.31,1.230473633,23,3,3,3,0,-1114.0,0.92,1.5,-1.46,-0.45,2.28,0.91,10.8125,33.125,372.3125,-0.5584716796875,0.47711181640625,0.57293701171875,-0.0054,8.5,37.5625,-60.4375,1.37,-0.77,Climbing Up,7
1.32,1.244707846,23,3,3,3,0,-1143.0,0.76,1.42,-1.76,-0.67,2.21,0.15,7.1875,35.4375,370.3125,-0.55731201171875,0.4791259765625,0.57366943359375,-0.0054,8.5,37.5625,-60.375,1.43,-0.78,Climbing Up,7
1.33,1.244707846,23,3,3,3,0,-1155.0,0.61,1.24,-1.89,-0.88,2.03,-0.43,3.3125,37.3125,368.125,-0.55596923828125,0.4808349609375,0.5748291015625,-0.0054,8.5,37.5625,-60.3125,1.5,-0.79,Climbing Up,7
1.34,1.25885315,23,3,3,3,0,-1163.0,0.67,0.86,-1.98,-0.89,1.65,-0.76,1.6875,39.5625,365.8125,-0.5545654296875,0.4825439453125,0.576171875,-0.0054,8.5,37.5625,-60.25,1.56,-0.79,Climbing Up,7
1.35,1.25885315,23,3,3,3,0,-1185.0,0.66,0.71,-2.21,-0.97,1.5,-0.79,2.375,42.5,363.3125,-0.55303955078125,0.48443603515625,0.57763671875,-0.0054,8.5,37.5625,-60.1875,1.63,-0.79,Climbing Up,7
1.36,1.289944784,23,3,3,3,0,-1205.0,0.61,0.66,-2.43,-1.09,1.46,-0.58,4.5,45.6875,360.5625,-0.5513916015625,0.48651123046875,0.5789794921875,-0.0061,8.5,37.0625,-60.125,1.71,-0.79,Climbing Up,7
1.37,1.289944784,23,3,3,3,0,-1223.0,0.54,0.6,-2.63,-1.25,1.41,-0.18,7.1875,49.375,357.6875,-0.5496826171875,0.489013671875,0.5802001953125,-0.0061,8.5,37.0625,-60.0,1.79,-0.81,Climbing Up,7
1.38,1.304323243,23,3,3,3,0,-1223.0,0.54,0.6,-2.63,-1.25,1.41,-0.18,7.1875,49.375,357.6875,-0.5496826171875,0.489013671875,0.5802001953125,-0.0061,8.5,37.0625,-60.0,1.79,-0.81,Climbing Up,7
1.39,1.304323243,23,3,3,3,0,-1348.0,0.22,0.06,-3.89,-1.65,0.88,0.6,8.25,52.625,354.8125,-0.5477294921875,0.491943359375,0.581298828125,-0.0061,8.5,37.0625,-59.875,1.88,-0.82,Climbing Up,7
1.39,1.320215902,23,3,3,3,0,-1441.0,0.18,-0.38,-4.84,-1.79,0.45,1.75,5.375,55.25,352.25,-0.5452880859375,0.49530029296875,0.58221435546875,-0.0061,8.5,37.0625,-59.75,1.97,-0.83,Climbing Up,7
1.4,1.320215902,23,3,3,3,0,-1529.0,0.27,-0.83,-5.74,-1.79,0.0,2.83,-0.6875,56.875,350.25,-0.542236328125,0.49884033203125,0.58319091796875,-0.0061,8.5,37.0625,-59.625,2.06,-0.84,Climbing Up,7
1.41,1.335019491,23,3,3,3,0,-1610.0,0.45,-1.26,-6.57,-1.7,-0.42,3.35,-8.5625,56.8125,348.6875,-0.5386962890625,0.5023193359375,0.58441162109375,-0.0044,8.5,37.0625,-59.5,2.15,-0.83,Climbing Up,7
1.42,1.335019491,23,3,3,3,0,-1714.0,1.64,-1.6,-7.63,-0.59,-0.78,3.42,-14.1875,54.8125,347.5625,-0.534912109375,0.5054931640625,0.5858154296875,-0.0044,8.5,37.0625,-59.4375,2.24,-0.81,Climbing Up,7
1.43,1.350095419,23,3,3,3,0,-1677.0,2.53,-1.5,-7.27,0.21,-0.7,3.44,-12.9375,50.875,346.5,-0.5313720703125,0.508544921875,0.58697509765625,-0.0044,8.5,37.0625,-59.3125,2.32,-0.8,Climbing Up,7
1.44,1.350095419,23,3,3,3,0,-1554.0,3.55,-1.29,-6.07,1.15,-0.48,3.31,-5.8125,47.1875,345.3125,-0.5283203125,0.5115966796875,0.58770751953125,-0.0044,8.5,37.0625,-59.1875,2.4,-0.8,Climbing Up,7
1.45,1.379750082,23,3,3,3,0,-1300.0,5.2,-1.31,-3.54,2.73,-0.5,3.14,3.875,44.8125,343.75,-0.52593994140625,0.51470947265625,0.5880126953125,-0.0044,8.5,37.0625,-59.0625,2.47,-0.81,Climbing Up,7
1.46,1.379750082,23,3,3,3,0,-1169.0,5.42,-1.56,-2.26,2.88,-0.72,2.99,13.6875,42.625,341.8125,-0.524169921875,0.51800537109375,0.5877685546875,-0.0043,8.1875,37.75,-58.9375,2.54,-0.84,Climbing Up,7
1.47,1.395896363,23,3,3,3,0,-1029.0,5.19,-1.86,-0.87,2.59,-0.97,2.26,21.625,38.1875,339.5,-0.52313232421875,0.52105712890625,0.5872802734375,-0.0043,8.1875,37.75,-58.8125,2.6,-0.88,Climbing Up,7
1.48,1.395896363,23,3,3,3,0,-908.0,4.91,-2.29,0.31,2.26,-1.35,0.65,27.4375,32.375,336.75,-0.52294921875,0.52349853515625,0.5867919921875,-0.0043,8.1875,37.75,-58.6875,2.65,-0.93,Climbing Up,7
1.49,1.424729859,23,3,3,3,0,-750.0,4.18,-3.11,1.87,1.48,-2.14,-1.61,28.125,26.375,333.5625,-0.5234375,0.52496337890625,0.58673095703125,-0.0043,8.1875,37.75,-58.5625,2.69,-0.97,Climbing Up,7
1.5,1.424729859,23,3,3,3,0,-699.0,3.92,-3.31,2.37,1.18,-2.31,-3.76,23.0,19.4375,330.4375,-0.5244140625,0.5252685546875,0.58734130859375,-0.0043,8.1875,37.75,-58.5,2.73,-0.99,Climbing Up,7
1.51,1.4391462,23,3,3,3,0,-662.0,3.75,-3.38,2.73,0.99,-2.38,-5.68,13.125,12.75,327.5,-0.5255126953125,0.5244140625,0.5887451171875,-0.0032,7.75,39.75,-58.4375,2.75,-1.0,Climbing Up,7
1.52,1.4391462,23,3,3,3,0,-640.0,3.78,-3.44,2.94,1.0,-2.46,-7.26,-1.8125,7.3125,325.0625,-0.52630615234375,0.5223388671875,0.591064453125,-0.0032,7.75,39.75,-58.4375,2.77,-0.97,Climbing Up,7
1.53,1.45348108,23,3,3,3,0,-675.0,3.58,-3.7,2.6,0.79,-2.78,-8.3,-19.4375,4.125,323.3125,-0.52655029296875,0.519287109375,0.594482421875,-0.0032,7.75,39.75,-58.4375,2.79,-0.92,Climbing Up,7
1.54,1.45348108,23,3,3,3,0,-709.0,3.41,-3.75,2.26,0.6,-2.91,-8.9,-34.25,2.375,322.1875,-0.52618408203125,0.51556396484375,0.5986328125,-0.0032,7.75,39.75,-58.4375,2.8,-0.83,Climbing Up,7
1.55,1.484881267,23,3,3,3,0,-751.0,3.43,-3.77,1.84,0.62,-3.03,-9.5,-41.1875,1.25,321.25,-0.52557373046875,0.5113525390625,0.60321044921875,-0.0032,7.75,39.75,-58.5,2.81,-0.73,Climbing Up,7
1.56,1.484881267,23,3,3,3,0,-796.0,3.48,-3.9,1.4,0.65,-3.25,-10.21,-38.6875,1.0625,319.9375,-0.5252685546875,0.5069580078125,0.60784912109375,-0.0042,7.25,40.75,-58.5,2.82,-0.64,Climbing Up,7
1.57,1.499194133,23,3,3,3,0,-863.0,3.83,-3.84,0.73,1.0,-3.28,-10.73,-31.75,0.875,318.1875,-0.52532958984375,0.5025634765625,0.6123046875,-0.0042,7.25,40.75,-58.5625,2.83,-0.55,Climbing Up,7
1.58,1.499194133,23,3,3,3,0,-869.0,4.09,-3.6,0.67,1.25,-3.12,-10.96,-26.125,0.3125,316.125,-0.5257568359375,0.4981689453125,0.61651611328125,-0.0042,7.25,40.75,-58.5625,2.83,-0.48,Climbing Up,7
1.59,1.513999187,23,3,3,3,0,-866.0,4.22,-3.24,0.71,1.37,-2.83,-11.06,-21.5625,0.1875,313.875,-0.5264892578125,0.49383544921875,0.6204833984375,-0.0042,7.25,40.75,-58.5625,2.84,-0.41,Climbing Up,7
1.6,1.513999187,23,3,3,3,0,-828.0,4.12,-2.27,1.09,1.27,-1.92,-10.6,-17.1875,1.125,311.4375,-0.52728271484375,0.4898681640625,0.6241455078125,-0.0042,7.25,40.75,-58.5625,2.85,-0.35,Climbing Up,7
1.61,1.547355022,23,3,3,3,0,-793.0,3.88,-1.72,1.44,1.02,-1.42,-9.15,-11.125,2.875,309.0625,-0.52801513671875,0.486572265625,0.62713623046875,-0.0034,6.5625,39.6875,-58.5625,2.85,-0.3,Climbing Up,7
1.63,1.547355022,23,3,3,3,0,-768.0,3.61,-1.3,1.69,0.74,-1.02,-7.14,-2.625,5.3125,306.75,-0.52880859375,0.48431396484375,0.62933349609375,-0.0034,6.5625,39.6875,-58.5625,2.87,-0.27,Climbing Up,7
1.64,1.560470948,23,3,3,3,0,-760.0,3.34,-0.93,1.76,0.45,-0.66,-5.27,5.625,7.4375,304.5625,-0.5296630859375,0.48297119140625,0.630615234375,-0.0034,6.5625,39.6875,-58.5,2.88,-0.27,Climbing Up,7
1.64,1.560470948,23,3,3,3,0,-718.0,3.2,-0.44,2.17,0.3,-0.17,-4.05,11.0,8.875,302.375,-0.53057861328125,0.4822998046875,0.63140869140625,-0.0034,6.5625,39.6875,-58.5,2.89,-0.27,Climbing Up,7
1.65,1.574044882,23,3,3,3,0,-706.0,3.17,-0.38,2.29,0.26,-0.09,-3.41,13.25,9.375,300.25,-0.531494140625,0.48187255859375,0.6319580078125,-0.0034,6.5625,39.6875,-58.4375,2.91,-0.28,Climbing Up,7
1.66,1.574044882,23,3,3,3,0,-700.0,3.08,-0.28,2.35,0.15,0.01,-2.84,12.625,9.125,298.375,-0.5322265625,0.481689453125,0.63232421875,-0.0018,6.6875,40.0625,-58.4375,2.93,-0.29,Climbing Up,7
1.67,1.589066244,23,3,3,3,0,-700.0,3.08,-0.28,2.35,0.15,0.01,-2.84,12.625,9.125,298.375,-0.5322265625,0.481689453125,0.63232421875,-0.0018,6.6875,40.0625,-58.4375,2.93,-0.29,Climbing Up,7
1.68,1.589066244,23,3,3,3,0,-692.0,2.88,-0.1,2.42,-0.05,0.2,-2.25,10.5,8.0,296.75,-0.5328369140625,0.48150634765625,0.63262939453125,-0.0018,6.6875,40.0625,-58.375,2.94,-0.3,Climbing Up,7
1.68,1.604100302,23,3,3,3,0,-666.0,2.27,0.28,2.67,-0.67,0.59,-1.93,7.0625,5.75,295.5625,-0.53326416015625,0.4813232421875,0.6329345703125,-0.0018,6.6875,40.0625,-58.375,2.95,-0.31,Climbing Up,7
1.69,1.604100302,23,3,3,3,0,-653.0,1.95,0.42,2.8,-1.0,0.73,-2.1,1.625,3.0625,294.6875,-0.5335693359375,0.48077392578125,0.63348388671875,-0.0018,6.6875,40.0625,-58.375,2.96,-0.31,Climbing Up,7
1.7,1.634500733,23,3,3,3,0,-652.0,1.58,0.55,2.81,-1.37,0.84,-2.47,-4.125,1.1875,294.0625,-0.53369140625,0.4798583984375,0.6343994140625,-0.0018,6.6875,40.0625,-58.375,2.96,-0.29,Climbing Up,7
1.71,1.634500733,23,3,3,3,0,-650.0,1.28,0.63,2.83,-1.67,0.9,-2.81,-7.3125,-1.125,293.5625,-0.53375244140625,0.47869873046875,0.63543701171875,-0.0018,5.5625,39.5625,-58.375,2.96,-0.27,Climbing Up,7
1.72,1.649354167,23,3,3,3,0,-656.0,1.1,0.57,2.78,-1.85,0.83,-3.48,-4.5625,-3.375,292.9375,-0.5341796875,0.4771728515625,0.636474609375,-0.0018,5.5625,39.5625,-58.375,2.95,-0.25,Climbing Up,7
1.73,1.649354167,23,3,3,3,0,-659.0,1.16,0.41,2.75,-1.78,0.66,-4.46,4.0,-6.25,291.8125,-0.535400390625,0.4754638671875,0.63726806640625,-0.0018,5.5625,39.5625,-58.375,2.95,-0.24,Climbing Up,7
1.74,1.665258912,23,3,3,3,0,-654.0,1.28,0.2,2.8,-1.64,0.46,-5.31,13.0625,-9.8125,290.1875,-0.537353515625,0.47344970703125,0.6378173828125,-0.0018,5.5625,39.5625,-58.4375,2.93,-0.25,Climbing Up,7
1.75,1.665258912,23,3,3,3,0,-634.0,1.49,-0.11,3.01,-1.41,0.14,-5.75,18.5625,-13.3125,288.4375,-0.539794921875,0.4713134765625,0.6380615234375,-0.0018,5.5625,39.5625,-58.4375,2.91,-0.26,Climbing Up,7
1.76,1.695474,23,3,3,3,0,-628.0,1.52,-0.15,3.08,-1.36,0.12,-5.68,20.125,-16.1875,286.8125,-0.54248046875,0.46905517578125,0.63818359375,-0.0015,6.5,41.1875,-58.5,2.89,-0.28,Climbing Up,7
1.77,1.695474,23,3,3,3,0,-636.0,1.65,-0.15,3.01,-1.21,0.14,-5.4,20.1875,-18.25,285.375,-0.545166015625,0.466796875,0.63812255859375,-0.0015,6.5,41.1875,-58.5625,2.86,-0.29,Climbing Up,7
1.78,1.709263754,23,3,3,3,0,-651.0,1.89,-0.17,2.86,-0.93,0.13,-5.12,21.375,-19.0625,284.0,-0.54791259765625,0.464599609375,0.637939453125,-0.0015,6.5,41.1875,-58.625,2.83,-0.31,Climbing Up,7
1.79,1.709263754,23,3,3,3,0,-681.0,2.42,-0.19,2.57,-0.38,0.14,-4.63,23.125,-19.0,282.6875,-0.5506591796875,0.462646484375,0.6375732421875,-0.0015,6.5,41.1875,-58.6875,2.8,-0.33,Climbing Up,7
1.81,1.724989787,23,3,3,3,0,-697.0,2.62,-0.19,2.41,-0.15,0.17,-4.0,24.75,-18.6875,281.5,-0.55340576171875,0.4609375,0.636962890625,-0.0015,6.5,41.1875,-58.6875,2.77,-0.36,Climbing Up,7
1.81,1.724989787,23,3,3,3,0,-714.0,2.74,-0.17,2.25,0.0,0.22,-3.38,26.625,-18.25,280.4375,-0.55609130859375,0.45953369140625,0.63604736328125,-0.0012,6.5,40.375,-58.75,2.74,-0.4,Climbing Up,7
1.82,1.754968995,23,3,3,3,0,-719.0,2.77,-0.04,2.21,0.05,0.39,-2.82,28.5625,-18.1875,279.375,-0.558837890625,0.4583740234375,0.63494873046875,-0.0012,6.5,40.375,-58.8125,2.71,-0.43,Climbing Up,7
1.83,1.754968995,23,3,3,3,0,-732.0,2.76,0.31,2.09,0.07,0.8,-2.2,30.3125,-18.5,278.5,-0.56158447265625,0.4573974609375,0.633544921875,-0.0012,6.5,40.375,-58.8125,2.68,-0.48,Climbing Up,7
1.84,1.76934725,23,3,3,3,0,-758.0,2.7,0.47,1.83,0.04,1.0,-1.68,32.0,-18.8125,277.75,-0.5643310546875,0.4566650390625,0.6319580078125,-0.0012,6.5,40.375,-58.875,2.65,-0.53,Climbing Up,7
1.85,1.76934725,23,3,3,3,0,-790.0,2.7,0.53,1.52,0.07,1.11,-1.31,33.75,-19.375,277.0625,-0.56719970703125,0.4560546875,0.63018798828125,-0.0012,6.5,40.375,-58.9375,2.62,-0.58,Climbing Up,7
1.86,1.785238282,23,3,3,3,0,-811.0,2.64,0.6,1.31,0.04,1.23,-1.09,35.625,-19.9375,276.375,-0.570068359375,0.45550537109375,0.62823486328125,-0.0005,5.5,40.375,-58.9375,2.59,-0.63,Climbing Up,7
1.87,1.785238282,23,3,3,3,0,-836.0,2.74,0.62,1.07,0.18,1.32,-1.1,37.0625,-20.375,275.625,-0.5731201171875,0.45501708984375,0.62615966796875,-0.0005,5.5,40.375,-59.0,2.56,-0.69,Climbing Up,7
1.89,1.814462647,23,3,3,3,0,-863.0,2.73,0.55,0.8,0.21,1.3,-1.37,37.8125,-21.3125,274.875,-0.576171875,0.454345703125,0.62408447265625,-0.0005,5.5,40.375,-59.0,2.52,-0.75,Climbing Up,7
1.89,1.814462647,23,3,3,3,0,-895.0,2.59,0.43,0.49,0.09,1.24,-1.47,37.25,-22.75,274.125,-0.579345703125,0.45355224609375,0.6220703125,-0.0005,5.5,40.375,-59.0,2.49,-0.81,Climbing Up,7
1.9,1.829520834,23,3,3,3,0,-941.0,2.18,0.3,0.03,-0.27,1.17,-1.35,35.4375,-24.0,273.5625,-0.5823974609375,0.45269775390625,0.62005615234375,-0.0005,5.5,40.375,-59.0625,2.45,-0.86,Climbing Up,7
1.91,1.829520834,23,3,3,3,0,-951.0,2.06,0.34,-0.05,-0.34,1.26,-0.94,32.5,-25.0,273.375,-0.58526611328125,0.451904296875,0.6180419921875,-0.0001,5.875,41.875,-59.125,2.41,-0.91,Climbing Up,7
1.92,1.845153931,23,3,3,3,0,-947.0,2.12,0.41,-0.01,-0.25,1.38,-0.29,28.3125,-25.6875,273.5,-0.58782958984375,0.45111083984375,0.6160888671875,-0.0001,5.875,41.875,-59.125,2.37,-0.96,Climbing Up,7
1.93,1.845153931,23,3,3,3,0,-951.0,2.37,0.45,-0.03,0.04,1.45,0.17,24.6875,-25.3125,274.0,-0.59014892578125,0.450439453125,0.61419677734375,-0.0001,5.875,41.875,-59.1875,2.32,-1.0,Climbing Up,7
1.94,1.859710776,23,3,3,3,0,-951.0,2.37,0.45,-0.03,0.04,1.45,0.17,24.6875,-25.3125,274.0,-0.59014892578125,0.450439453125,0.61419677734375,-0.0001,5.875,41.875,-59.1875,2.32,-1.0,Climbing Up,7
1.95,1.859710776,23,3,3,3,0,-1006.0,3.03,0.49,-0.58,0.74,1.53,0.36,22.75,-24.6875,274.5625,-0.59228515625,0.4498291015625,0.61236572265625,-0.0001,5.875,41.875,-59.1875,2.28,-1.04,Climbing Up,7
1.96,1.874547079,23,3,3,3,0,-1054.0,3.26,0.37,-1.06,1.01,1.45,0.59,21.1875,-24.5625,275.25,-0.59429931640625,0.44927978515625,0.61053466796875,-0.0001,5.875,41.875,-59.25,2.24,-1.07,Climbing Up,7
1.97,1.874547079,23,3,3,3,0,-1104.0,3.43,0.24,-1.55,1.22,1.35,0.82,19.875,-24.75,276.0625,-0.59619140625,0.44873046875,0.6087646484375,-0.0012,6.5,41.5625,-59.3125,2.2,-1.11,Climbing Up,7
1.97,1.904261069,23,3,3,3,0,-1150.0,3.61,0.1,-2.0,1.45,1.25,0.81,17.8125,-25.3125,277.0,-0.59796142578125,0.44805908203125,0.6070556640625,-0.0012,6.5,41.5625,-59.3125,2.16,-1.14,Climbing Up,7
1.98,1.904261069,23,3,3,3,0,-1242.0,3.94,-0.24,-2.92,1.82,0.92,0.64,14.4375,-25.8125,278.0625,-0.59967041015625,0.447265625,0.60552978515625,-0.0012,6.5,41.5625,-59.375,2.11,-1.16,Climbing Up,7
1.99,1.920112143,23,3,3,3,0,-1287.0,4.05,-0.33,-3.36,1.98,0.84,0.52,10.375,-25.6875,279.1875,-0.60113525390625,0.44635009765625,0.604248046875,-0.0012,6.5,41.5625,-59.4375,2.07,-1.18,Climbing Up,7
2.0,1.920112143,23,3,3,3,0,-1339.0,4.13,-0.38,-3.87,2.09,0.81,0.29,6.75,-25.1875,280.375,-0.60235595703125,0.44525146484375,0.60321044921875,-0.0012,6.5,41.5625,-59.4375,2.03,-1.19,Climbing Up,7
2.01,1.935139405,23,3,3,3,0,-1406.0,4.15,-0.52,-4.53,2.15,0.67,-0.33,4.3125,-25.125,281.4375,-0.6036376953125,0.4439697265625,0.60247802734375,-0.0009,6.75,42.25,-59.5,1.99,-1.2,Climbing Up,7
2.02,1.935139405,23,3,3,3,0,-1582.0,3.89,-0.96,-6.29,1.94,0.24,-1.07,2.625,-25.875,282.375,-0.60491943359375,0.4422607421875,0.60198974609375,-0.0009,6.75,42.25,-59.5625,1.95,-1.2,Climbing Up,7
2.04,1.963966472,23,3,3,3,0,-1657.0,3.68,-1.23,-7.03,1.77,-0.03,-1.43,0.25,-27.1875,283.375,-0.60614013671875,0.44036865234375,0.60174560546875,-0.0009,6.75,42.25,-59.625,1.9,-1.2,Climbing Up,7
2.05,1.963966472,23,3,3,3,0,-1731.0,3.52,-1.47,-7.75,1.66,-0.28,-1.31,-2.6875,-28.0,284.5,-0.6072998046875,0.43841552734375,0.60150146484375,-0.0009,6.75,42.25,-59.6875,1.86,-1.19,Climbing Up,7
2.06,1.978824504,23,3,3,3,0,-1784.0,3.34,-1.77,-8.28,1.53,-0.59,-0.72,-7.375,-29.25,286.125,-0.60809326171875,0.4364013671875,0.60137939453125,-0.0009,6.75,42.25,-59.75,1.81,-1.18,Climbing Up,7
2.06,1.978824504,23,3,3,3,0,-1790.0,2.7,-2.21,-8.32,0.93,-1.05,0.24,-13.875,-30.3125,288.375,-0.60845947265625,0.4345703125,0.60137939453125,0.0002,6.875,44.0625,-59.8125,1.76,-1.15,Climbing Up,7
2.07,1.994312582,23,3,3,3,0,-1717.0,2.29,-2.39,-7.58,0.58,-1.26,1.37,-20.0625,-31.375,291.3125,-0.6083984375,0.432861328125,0.601318359375,0.0002,6.875,44.0625,-59.9375,1.71,-1.12,Climbing Up,7
2.08,1.994312582,23,3,3,3,0,-1595.0,1.8,-2.53,-6.35,0.15,-1.43,2.55,-23.75,-32.125,294.8125,-0.60791015625,0.431396484375,0.6011962890625,0.0002,6.875,44.0625,-60.0,1.65,-1.09,Climbing Up,7
2.09,2.024515992,23,3,3,3,0,-1281.0,0.67,-2.65,-3.19,-0.91,-1.59,3.38,-23.3125,-32.375,298.625,-0.60736083984375,0.43017578125,0.600830078125,0.0002,6.875,44.0625,-60.0625,1.59,-1.05,Climbing Up,7
2.11,2.024515992,23,3,3,3,0,-1153.0,0.22,-2.77,-1.9,-1.3,-1.74,4.11,-20.75,-31.4375,302.5,-0.6068115234375,0.4293212890625,0.6002197265625,0.0002,6.875,44.0625,-60.1875,1.53,-1.02,Climbing Up,7
2.12,2.04030835,23,3,3,3,0,-1052.0,-0.11,-2.92,-0.88,-1.6,-1.91,4.98,-19.1875,-29.0625,306.5,-0.6060791015625,0.42889404296875,0.59930419921875,0.0002,6.5625,43.0,-60.25,1.48,-1.0,Climbing Up,7
2.13,2.04030835,23,3,3,3,0,-975.0,-0.39,-3.26,-0.09,-1.83,-2.28,5.86,-21.4375,-26.0,310.6875,-0.60491943359375,0.42889404296875,0.598388671875,0.0002,6.5625,43.0,-60.3125,1.43,-0.97,Climbing Up,7
2.14,2.054288941,23,3,3,3,0,-873.0,-0.95,-4.13,0.92,-2.34,-3.19,7.24,-28.3125,-22.125,315.375,-0.60308837890625,0.4293212890625,0.59759521484375,0.0002,6.5625,43.0,-60.375,1.38,-0.94,Climbing Up,7
2.14,2.054288941,23,3,3,3,0,-849.0,-1.18,-4.47,1.18,-2.53,-3.58,9.29,-39.9375,-17.4375,321.0,-0.60009765625,0.4302978515625,0.5970458984375,0.0002,6.5625,43.0,-60.4375,1.35,-0.88,Climbing Up,7
2.15,2.086461305,23,3,3,3,0,-857.0,-1.36,-4.62,1.1,-2.68,-3.81,11.54,-53.5625,-12.8125,327.5625,-0.59576416015625,0.43194580078125,0.5968017578125,0.0002,6.5625,43.0,-60.5,1.31,-0.81,Climbing Up,7
2.16,2.086461305,23,3,3,3,0,-878.0,-1.48,-4.68,0.9,-2.77,-3.96,13.61,-67.8125,-9.1875,335.1875,-0.5902099609375,0.4339599609375,0.5968017578125,0.002,7.375,44.0625,-60.5625,1.29,-0.71,Climbing Up,7
2.17,2.099296428,23,3,3,3,0,-936.0,-1.29,-4.04,0.34,-2.56,-3.44,15.16,-79.0625,-6.8125,343.625,-0.5836181640625,0.436279296875,0.5970458984375,0.002,7.375,44.0625,-60.625,1.26,-0.6,Climbing Up,7
2.18,2.099296428,23,3,3,3,0,-959.0,-0.89,-3.58,0.12,-2.13,-3.1,15.69,-83.0,-5.9375,352.25,-0.57659912109375,0.4385986328125,0.59735107421875,0.002,7.375,44.0625,-60.6875,1.24,-0.48,Climbing Up,7
2.2,2.114664511,23,3,3,3,0,-972.0,-0.4,-3.08,0.0,-1.63,-2.7,15.22,-79.4375,-7.4375,360.6875,-0.56988525390625,0.4407958984375,0.597412109375,0.002,7.375,44.0625,-60.75,1.22,-0.37,Climbing Up,7
2.21,2.114664511,23,3,3,3,0,-982.0,0.09,-2.58,-0.09,-1.11,-2.31,14.05,-70.0625,-9.4375,368.375,-0.5638427734375,0.44268798828125,0.59722900390625,0.002,7.375,44.0625,-60.75,1.2,-0.27,Climbing Up,7
2.22,2.145241659,23,3,3,3,0,-945.0,1.01,-1.79,0.27,-0.17,-1.6,11.99,-57.875,-10.0625,375.0,-0.55889892578125,0.44427490234375,0.5968017578125,0.002,7.6875,43.75,-60.8125,1.18,-0.19,Climbing Up,7
2.22,2.145241659,23,3,3,3,0,-880.0,1.44,-1.45,0.93,0.27,-1.33,9.36,-45.625,-8.9375,380.1875,-0.55499267578125,0.4454345703125,0.596435546875,0.002,7.6875,43.75,-60.8125,1.16,-0.12,Climbing Up,7
2.23,2.150668254,23,3,3,3,0,-880.0,1.44,-1.45,0.93,0.27,-1.33,9.36,-45.625,-8.9375,380.1875,-0.55499267578125,0.4454345703125,0.596435546875,0.002,7.6875,43.75,-60.8125,1.16,-0.12,Climbing Up,7
2.24,2.150668254,23,3,3,3,0,-805.0,1.7,-1.26,1.68,0.55,-1.18,6.61,-35.3125,-7.6875,384.0625,-0.5521240234375,0.446044921875,0.5963134765625,0.002,7.6875,43.75,-60.8125,1.15,-0.07,Climbing Up,7
2.24,2.174415569,23,3,3,3,0,-697.0,1.52,-0.96,2.76,0.37,-0.92,4.28,-28.125,-6.75,386.875,-0.550048828125,0.4461669921875,0.59637451171875,0.002,7.6875,43.75,-60.8125,1.14,-0.03,Climbing Up,7
2.25,2.174415569,23,3,3,3,0,-657.0,1.29,-0.71,3.16,0.16,-0.71,2.77,-24.3125,-5.5625,389.0,-0.5484619140625,0.44598388671875,0.5966796875,0.002,7.6875,43.75,-60.875,1.13,0.0,Climbing Up,7
2.27,2.189301596,23,3,3,3,0,-630.0,1.13,-0.44,3.43,0.0,-0.48,2.06,-21.75,-2.9375,390.625,-0.5469970703125,0.44580078125,0.59710693359375,0.0027,8.75,43.0,-60.875,1.12,0.03,Climbing Up,7
2.28,2.189301596,23,3,3,3,0,-623.0,1.02,-0.18,3.5,-0.1,-0.25,1.91,-18.1875,0.1875,391.9375,-0.545654296875,0.44586181640625,0.59747314453125,0.0027,8.75,43.0,-60.875,1.12,0.06,Climbing Up,7
2.29,2.204131715,23,3,3,3,0,-607.0,0.81,0.24,3.66,-0.31,0.15,1.99,-12.625,2.75,392.875,-0.54449462890625,0.44622802734375,0.59765625,0.0027,8.75,43.0,-60.875,1.13,0.08,Climbing Up,7
2.3,2.204131715,23,3,3,3,0,-616.0,0.52,0.46,3.56,-0.61,0.36,2.16,-5.1875,5.25,393.5,-0.5435791015625,0.44696044921875,0.5975341796875,0.0027,8.75,43.0,-60.8125,1.14,0.09,Climbing Up,7
2.31,2.234169679,23,3,3,3,0,-597.0,0.38,0.62,3.75,-0.77,0.53,2.64,0.6875,7.25,393.875,-0.54278564453125,0.4482421875,0.59710693359375,0.0027,8.75,43.0,-60.8125,1.15,0.08,Climbing Up,7
2.31,2.234169679,23,3,3,3,0,-587.0,0.19,0.74,3.85,-0.97,0.67,2.82,4.6875,8.3125,394.0625,-0.5421142578125,0.44970703125,0.596435546875,0.0016,8.5,43.0,-60.8125,1.16,0.07,Climbing Up,7
2.32,2.250883139,23,3,3,3,0,-544.0,-0.04,0.61,4.29,-1.22,0.55,1.86,10.3125,8.4375,393.8125,-0.5419921875,0.4510498046875,0.59576416015625,0.0016,8.5,43.0,-60.8125,1.18,0.05,Climbing Up,7
2.34,2.250883139,23,3,3,3,0,-514.0,-0.06,0.61,4.58,-1.25,0.58,0.78,16.5625,7.1875,393.0,-0.54241943359375,0.45220947265625,0.59503173828125,0.0016,8.5,43.0,-60.8125,1.19,0.02,Climbing Up,7
2.35,2.263897909,23,3,3,3,0,-508.0,-0.17,0.54,4.64,-1.37,0.56,0.24,23.0,4.75,391.875,-0.5433349609375,0.4532470703125,0.593994140625,0.0016,8.5,43.0,-60.8125,1.2,-0.01,Climbing Up,7
2.36,2.263897909,23,3,3,3,0,-521.0,-0.3,0.46,4.51,-1.5,0.52,0.63,25.5,2.625,390.875,-0.54443359375,0.4544677734375,0.59271240234375,0.0016,8.5,43.0,-60.8125,1.2,-0.05,Climbing Up,7
2.37,2.294460857,23,3,3,3,0,-593.0,-0.22,0.35,3.8,-1.43,0.45,1.6,23.3125,0.9375,390.375,-0.5452880859375,0.455810546875,0.59124755859375,0.0017,8.375,43.6875,-60.8125,1.2,-0.1,Climbing Up,7
2.38,2.294460857,23,3,3,3,0,-626.0,-0.02,0.18,3.47,-1.23,0.32,2.41,19.4375,0.25,390.3125,-0.54583740234375,0.45721435546875,0.5897216796875,0.0017,8.375,43.6875,-60.8125,1.2,-0.13,Climbing Up,7
2.39,2.309401043,23,3,3,3,0,-658.0,0.11,0.07,3.14,-1.09,0.24,2.78,16.5625,0.5625,390.4375,-0.54608154296875,0.45867919921875,0.58819580078125,0.0017,8.375,43.6875,-60.8125,1.2,-0.16,Climbing Up,7
2.39,2.309401043,23,3,3,3,0,-681.0,0.32,0.07,2.91,-0.88,0.27,3.27,14.25,1.5,390.8125,-0.54608154296875,0.46026611328125,0.58673095703125,0.0017,8.375,43.6875,-60.75,1.2,-0.19,Climbing Up,7
2.4,2.324403688,23,3,3,3,0,-692.0,0.84,0.27,2.8,-0.37,0.49,4.23,12.625,3.3125,391.375,-0.54571533203125,0.46221923828125,0.585205078125,0.0017,8.375,43.6875,-60.75,1.21,-0.22,Climbing Up,7
2.42,2.324403688,23,3,3,3,0,-691.0,0.93,0.42,2.81,-0.28,0.67,5.53,9.3125,6.5,392.375,-0.5447998046875,0.464599609375,0.58355712890625,0.0017,8.6875,43.25,-60.75,1.22,-0.24,Climbing Up,7
2.43,2.354353191,23,3,3,3,0,-711.0,0.87,0.53,2.61,-0.36,0.8,6.66,5.4375,9.5,393.6875,-0.5433349609375,0.46734619140625,0.5819091796875,0.0017,8.6875,43.25,-60.75,1.23,-0.26,Climbing Up,7
2.44,2.354353191,23,3,3,3,0,-757.0,0.63,0.4,2.14,-0.61,0.68,7.16,2.5625,11.9375,395.125,-0.54144287109375,0.47027587890625,0.580322265625,0.0017,8.6875,43.25,-60.75,1.25,-0.28,Climbing Up,7
2.45,2.368812542,23,3,3,3,0,-787.0,0.4,0.31,1.83,-0.86,0.61,7.1,1.25,13.0625,396.5625,-0.53948974609375,0.47314453125,0.57891845703125,0.0017,8.6875,43.25,-60.6875,1.27,-0.29,Climbing Up,7
2.46,2.368812542,23,3,3,3,0,-813.0,0.32,0.19,1.58,-0.97,0.5,6.56,3.25,13.0625,397.6875,-0.5377197265625,0.4759521484375,0.57745361328125,0.0017,8.6875,43.25,-60.6875,1.29,-0.3,Climbing Up,7
2.47,2.384654217,23,3,3,3,0,-851.0,0.37,0.07,1.19,-0.93,0.4,5.9,8.4375,13.0625,398.4375,-0.536376953125,0.47869873046875,0.57598876953125,0.0015,7.75,44.0,-60.6875,1.31,-0.33,Climbing Up,7
2.47,2.384654217,23,3,3,3,0,-936.0,0.66,-0.03,0.34,-0.67,0.32,5.37,12.9375,12.5625,398.875,-0.535400390625,0.48138427734375,0.57440185546875,0.0015,7.75,44.0,-60.625,1.33,-0.36,Climbing Up,7
2.48,2.398787436,23,3,3,3,0,-955.0,0.93,0.02,0.15,-0.41,0.41,4.94,15.3125,12.75,399.0,-0.5345458984375,0.48406982421875,0.57281494140625,0.0015,7.75,44.0,-60.625,1.35,-0.39,Climbing Up,7
2.49,2.398787436,23,3,3,3,0,-955.0,0.93,0.02,0.15,-0.41,0.41,4.94,15.3125,12.75,399.0,-0.5345458984375,0.48406982421875,0.57281494140625,0.0015,7.75,44.0,-60.625,1.35,-0.39,Climbing Up,7
2.5,2.41490735,23,3,3,3,0,-950.0,1.21,0.15,0.19,-0.15,0.58,4.44,15.875,14.0,398.9375,-0.5338134765625,0.48663330078125,0.57135009765625,0.0015,7.75,44.0,-60.625,1.37,-0.42,Climbing Up,7
2.51,2.41490735,23,3,3,3,0,-936.0,1.33,0.31,0.33,-0.06,0.77,4.04,16.125,16.0,398.625,-0.5330810546875,0.48919677734375,0.570068359375,0.0015,7.75,44.0,-60.5625,1.39,-0.46,Climbing Up,7
2.52,2.445262818,23,3,3,3,0,-937.0,1.22,0.53,0.31,-0.2,1.03,3.86,16.75,17.6875,398.1875,-0.5323486328125,0.49176025390625,0.56884765625,0.0012,7.75,44.875,-60.5,1.42,-0.49,Climbing Up,7
2.53,2.445262818,23,3,3,3,0,-969.0,0.93,0.55,-0.01,-0.52,1.08,3.77,17.6875,18.75,397.5625,-0.5316162109375,0.494384765625,0.567626953125,0.0012,7.75,44.875,-60.5,1.45,-0.53,Climbing Up,7
2.54,2.45874406,23,3,3,3,0,-1027.0,0.59,0.46,-0.59,-0.88,1.03,3.79,16.4375,20.125,396.9375,-0.53082275390625,0.4970703125,0.5665283203125,0.0012,7.75,44.875,-60.4375,1.48,-0.56,Climbing Up,7
2.55,2.45874406,23,3,3,3,0,-1088.0,0.3,0.38,-1.21,-1.21,0.97,3.89,11.125,21.8125,396.5,-0.52960205078125,0.4996337890625,0.565673828125,0.0012,7.75,44.875,-60.375,1.52,-0.58,Climbing Up,7
2.56,2.474425986,23,3,3,3,0,-1181.0,0.14,0.26,-2.15,-1.41,0.86,4.13,3.375,23.5,396.375,-0.52783203125,0.5020751953125,0.565185546875,0.0012,7.75,44.875,-60.375,1.55,-0.6,Climbing Up,7
2.56,2.474425986,23,3,3,3,0,-1207.0,0.4,0.32,-2.42,-1.19,0.92,4.2,-3.8125,25.25,396.5625,-0.52569580078125,0.50439453125,0.5650634765625,0.002,8.0625,45.5,-60.3125,1.59,-0.6,Climbing Up,7
2.58,2.504486166,23,3,3,3,0,-1218.0,0.79,0.4,-2.53,-0.84,1.0,3.88,-7.5625,27.0625,396.6875,-0.5233154296875,0.506591796875,0.56524658203125,0.002,8.0625,45.5,-60.3125,1.63,-0.59,Climbing Up,7
2.59,2.504486166,23,3,3,3,0,-1212.0,1.6,0.65,-2.47,-0.08,1.24,3.21,-7.0625,29.5625,396.4375,-0.52093505859375,0.5086669921875,0.565673828125,0.002,8.0625,45.5,-60.25,1.68,-0.59,Climbing Up,7
2.6,2.519611817,23,3,3,3,0,-1227.0,1.91,0.76,-2.63,0.17,1.35,2.27,-3.6875,32.1875,395.6875,-0.51885986328125,0.51068115234375,0.5662841796875,0.002,8.0625,45.5,-60.1875,1.73,-0.58,Climbing Up,7
2.61,2.519611817,23,3,3,3,0,-1261.0,2.09,0.84,-2.99,0.29,1.43,1.45,0.875,34.5,394.3125,-0.51708984375,0.5126953125,0.5670166015625,0.002,8.0625,45.5,-60.125,1.79,-0.59,Climbing Up,7
2.62,2.535741741,23,3,3,3,0,-1327.0,2.06,0.94,-3.66,0.21,1.54,0.94,5.3125,35.9375,392.5625,-0.51556396484375,0.5147705078125,0.56768798828125,0.0013,8.0625,45.5625,-60.0625,1.85,-0.6,Climbing Up,7
2.63,2.535741741,23,3,3,3,0,-1433.0,1.38,1.04,-4.74,-0.52,1.66,0.74,8.8125,37.375,390.5,-0.51416015625,0.5169677734375,0.56829833984375,0.0013,8.0625,45.5625,-59.9375,1.91,-0.61,Climbing Up,7
2.64,2.56484074,23,3,3,3,0,-1488.0,1.12,0.93,-5.3,-0.86,1.56,0.68,10.5,39.125,388.1875,-0.51275634765625,0.519287109375,0.5689697265625,0.0013,8.0625,45.5625,-59.875,1.98,-0.63,Climbing Up,7
2.65,2.56484074,23,3,3,3,0,-1567.0,0.88,0.64,-6.11,-1.16,1.29,0.44,9.3125,40.375,385.875,-0.51129150390625,0.521484375,0.56976318359375,0.0013,8.0625,45.5625,-59.75,2.04,-0.65,Climbing Up,7
2.66,2.578667441,23,3,3,3,0,-1624.0,0.88,0.21,-6.69,-1.23,0.87,-0.1,6.3125,40.8125,383.5,-0.509765625,0.52349853515625,0.57080078125,0.0013,8.0625,45.5625,-59.6875,2.11,-0.66,Climbing Up,7
2.67,2.578667441,23,3,3,3,0,-1640.0,1.8,-0.46,-6.86,-0.37,0.2,-0.81,0.4375,40.0625,381.25,-0.50811767578125,0.52496337890625,0.5723876953125,0.0007,7.0625,45.875,-59.5625,2.18,-0.66,Climbing Up,7
2.68,2.594617026,23,3,3,3,0,-1582.0,2.52,-0.62,-6.3,0.27,0.02,-1.58,-5.9375,39.1875,379.0625,-0.50634765625,0.5260009765625,0.5743408203125,0.0007,7.0625,45.875,-59.5,2.24,-0.64,Climbing Up,7
2.69,2.594617026,23,3,3,3,0,-1507.0,3.37,-0.87,-5.56,1.05,-0.25,-2.83,-9.625,38.4375,376.8125,-0.50469970703125,0.5264892578125,0.57684326171875,0.0007,7.0625,45.875,-59.375,2.31,-0.62,Climbing Up,7
2.7,2.624364137,23,3,3,3,0,-1404.0,3.98,-1.23,-4.54,1.61,-0.63,-4.37,-9.625,36.8125,374.125,-0.50335693359375,0.5263671875,0.5797119140625,0.0007,7.0625,45.875,-59.3125,2.37,-0.59,Climbing Up,7
2.71,2.624364137,23,3,3,3,0,-1144.0,4.29,-2.18,-1.96,1.86,-1.61,-5.66,-8.125,33.8125,371.1875,-0.5025634765625,0.52581787109375,0.582763671875,0.0007,7.0625,45.875,-59.25,2.43,-0.56,Climbing Up,7
2.72,2.654207806,23,3,3,3,0,-1057.0,4.43,-2.69,-1.1,1.94,-2.15,-6.41,-7.8125,30.5,368.1875,-0.50201416015625,0.52484130859375,0.58587646484375,0.0015,7.5,46.25,-59.125,2.49,-0.53,Climbing Up,7
2.73,2.654207806,23,3,3,3,0,-962.0,4.59,-3.1,-0.16,2.05,-2.6,-6.95,-8.9375,27.875,365.25,-0.50164794921875,0.52349853515625,0.589111328125,0.0015,7.5,46.25,-59.0625,2.54,-0.5,Climbing Up,7
2.74,2.659284995,23,3,3,3,0,-758.0,4.35,-3.57,1.86,1.76,-3.11,-7.84,-10.5625,24.3125,362.25,-0.50152587890625,0.521728515625,0.59259033203125,0.0015,7.5,46.25,-59.0,2.58,-0.46,Climbing Up,7
2.74,2.659284995,23,3,3,3,0,-758.0,4.35,-3.57,1.86,1.76,-3.11,-7.84,-10.5625,24.3125,362.25,-0.50152587890625,0.521728515625,0.59259033203125,0.0015,7.5,46.25,-59.0,2.58,-0.46,Climbing Up,7
2.75,2.669701621,23,3,3,3,0,-694.0,4.15,-3.69,2.49,1.53,-3.27,-9.06,-10.5,20.0625,359.125,-0.50177001953125,0.51934814453125,0.59625244140625,0.0015,7.5,46.25,-59.0,2.62,-0.42,Climbing Up,7
2.76,2.669701621,23,3,3,3,0,-664.0,3.99,-3.77,2.78,1.34,-3.39,-10.14,-10.3125,16.6875,355.875,-0.50244140625,0.51641845703125,0.60003662109375,0.0015,7.5,46.25,-58.9375,2.65,-0.37,Climbing Up,7
2.77,2.684448691,23,3,3,3,0,-673.0,3.95,-3.79,2.69,1.28,-3.46,-11.05,-10.6875,14.0625,352.5625,-0.50335693359375,0.5130615234375,0.60406494140625,0.0015,6.25,46.875,-58.875,2.67,-0.32,Climbing Up,7
2.78,2.684448691,23,3,3,3,0,-764.0,3.64,-3.74,1.77,0.94,-3.47,-11.88,-14.125,11.875,349.1875,-0.5042724609375,0.50927734375,0.60833740234375,0.0015,6.25,46.875,-58.875,2.7,-0.26,Climbing Up,7
2.79,2.715255128,23,3,3,3,0,-808.0,3.22,-3.61,1.33,0.5,-3.41,-12.19,-18.0625,9.375,346.0625,-0.50518798828125,0.50506591796875,0.61273193359375,0.0015,6.25,46.875,-58.8125,2.72,-0.2,Climbing Up,7
2.8,2.715255128,23,3,3,3,0,-841.0,2.76,-3.31,1.0,0.02,-3.17,-11.74,-19.125,7.5625,343.1875,-0.5059814453125,0.50091552734375,0.6170654296875,0.0015,6.25,46.875,-58.8125,2.73,-0.13,Climbing Up,7
2.81,2.72944035,23,3,3,3,0,-874.0,2.5,-2.97,0.66,-0.24,-2.89,-10.69,-16.5,6.5,340.5625,-0.50677490234375,0.49713134765625,0.620849609375,0.0015,6.25,46.875,-58.8125,2.74,-0.07,Climbing Up,7
2.82,2.72944035,23,3,3,3,0,-900.0,2.74,-2.41,0.4,0.0,-2.38,-9.3,-12.3125,6.125,338.125,-0.50750732421875,0.493896484375,0.62408447265625,0.0009,6.0,46.1875,-58.8125,2.75,-0.02,Climbing Up,7
2.83,2.745040366,23,3,3,3,0,-871.0,2.93,-2.14,0.69,0.16,-2.15,-7.93,-8.4375,6.1875,335.9375,-0.50823974609375,0.4912109375,0.62677001953125,0.0009,6.0,46.1875,-58.75,2.76,0.0,Climbing Up,7
2.84,2.745040366,23,3,3,3,0,-831.0,3.07,-1.79,1.09,0.29,-1.83,-6.94,-5.5625,6.0625,333.875,-0.5089111328125,0.48895263671875,0.6290283203125,0.0009,6.0,46.1875,-58.75,2.77,0.03,Climbing Up,7
2.85,2.774543784,23,3,3,3,0,-796.0,3.18,-1.4,1.44,0.39,-1.46,-6.08,-3.75,6.6875,331.875,-0.509521484375,0.487060546875,0.6309814453125,0.0009,6.0,46.1875,-58.75,2.78,0.06,Climbing Up,7
2.86,2.774543784,23,3,3,3,0,-759.0,3.1,-0.66,1.8,0.3,-0.75,-5.27,-3.0,7.9375,330.0625,-0.50994873046875,0.48553466796875,0.6326904296875,0.0009,6.0,46.1875,-58.6875,2.8,0.08,Climbing Up,7
2.87,2.790261801,23,3,3,3,0,-753.0,2.96,-0.37,1.85,0.14,-0.47,-4.66,-1.4375,9.1875,328.3125,-0.51031494140625,0.4842529296875,0.63427734375,0.002,6.0,45.0,-58.6875,2.81,0.09,Climbing Up,7
2.88,2.790261801,23,3,3,3,0,-740.0,2.87,-0.07,1.98,0.04,-0.18,-4.48,1.125,10.3125,326.375,-0.5107421875,0.48321533203125,0.63568115234375,0.002,6.0,45.0,-58.625,2.83,0.11,Climbing Up,7
2.89,2.850064088,23,3,3,3,0,-718.0,2.72,0.16,2.19,-0.11,0.04,-4.7,4.75,10.25,324.25,-0.51141357421875,0.482177734375,0.636962890625,0.002,6.0,45.0,-58.625,2.84,0.11,Climbing Up,7
2.9,2.850064088,23,3,3,3,0,-664.0,2.43,0.95,2.73,-0.42,0.83,-4.93,8.25,9.5625,321.9375,-0.5123291015625,0.48114013671875,0.63812255859375,0.002,6.0,45.0,-58.5625,2.86,0.11,Climbing Up,7
2.91,2.854846233,23,3,3,3,0,-641.0,2.37,1.54,2.95,-0.5,1.43,-5.15,12.5,8.375,319.4375,-0.5135498046875,0.4801025390625,0.63909912109375,0.002,6.0,45.0,-58.5625,2.87,0.11,Climbing Up,7
2.92,2.854846233,23,3,3,3,0,-617.0,2.34,1.97,3.19,-0.54,1.87,-5.71,17.8125,6.875,316.625,-0.5152587890625,0.4788818359375,0.6400146484375,0.0027,5.5625,45.0,-58.5625,2.88,0.1,Climbing Up,7
2.93,2.86017448,23,3,3,3,0,-580.0,2.27,1.86,3.56,-0.61,1.78,-6.64,22.3125,5.875,313.375,-0.51739501953125,0.4774169921875,0.640869140625,0.0027,5.5625,45.0,-58.5,2.89,0.08,Climbing Up,7
2.94,2.86017448,23,3,3,3,0,-559.0,2.18,1.45,3.77,-0.71,1.37,-7.73,20.9375,5.375,309.9375,-0.51959228515625,0.47552490234375,0.64208984375,0.0027,5.5625,45.0,-58.5,2.9,0.07,Climbing Up,7
2.95,2.864880576,23,3,3,3,0,-533.0,2.06,0.86,4.03,-0.84,0.78,-8.5,11.5625,5.5,306.6875,-0.52142333984375,0.47314453125,0.64385986328125,0.0027,5.5625,45.0,-58.5,2.91,0.08,Climbing Up,7
2.96,2.864880576,23,3,3,3,0,-513.0,1.92,0.35,4.22,-0.99,0.24,-8.93,-0.6875,5.625,303.75,-0.52264404296875,0.47021484375,0.6463623046875,0.0027,5.5625,45.0,-58.5,2.92,0.11,Climbing Up,7
2.97,2.910986696,23,3,3,3,0,-474.0,1.66,-0.45,4.61,-1.26,-0.6,-9.06,-6.625,5.1875,301.0625,-0.52349853515625,0.46710205078125,0.64910888671875,0.002,5.1875,45.75,-58.4375,2.92,0.15,Climbing Up,7
2.98,2.910986696,23,3,3,3,0,-483.0,1.57,-0.55,4.51,-1.36,-0.73,-8.83,-2.5,4.375,298.375,-0.52459716796875,0.464111328125,0.65155029296875,0.002,5.1875,45.75,-58.4375,2.93,0.18,Climbing Up,7
2.99,2.920891237,23,3,3,3,0,-510.0,1.51,-0.49,4.24,-1.41,-0.69,-8.33,8.5,2.8125,295.375,-0.52630615234375,0.46148681640625,0.6533203125,0.002,5.1875,45.75,-58.4375,2.93,0.19,Climbing Up,7
3.0,2.920891237,23,3,3,3,0,-541.0,1.51,-0.28,3.93,-1.41,-0.47,-7.63,18.9375,1.0625,292.25,-0.52850341796875,0.4593505859375,0.65435791015625,0.002,5.1875,45.75,-58.4375,2.93,0.18,Climbing Up,7
3.0,3.030102785,23,3,3,3,0,-541.0,1.51,-0.28,3.93,-1.41,-0.47,-7.63,18.9375,1.0625,292.25,-0.52850341796875,0.4593505859375,0.65435791015625,0.002,5.1875,45.75,-58.4375,2.93,0.18,Climbing Up,7
3.01,3.030102785,23,3,3,3,0,-626.0,1.52,0.05,3.09,-1.4,-0.11,-6.97,25.5,-0.625,289.1875,-0.53106689453125,0.45745849609375,0.6549072265625,0.002,5.1875,45.75,-58.4375,2.93,0.17,Climbing Up,7
3.02,3.151059775,23,3,3,3,0,-651.0,1.67,0.1,2.83,-1.25,-0.03,-6.4,29.0625,-2.0625,286.25,-0.5338134765625,0.455810546875,0.65509033203125,0.002,5.1875,44.1875,-58.4375,2.92,0.14,Climbing Up,7
3.03,3.151059775,23,3,3,3,0,-664.0,1.8,0.18,2.71,-1.12,0.07,-5.56,30.4375,-3.3125,283.5,-0.53656005859375,0.45440673828125,0.65496826171875,0.002,5.1875,44.1875,-58.5,2.92,0.11,Climbing Up,7
3.04,3.156516155,23,3,3,3,0,-666.0,1.93,0.26,2.69,-0.98,0.19,-4.56,31.5625,-4.25,281.125,-0.5391845703125,0.45330810546875,0.65447998046875,0.002,5.1875,44.1875,-58.5,2.91,0.07,Climbing Up,7
3.05,3.156516155,23,3,3,3,0,-715.0,2.13,0.28,2.2,-0.77,0.25,-3.69,33.5625,-5.1875,278.9375,-0.5418701171875,0.45257568359375,0.6536865234375,0.002,5.1875,44.1875,-58.5,2.9,0.03,Climbing Up,7
3.06,3.161929079,23,3,3,3,0,-759.0,2.19,0.31,1.77,-0.7,0.33,-2.92,35.9375,-6.0,276.9375,-0.54461669921875,0.45208740234375,0.652587890625,0.002,5.1875,44.1875,-58.5,2.89,-0.01,Climbing Up,7
3.07,3.161929079,23,3,3,3,0,-794.0,2.35,0.38,1.42,-0.53,0.46,-2.18,38.8125,-6.9375,275.125,-0.54742431640625,0.451904296875,0.65106201171875,0.0025,5.1875,43.75,-58.5625,2.88,-0.07,Climbing Up,7
3.08,3.167602296,23,3,3,3,0,-865.0,2.71,0.54,0.72,-0.15,0.68,-1.58,41.1875,-8.4375,273.4375,-0.55035400390625,0.451904296875,0.6492919921875,0.0025,5.1875,43.75,-58.5625,2.87,-0.13,Climbing Up,7
3.09,3.167602296,23,3,3,3,0,-890.0,2.78,0.57,0.47,-0.07,0.77,-1.13,42.9375,-10.25,271.9375,-0.5533447265625,0.4520263671875,0.64727783203125,0.0025,5.1875,43.75,-58.5625,2.85,-0.2,Climbing Up,7
3.1,3.240026857,23,3,3,3,0,-886.0,3.01,0.61,0.51,0.17,0.89,-0.63,44.8125,-11.25,270.625,-0.556396484375,0.4522705078125,0.64495849609375,0.0025,5.1875,43.75,-58.625,2.83,-0.27,Climbing Up,7
3.11,3.240026857,23,3,3,3,0,-898.0,3.08,0.65,0.4,0.26,1.01,0.0,46.25,-10.875,269.375,-0.5594482421875,0.45281982421875,0.6424560546875,0.0025,5.1875,43.75,-58.625,2.81,-0.35,Climbing Up,7
3.12,3.245324017,23,3,3,3,0,-915.0,3.03,0.56,0.23,0.22,0.99,0.63,46.6875,-10.6875,268.3125,-0.5623779296875,0.45361328125,0.6397705078125,0.0015,4.1875,45.0,-58.625,2.8,-0.43,Climbing Up,7
3.13,3.245324017,23,3,3,3,0,-915.0,3.05,0.56,0.23,0.26,1.07,1.28,47.0625,-11.375,267.4375,-0.5653076171875,0.45458984375,0.63690185546875,0.0015,4.1875,45.0,-58.625,2.78,-0.51,Climbing Up,7
3.14,3.251055991,23,3,3,3,0,-939.0,3.19,0.56,0.0,0.43,1.15,1.61,48.3125,-12.0,266.625,-0.5682373046875,0.45562744140625,0.6337890625,0.0015,4.1875,45.0,-58.6875,2.76,-0.59,Climbing Up,7
3.15,3.251055991,23,3,3,3,0,-970.0,3.44,0.59,-0.31,0.7,1.27,1.32,48.1875,-13.0,265.8125,-0.57122802734375,0.45654296875,0.63079833984375,0.0015,4.1875,45.0,-58.6875,2.73,-0.68,Climbing Up,7
3.16,3.256265464,23,3,3,3,0,-1065.0,3.7,0.29,-1.26,0.98,1.05,0.69,45.75,-13.3125,264.9375,-0.57415771484375,0.4571533203125,0.6280517578125,0.0015,4.1875,45.0,-58.6875,2.71,-0.75,Climbing Up,7
3.17,3.256265464,23,3,3,3,0,-1118.0,3.84,0.06,-1.79,1.15,0.89,0.14,39.8125,-12.875,264.0625,-0.57684326171875,0.45745849609375,0.625732421875,0.0013,4.75,45.75,-58.6875,2.69,-0.82,Climbing Up,7
3.18,3.261446413,23,3,3,3,0,-1154.0,4.09,-0.17,-2.14,1.41,0.7,-0.1,31.25,-12.5,263.4375,-0.57904052734375,0.45751953125,0.6239013671875,0.0013,4.75,45.75,-58.6875,2.67,-0.87,Climbing Up,7
3.19,3.261446413,23,3,3,3,0,-1176.0,4.18,-0.32,-2.36,1.53,0.58,-0.06,23.6875,-13.3125,263.25,-0.58087158203125,0.45733642578125,0.62237548828125,0.0013,4.75,45.75,-58.6875,2.65,-0.91,Climbing Up,7
3.2,3.267355185,23,3,3,3,0,-1155.0,3.76,-0.18,-2.15,1.13,0.75,0.36,17.6875,-15.1875,263.5,-0.5823974609375,0.45709228515625,0.62103271484375,0.0013,4.75,45.75,-58.75,2.62,-0.94,Climbing Up,7
3.21,3.267355185,23,3,3,3,0,-1181.0,3.51,-0.08,-2.4,0.92,0.88,0.91,15.1875,-17.5,264.125,-0.583740234375,0.45684814453125,0.61968994140625,0.0013,4.75,45.75,-58.75,2.59,-0.97,Climbing Up,7
3.22,3.270441815,23,3,3,3,0,-1244.0,3.53,-0.14,-3.03,0.97,0.85,1.12,15.3125,-19.25,264.9375,-0.585205078125,0.45660400390625,0.6181640625,0.0017,5.1875,45.25,-58.8125,2.56,-0.99,Climbing Up,7
3.23,3.270441815,23,3,3,3,0,-1397.0,4.16,-0.7,-4.56,1.63,0.32,1.04,14.1875,-19.75,265.75,-0.58660888671875,0.45623779296875,0.61676025390625,0.0017,5.1875,45.25,-58.8125,2.53,-1.02,Climbing Up,7
3.24,3.273445884,23,3,3,3,0,-1460.0,4.47,-1.0,-5.17,1.97,0.03,1.2,8.3125,-19.5625,266.875,-0.587646484375,0.45587158203125,0.6156005859375,0.0017,5.1875,45.25,-58.875,2.49,-1.04,Climbing Up,7
3.25,3.273445884,23,3,3,3,0,-1494.0,4.71,-1.11,-5.51,2.24,-0.07,1.78,-1.875,-19.4375,268.625,-0.58807373046875,0.4554443359375,0.61480712890625,0.0017,5.1875,45.25,-58.9375,2.46,-1.04,Climbing Up,7
3.26,3.276400636,23,3,3,3,0,-1494.0,4.84,-1.08,-5.49,2.41,-0.06,2.54,-13.1875,-20.1875,271.125,-0.5877685546875,0.4549560546875,0.6143798828125,0.0017,5.1875,45.25,-59.0,2.42,-1.02,Climbing Up,7
3.27,3.276400636,23,3,3,3,0,-1458.0,4.52,-0.75,-5.12,2.13,0.24,3.15,-18.5625,-22.25,274.125,-0.58721923828125,0.45440673828125,0.614013671875,0.0017,5.1875,46.0625,-59.0625,2.38,-1.0,Climbing Up,7
3.28,3.279606528,23,3,3,3,0,-1463.0,4.18,-0.78,-5.16,1.84,0.2,3.4,-17.125,-26.0,277.375,-0.5867919921875,0.45379638671875,0.61346435546875,0.0017,5.1875,46.0625,-59.1875,2.34,-0.98,Climbing Up,7
3.29,3.279606528,23,3,3,3,0,-1465.0,3.87,-0.93,-5.16,1.58,0.03,3.46,-13.125,-29.125,280.625,-0.58673095703125,0.45318603515625,0.61260986328125,0.0017,5.1875,46.0625,-59.25,2.29,-0.97,Climbing Up,7
3.3,3.282469484,23,3,3,3,0,-1465.0,3.87,-0.93,-5.16,1.58,0.03,3.46,-13.125,-29.125,280.625,-0.58673095703125,0.45318603515625,0.61260986328125,0.0017,5.1875,46.0625,-59.25,2.29,-0.97,Climbing Up,7
3.3,3.282469484,23,3,3,3,0,-1486.0,3.77,-1.13,-5.36,1.53,-0.17,3.36,-12.6875,-30.125,283.875,-0.58673095703125,0.45245361328125,0.6116943359375,0.0017,5.1875,46.0625,-59.3125,2.23,-0.96,Climbing Up,7
3.31,3.285465496,23,3,3,3,0,-1540.0,3.82,-1.53,-5.88,1.63,-0.6,3.0,-17.0625,-28.25,287.0625,-0.58648681640625,0.45159912109375,0.61114501953125,0.0017,5.1875,46.0625,-59.4375,2.18,-0.93,Climbing Up,7
3.32,3.285465496,23,3,3,3,0,-1499.0,3.51,-1.65,-5.47,1.37,-0.75,2.59,-24.125,-25.1875,290.3125,-0.58575439453125,0.4505615234375,0.61114501953125,0.0024,4.75,47.1875,-59.5,2.14,-0.9,Climbing Up,7
3.33,3.288341839,23,3,3,3,0,-1422.0,2.96,-1.79,-4.68,0.86,-0.93,2.81,-28.1875,-23.1875,293.625,-0.584716796875,0.44964599609375,0.611328125,0.0024,4.75,47.1875,-59.5625,2.1,-0.86,Climbing Up,7
3.34,3.288341839,23,3,3,3,0,-1312.0,2.16,-1.87,-3.57,0.1,-1.04,3.83,-26.8125,-22.5625,297.1875,-0.58355712890625,0.4490966796875,0.6112060546875,0.0024,4.75,47.1875,-59.6875,2.06,-0.82,Climbing Up,7
3.35,3.290890952,23,3,3,3,0,-1107.0,0.64,-2.14,-1.51,-1.37,-1.34,4.99,-23.75,-23.1875,301.0,-0.5823974609375,0.448974609375,0.610595703125,0.0024,4.75,47.1875,-59.75,2.01,-0.79,Climbing Up,7
3.36,3.290890952,23,3,3,3,0,-1040.0,0.16,-2.49,-0.83,-1.81,-1.71,5.83,-23.3125,-22.75,305.0625,-0.58111572265625,0.44915771484375,0.60980224609375,0.0024,4.75,47.1875,-59.8125,1.97,-0.77,Climbing Up,7
3.37,3.299615317,23,3,3,3,0,-986.0,-0.08,-2.91,-0.28,-2.02,-2.17,6.3,-28.25,-21.125,309.375,-0.57940673828125,0.44940185546875,0.609130859375,0.0018,5.25,47.1875,-59.875,1.93,-0.73,Climbing Up,7
3.38,3.299615317,23,3,3,3,0,-936.0,-0.24,-3.4,0.23,-2.14,-2.71,6.72,-39.3125,-18.625,314.125,-0.576904296875,0.44964599609375,0.60894775390625,0.0018,5.25,47.1875,-59.9375,1.89,-0.68,Climbing Up,7
3.39,3.314437054,23,3,3,3,0,-869.0,-0.36,-4.34,0.91,-2.23,-3.73,7.24,-51.9375,-16.375,319.4375,-0.5736083984375,0.4498291015625,0.609375,0.0018,5.25,47.1875,-60.0,1.86,-0.61,Climbing Up,7
3.4,3.314437054,23,3,3,3,0,-858.0,-0.33,-4.54,1.03,-2.16,-4.01,7.74,-62.25,-15.1875,325.25,-0.56951904296875,0.449951171875,0.610107421875,0.0018,5.25,47.1875,-60.0625,1.83,-0.52,Climbing Up,7
3.41,3.329954347,23,3,3,3,0,-865.0,-0.15,-4.54,0.96,-1.96,-4.12,8.22,-69.3125,-15.3125,331.5,-0.56500244140625,0.45001220703125,0.611083984375,0.0018,5.25,47.1875,-60.125,1.8,-0.42,Climbing Up,7
3.42,3.329954347,23,3,3,3,0,-900.0,0.52,-3.83,0.63,-1.24,-3.51,8.57,-70.625,-16.9375,337.9375,-0.5604248046875,0.45001220703125,0.61199951171875,0.0029,5.6875,46.0625,-60.1875,1.77,-0.32,Climbing Up,7
3.43,3.359312868,23,3,3,3,0,-884.0,0.93,-3.31,0.8,-0.8,-3.08,8.76,-67.6875,-18.375,344.375,-0.555908203125,0.4500732421875,0.612548828125,0.0029,5.6875,46.0625,-60.25,1.74,-0.22,Climbing Up,7
3.44,3.359312868,23,3,3,3,0,-861.0,1.25,-2.8,1.03,-0.45,-2.66,8.59,-59.8125,-19.625,350.5625,-0.55194091796875,0.45025634765625,0.61273193359375,0.0029,5.6875,46.0625,-60.3125,1.7,-0.14,Climbing Up,7
3.45,3.374294394,23,3,3,3,0,-824.0,1.34,-2.23,1.42,-0.32,-2.15,8.21,-49.4375,-21.75,356.25,-0.548583984375,0.450439453125,0.6124267578125,0.0029,5.6875,46.0625,-60.375,1.66,-0.07,Climbing Up,7
3.46,3.374294394,23,3,3,3,0,-764.0,1.25,-1.07,2.02,-0.37,-1.04,7.58,-38.1875,-23.75,361.375,-0.54608154296875,0.45068359375,0.6116943359375,0.0029,5.6875,46.0625,-60.4375,1.62,-0.02,Climbing Up,7
3.47,3.389266644,23,3,3,3,0,-720.0,1.27,-0.59,2.47,-0.31,-0.6,6.71,-26.8125,-24.9375,365.875,-0.5443115234375,0.450927734375,0.61053466796875,0.0022,7.0625,43.6875,-60.4375,1.58,0.0,Climbing Up,7
3.48,3.389266644,23,3,3,3,0,-692.0,1.34,-0.21,2.76,-0.19,-0.23,5.8,-16.8125,-25.0625,369.6875,-0.54327392578125,0.45111083984375,0.60906982421875,0.0022,7.0625,43.6875,-60.5,1.54,0.02,Climbing Up,7
3.49,3.420136069,23,3,3,3,0,-671.0,1.24,0.08,2.98,-0.25,0.05,5.28,-9.625,-25.0,373.0,-0.542724609375,0.451416015625,0.607421875,0.0022,7.0625,43.6875,-60.5625,1.49,0.03,Climbing Up,7
3.5,3.420136069,23,3,3,3,0,-614.0,0.97,0.82,3.55,-0.48,0.78,5.32,-5.3125,-24.9375,376.1875,-0.54241943359375,0.45184326171875,0.60552978515625,0.0022,7.0625,43.6875,-60.5625,1.45,0.03,Climbing Up,7
3.51,3.434423016,23,3,3,3,0,-589.0,0.82,1.43,3.8,-0.58,1.4,5.32,-1.875,-24.75,379.25,-0.542236328125,0.45233154296875,0.603515625,0.0022,7.0625,43.6875,-60.625,1.41,0.02,Climbing Up,7
3.52,3.434423016,23,3,3,3,0,-564.0,0.84,1.92,4.06,-0.53,1.91,4.51,3.0625,-24.8125,381.8125,-0.54248046875,0.4527587890625,0.6014404296875,0.003,6.375,44.5,-60.625,1.37,0.01,Climbing Up,7
3.53,3.449706626,23,3,3,3,0,-538.0,0.84,2.19,4.32,-0.48,2.19,3.42,9.25,-23.4375,383.6875,-0.543212890625,0.45306396484375,0.599365234375,0.003,6.375,44.5,-60.6875,1.33,0.0,Climbing Up,7
3.54,3.449706626,23,3,3,3,0,-497.0,0.79,1.71,4.74,-0.49,1.74,3.3,9.9375,-20.5625,385.4375,-0.54388427734375,0.4534912109375,0.597412109375,0.003,6.375,44.5,-60.75,1.29,-0.02,Climbing Up,7
3.55,3.480238527,23,3,3,3,0,-477.0,0.83,1.53,4.94,-0.42,1.57,3.83,2.5,-18.1875,387.4375,-0.5439453125,0.4539794921875,0.595703125,0.003,6.375,44.5,-60.75,1.26,-0.03,Climbing Up,7
3.56,3.480238527,23,3,3,3,0,-459.0,0.78,1.27,5.13,-0.45,1.29,3.77,-9.375,-17.1875,389.875,-0.5433349609375,0.45404052734375,0.59466552734375,0.003,6.375,44.5,-60.75,1.23,-0.02,Climbing Up,7
3.56,3.486078452,23,3,3,3,0,-459.0,0.78,1.27,5.13,-0.45,1.29,3.77,-9.375,-17.1875,389.875,-0.5433349609375,0.45404052734375,0.59466552734375,0.003,6.375,44.5,-60.75,1.23,-0.02,Climbing Up,7
3.57,3.486078452,23,3,3,3,0,-437.0,0.44,0.29,5.35,-0.76,0.29,2.87,-20.625,-16.75,392.5,-0.5423583984375,0.4534912109375,0.5943603515625,0.0029,8.0625,44.0625,-60.8125,1.2,0.0,Climbing Up,7
3.58,3.510565269,23,3,3,3,0,-446.0,0.26,-0.26,5.27,-0.91,-0.31,2.09,-27.75,-16.8125,395.125,-0.5411376953125,0.45245361328125,0.5946044921875,0.0029,8.0625,44.0625,-60.8125,1.18,0.04,Climbing Up,7
3.59,3.510565269,23,3,3,3,0,-480.0,0.17,-0.77,4.92,-0.97,-0.87,1.61,-28.875,-16.875,397.6875,-0.53997802734375,0.45123291015625,0.594970703125,0.0029,8.0625,44.0625,-60.8125,1.15,0.09,Climbing Up,7
3.6,3.52397571,23,3,3,3,0,-526.0,0.13,-1.13,4.47,-0.98,-1.26,1.03,-22.0,-16.8125,399.75,-0.539306640625,0.45001220703125,0.59515380859375,0.0029,8.0625,44.0625,-60.875,1.12,0.13,Climbing Up,7
3.61,3.52397571,23,3,3,3,0,-634.0,0.0,-1.07,3.4,-1.09,-1.21,0.91,-11.0,-16.6875,401.375,-0.5391845703125,0.44915771484375,0.5948486328125,0.0029,8.0625,44.0625,-60.875,1.09,0.14,Climbing Up,7
3.62,3.539487306,23,3,3,3,0,-672.0,0.19,-0.61,3.02,-0.87,-0.76,1.57,-1.4375,-17.1875,402.8125,-0.53948974609375,0.44879150390625,0.59393310546875,0.0029,7.75,43.375,-60.875,1.06,0.14,Climbing Up,7
3.63,3.539487306,23,3,3,3,0,-702.0,0.38,-0.14,2.72,-0.65,-0.28,2.98,2.625,-16.0,404.5,-0.53961181640625,0.4490966796875,0.592529296875,0.0029,7.75,43.375,-60.9375,1.03,0.13,Climbing Up,7
3.64,3.569489137,23,3,3,3,0,-736.0,0.49,0.12,2.38,-0.51,0.0,3.99,4.6875,-14.125,406.25,-0.53955078125,0.44989013671875,0.5908203125,0.0029,7.75,43.375,-60.9375,1.01,0.12,Climbing Up,7
3.65,3.569489137,23,3,3,3,0,-839.0,0.8,0.2,1.35,-0.19,0.09,4.25,7.5625,-12.5,407.875,-0.53955078125,0.450927734375,0.5889892578125,0.0029,7.75,43.375,-60.9375,0.99,0.1,Climbing Up,7
3.66,3.584219281,23,3,3,3,0,-897.0,0.89,0.29,0.78,-0.08,0.21,4.29,10.625,-11.0625,409.3125,-0.53955078125,0.4521484375,0.5870361328125,0.0029,7.75,43.375,-60.9375,0.97,0.08,Climbing Up,7
3.67,3.584219281,23,3,3,3,0,-951.0,0.93,0.4,0.24,-0.02,0.34,4.24,13.3125,-9.25,410.5625,-0.53973388671875,0.45355224609375,0.58502197265625,0.0031,7.375,43.375,-60.9375,0.96,0.05,Climbing Up,7
3.68,3.599212526,23,3,3,3,0,-988.0,0.94,0.55,-0.12,0.0,0.52,3.99,16.0625,-7.0625,411.4375,-0.53997802734375,0.455078125,0.5830078125,0.0031,7.375,43.375,-61.0,0.94,0.02,Climbing Up,7
3.69,3.599212526,23,3,3,3,0,-1034.0,0.83,1.01,-0.58,-0.1,1.02,3.7,20.1875,-5.1875,412.0,-0.5404052734375,0.4566650390625,0.58099365234375,0.0031,7.375,43.375,-61.0,0.93,-0.01,Climbing Up,7
3.7,3.614297324,23,3,3,3,0,-1049.0,0.85,1.2,-0.73,-0.08,1.26,3.21,25.875,-3.375,412.125,-0.5411376953125,0.45843505859375,0.57879638671875,0.0031,7.375,43.375,-61.0,0.93,-0.05,Climbing Up,7
3.71,3.614297324,23,3,3,3,0,-1047.0,0.78,1.33,-0.71,-0.14,1.45,2.3,31.1875,-2.4375,411.6875,-0.54229736328125,0.46014404296875,0.57666015625,0.0031,7.375,43.375,-61.0,0.92,-0.11,Climbing Up,7
3.72,3.645342368,23,3,3,3,0,-1033.0,0.58,1.59,-0.56,-0.34,1.77,1.2,34.75,-1.75,410.6875,-0.54388427734375,0.461669921875,0.57464599609375,0.002,7.0,44.1875,-61.0,0.92,-0.17,Climbing Up,7
3.73,3.645342368,23,3,3,3,0,-1020.0,0.33,1.67,-0.44,-0.58,1.91,0.19,34.25,-1.0625,409.375,-0.54559326171875,0.462890625,0.57293701171875,0.002,7.0,44.1875,-61.0,0.92,-0.23,Climbing Up,7
3.74,3.660367637,23,3,3,3,0,-1014.0,0.1,1.72,-0.38,-0.81,2.0,-0.84,30.4375,-0.3125,407.875,-0.54730224609375,0.46368408203125,0.57171630859375,0.002,7.0,44.1875,-60.9375,0.92,-0.28,Climbing Up,7
3.75,3.660367637,23,3,3,3,0,-1001.0,-0.03,1.68,-0.25,-0.96,2.01,-1.83,25.875,0.5,406.25,-0.54901123046875,0.4639892578125,0.5709228515625,0.002,7.0,44.1875,-60.9375,0.92,-0.32,Climbing Up,7
3.76,3.674068564,23,3,3,3,0,-962.0,-0.13,1.39,0.13,-1.06,1.75,-2.18,20.875,2.0,404.625,-0.5504150390625,0.464111328125,0.570556640625,0.002,7.0,44.1875,-60.9375,0.92,-0.36,Climbing Up,7
3.77,3.674068564,23,3,3,3,0,-952.0,-0.14,1.01,0.22,-1.07,1.39,-1.84,15.875,3.75,403.1875,-0.55145263671875,0.4642333984375,0.57037353515625,0.0022,7.75,43.5625,-60.9375,0.93,-0.38,Climbing Up,7
3.78,3.705509645,23,3,3,3,0,-954.0,-0.15,0.61,0.21,-1.09,1.01,-1.08,9.125,5.75,402.1875,-0.55194091796875,0.46453857421875,0.57037353515625,0.0022,7.75,43.5625,-60.9375,0.94,-0.39,Climbing Up,7
3.79,3.705509645,23,3,3,3,0,-964.0,-0.17,0.28,0.1,-1.13,0.69,-0.25,1.0625,7.625,401.6875,-0.55169677734375,0.46484375,0.5706787109375,0.0022,7.75,43.5625,-60.9375,0.95,-0.4,Climbing Up,7
3.8,3.71925228,23,3,3,3,0,-1003.0,0.07,0.06,-0.28,-0.89,0.45,0.5,-6.8125,9.1875,401.6875,-0.5509033203125,0.4652099609375,0.5711669921875,0.0022,7.75,43.5625,-60.9375,0.97,-0.38,Climbing Up,7
3.81,3.71925228,23,3,3,3,0,-1025.0,0.2,0.04,-0.5,-0.78,0.41,0.86,-12.25,10.8125,401.9375,-0.5496826171875,0.46551513671875,0.5718994140625,0.0022,7.75,43.5625,-60.875,0.99,-0.36,Climbing Up,7
3.82,3.734636232,23,3,3,3,0,-1025.0,0.2,0.04,-0.5,-0.78,0.41,0.86,-12.25,10.8125,401.9375,-0.5496826171875,0.46551513671875,0.5718994140625,0.0022,7.75,43.5625,-60.875,0.99,-0.36,Climbing Up,7
3.82,3.734636232,23,3,3,3,0,-1037.0,0.42,0.13,-0.62,-0.58,0.48,0.76,-13.6875,12.0625,402.125,-0.54833984375,0.46588134765625,0.57281494140625,0.0026,7.75,44.75,-60.875,1.01,-0.34,Climbing Up,7
3.83,3.749123008,23,3,3,3,0,-1042.0,0.66,0.4,-0.68,-0.37,0.73,0.39,-11.25,13.4375,402.0,-0.547119140625,0.46624755859375,0.57366943359375,0.0026,7.75,44.75,-60.875,1.03,-0.32,Climbing Up,7
3.84,3.749123008,23,3,3,3,0,-1091.0,0.81,0.96,-1.17,-0.23,1.28,0.01,-6.3125,15.125,401.5,-0.54620361328125,0.46673583984375,0.57452392578125,0.0026,7.75,44.75,-60.875,1.05,-0.31,Climbing Up,7
3.85,3.783107586,23,3,3,3,0,-1136.0,0.62,1.02,-1.62,-0.46,1.34,-0.44,-1.4375,16.9375,400.625,-0.5455322265625,0.46734619140625,0.57525634765625,0.0026,7.75,44.75,-60.875,1.08,-0.31,Climbing Up,7
3.86,3.783107586,23,3,3,3,0,-1173.0,0.41,1.02,-2.0,-0.7,1.34,-0.93,1.875,19.0,399.25,-0.5450439453125,0.468017578125,0.5760498046875,0.0026,7.75,44.75,-60.8125,1.11,-0.31,Climbing Up,7
3.87,3.799525514,23,3,3,3,0,-1216.0,0.25,1.08,-2.42,-0.89,1.4,-1.32,2.625,21.625,397.625,-0.5445556640625,0.46868896484375,0.5770263671875,0.0024,7.6875,43.25,-60.8125,1.15,-0.31,Climbing Up,7
3.88,3.799525514,23,3,3,3,0,-1329.0,0.17,1.22,-3.56,-1.02,1.54,-1.85,1.25,25.1875,395.75,-0.54400634765625,0.4693603515625,0.57830810546875,0.0024,7.6875,43.25,-60.75,1.19,-0.31,Climbing Up,7
3.89,3.809611615,23,3,3,3,0,-1364.0,0.24,1.34,-3.92,-1.0,1.66,-2.27,-1.125,29.75,393.5625,-0.543212890625,0.469970703125,0.5799560546875,0.0024,7.6875,43.25,-60.75,1.25,-0.31,Climbing Up,7
3.9,3.809611615,23,3,3,3,0,-1390.0,0.26,1.4,-4.19,-1.04,1.7,-2.53,-2.8125,35.125,391.125,-0.5421142578125,0.470703125,0.5819091796875,0.0024,7.6875,43.25,-60.6875,1.31,-0.3,Climbing Up,7
3.91,3.839645184,23,3,3,3,0,-1523.0,0.08,0.71,-5.53,-1.29,1.0,-2.65,-2.9375,39.6875,388.375,-0.5408935546875,0.47161865234375,0.58404541015625,0.0024,7.6875,43.25,-60.625,1.37,-0.29,Climbing Up,7
3.92,3.839645184,23,3,3,3,0,-1602.0,-0.28,0.17,-6.33,-1.73,0.45,-2.51,-5.0625,43.5,385.625,-0.53936767578125,0.47271728515625,0.58636474609375,0.0024,7.6875,44.5,-60.5625,1.45,-0.28,Climbing Up,7
3.93,3.854483075,23,3,3,3,0,-1694.0,-0.44,-0.26,-7.26,-1.97,0.0,-2.01,-9.5625,46.5625,383.0,-0.537353515625,0.47393798828125,0.5888671875,0.0024,7.6875,44.5,-60.5,1.53,-0.26,Climbing Up,7
3.94,3.854483075,23,3,3,3,0,-1785.0,-0.15,-0.51,-8.18,-1.76,-0.28,-1.17,-14.5,47.8125,380.75,-0.534912109375,0.47528076171875,0.5914306640625,0.0024,7.6875,44.5,-60.4375,1.61,-0.23,Climbing Up,7
3.95,3.869893394,23,3,3,3,0,-1741.0,1.9,-0.67,-7.75,0.21,-0.46,-0.3,-17.0,47.3125,378.9375,-0.5321044921875,0.476806640625,0.59381103515625,0.0024,7.6875,44.5,-60.3125,1.69,-0.2,Climbing Up,7
3.96,3.869893394,23,3,3,3,0,-1610.0,3.35,-0.79,-6.45,1.58,-0.61,0.83,-15.0,47.0625,377.3125,-0.5291748046875,0.478759765625,0.5958251953125,0.0024,7.6875,44.5,-60.25,1.76,-0.18,Climbing Up,7
3.97,3.900984499,23,3,3,3,0,-1443.0,4.19,-0.94,-4.81,2.34,-0.77,1.88,-9.125,47.5,375.75,-0.5263671875,0.481201171875,0.59722900390625,0.0015,8.0,43.5625,-60.125,1.84,-0.16,Climbing Up,7
3.98,3.900984499,23,3,3,3,0,-1239.0,4.34,-1.09,-2.78,2.41,-0.92,2.27,-2.0,47.625,374.0,-0.5238037109375,0.48406982421875,0.5982666015625,0.0015,8.0,43.5625,-60.0625,1.92,-0.17,Climbing Up,7
3.99,3.915069419,23,3,3,3,0,-951.0,4.56,-1.49,0.08,2.56,-1.31,1.96,2.375,48.125,371.9375,-0.521484375,0.4869384765625,0.59918212890625,0.0015,8.0,43.5625,-59.9375,2.0,-0.17,Climbing Up,7
4.0,3.915069419,23,3,3,3,0,-843.0,4.59,-1.84,1.14,2.5,-1.66,0.59,3.1875,48.8125,369.3125,-0.51947021484375,0.48944091796875,0.60040283203125,0.0015,8.0,43.5625,-59.8125,2.08,-0.18,Climbing Up,7
4.01,3.929317629,23,3,3,3,0,-752.0,4.6,-2.22,2.03,2.43,-2.04,-1.56,0.25,48.0625,366.3125,-0.51776123046875,0.4910888671875,0.60235595703125,0.0015,8.0,43.5625,-59.75,2.16,-0.18,Climbing Up,7
4.02,3.929317629,23,3,3,3,0,-679.0,4.45,-2.62,2.75,2.21,-2.45,-4.16,-4.3125,45.75,362.875,-0.516357421875,0.49163818359375,0.60504150390625,0.002,7.25,43.25,-59.625,2.24,-0.16,Climbing Up,7
4.03,3.994885744,23,3,3,3,0,-656.0,4.0,-3.52,2.96,1.68,-3.39,-7.15,-9.1875,43.0,358.875,-0.515380859375,0.49090576171875,0.60870361328125,0.002,7.25,43.25,-59.5,2.31,-0.13,Climbing Up,7
4.04,3.994885744,23,3,3,3,0,-698.0,3.8,-3.96,2.52,1.42,-3.88,-10.23,-14.6875,39.8125,354.4375,-0.51483154296875,0.48883056640625,0.61328125,0.002,7.25,43.25,-59.4375,2.38,-0.07,Climbing Up,7
4.05,4.000253216,23,3,3,3,0,-734.0,3.59,-4.26,2.14,1.14,-4.25,-12.81,-20.25,36.5,349.625,-0.5146484375,0.485595703125,0.61871337890625,0.002,7.25,43.25,-59.3125,2.44,-0.01,Climbing Up,7
4.06,4.000253216,23,3,3,3,0,-760.0,3.12,-4.13,1.88,0.62,-4.2,-14.11,-24.5625,34.0,344.75,-0.51446533203125,0.4815673828125,0.62451171875,0.002,7.25,43.25,-59.25,2.5,0.06,Climbing Up,7
4.07,4.004927207,23,3,3,3,0,-747.0,2.93,-3.71,1.99,0.38,-3.86,-13.97,-25.125,31.5,340.0625,-0.51434326171875,0.47747802734375,0.6302490234375,0.0024,6.875,43.25,-59.125,2.55,0.14,Climbing Up,7
4.08,4.004927207,23,3,3,3,0,-747.0,2.93,-3.71,1.99,0.38,-3.86,-13.97,-25.125,31.5,340.0625,-0.51434326171875,0.47747802734375,0.6302490234375,0.0024,6.875,43.25,-59.125,2.55,0.14,Climbing Up,7
4.08,4.028536623,23,3,3,3,0,-744.0,2.77,-3.17,2.0,0.18,-3.39,-12.93,-19.9375,28.25,335.5625,-0.514404296875,0.4737548828125,0.63531494140625,0.0024,6.875,43.25,-59.0625,2.59,0.21,Climbing Up,7
4.09,4.028536623,23,3,3,3,0,-752.0,2.59,-2.65,1.91,-0.04,-2.91,-11.43,-12.1875,25.5625,331.3125,-0.51470947265625,0.4705810546875,0.63946533203125,0.0024,6.875,43.25,-59.0,2.63,0.26,Climbing Up,7
4.1,4.03399341,23,3,3,3,0,-764.0,2.26,-1.43,1.78,-0.4,-1.74,-9.51,-7.0625,23.875,327.5625,-0.5150146484375,0.4681396484375,0.64288330078125,0.0024,6.875,43.25,-58.9375,2.67,0.3,Climbing Up,7
4.11,4.03399341,23,3,3,3,0,-760.0,2.14,-0.95,1.81,-0.56,-1.28,-7.83,-4.625,22.6875,324.1875,-0.51519775390625,0.46624755859375,0.645751953125,0.0024,6.875,43.25,-58.8125,2.7,0.33,Climbing Up,7
4.12,4.081064781,23,3,3,3,0,-756.0,2.04,-0.52,1.84,-0.69,-0.88,-6.69,-3.5,21.75,321.125,-0.5152587890625,0.46478271484375,0.648193359375,0.002,5.875,42.875,-58.75,2.73,0.36,Climbing Up,7
4.13,4.081064781,23,3,3,3,0,-738.0,1.97,0.0,2.01,-0.79,-0.37,-5.72,-1.25,21.0,318.3125,-0.51531982421875,0.46368408203125,0.65020751953125,0.002,5.875,42.875,-58.6875,2.77,0.38,Climbing Up,7
4.14,4.085793581,23,3,3,3,0,-684.0,1.89,1.44,2.53,-0.91,1.05,-4.69,1.875,20.1875,315.6875,-0.51544189453125,0.4630126953125,0.65185546875,0.002,5.875,42.875,-58.625,2.8,0.39,Climbing Up,7
4.15,4.085793581,23,3,3,3,0,-656.0,1.75,1.91,2.81,-1.07,1.52,-4.08,7.625,18.75,313.125,-0.51580810546875,0.46258544921875,0.65301513671875,0.002,5.875,42.875,-58.625,2.83,0.39,Climbing Up,7
4.16,4.090489219,23,3,3,3,0,-643.0,1.64,2.11,2.94,-1.21,1.74,-4.27,17.5,16.3125,310.1875,-0.516845703125,0.4622802734375,0.65374755859375,0.002,5.875,42.875,-58.5625,2.85,0.37,Climbing Up,7
4.17,4.090489219,23,3,3,3,0,-653.0,1.61,1.89,2.83,-1.25,1.54,-5.11,24.375,12.9375,306.9375,-0.5185546875,0.46173095703125,0.65423583984375,0.0026,5.5,41.25,-58.5,2.87,0.35,Climbing Up,7
4.18,4.261292116,23,3,3,3,0,-670.0,1.56,1.38,2.66,-1.32,1.04,-5.92,22.375,9.6875,303.75,-0.52044677734375,0.46063232421875,0.65496826171875,0.0026,5.5,41.25,-58.5,2.88,0.33,Climbing Up,7
4.19,4.261292116,23,3,3,3,0,-644.0,1.81,1.01,2.92,-1.08,0.68,-6.34,11.9375,5.9375,301.0625,-0.52191162109375,0.45892333984375,0.65618896484375,0.0026,5.5,41.25,-58.5,2.89,0.33,Climbing Up,7
4.2,4.267674196,23,3,3,3,0,-604.0,2.16,0.63,3.31,-0.73,0.28,-7.09,2.125,3.3125,298.6875,-0.52301025390625,0.45660400390625,0.65789794921875,0.0026,5.5,41.25,-58.5,2.89,0.35,Climbing Up,7
4.21,4.267674196,23,3,3,3,0,-581.0,2.21,0.05,3.54,-0.68,-0.32,-7.25,-3.75,3.0625,296.5625,-0.52386474609375,0.45404052734375,0.65997314453125,0.0026,5.5,41.25,-58.4375,2.9,0.38,Climbing Up,7
4.22,4.272175539,23,3,3,3,0,-572.0,2.14,-0.06,3.63,-0.76,-0.47,-6.82,-5.3125,4.0,294.5,-0.52447509765625,0.45166015625,0.6619873046875,0.0037,5.0625,41.375,-58.4375,2.9,0.41,Climbing Up,7
4.23,4.272175539,23,3,3,3,0,-565.0,2.19,0.02,3.7,-0.71,-0.4,-6.45,-2.9375,4.625,292.4375,-0.525146484375,0.449462890625,0.663818359375,0.0037,5.0625,41.375,-58.4375,2.91,0.43,Climbing Up,7
4.24,4.278157635,23,3,3,3,0,-576.0,2.29,0.1,3.58,-0.62,-0.34,-5.93,1.625,4.8125,290.375,-0.52593994140625,0.44757080078125,0.665283203125,0.0037,5.0625,41.375,-58.4375,2.91,0.45,Climbing Up,7
4.25,4.278157635,23,3,3,3,0,-661.0,2.54,-0.03,2.73,-0.37,-0.48,-5.52,6.6875,4.9375,288.1875,-0.52703857421875,0.44598388671875,0.66644287109375,0.0037,5.0625,41.375,-58.4375,2.92,0.45,Climbing Up,7
4.26,4.283898562,23,3,3,3,0,-713.0,2.55,-0.12,2.21,-0.37,-0.57,-5.37,11.25,5.3125,285.8125,-0.52825927734375,0.444580078125,0.6673583984375,0.0037,5.0625,41.375,-58.375,2.92,0.45,Climbing Up,7
4.27,4.283898562,23,3,3,3,0,-756.0,2.49,-0.04,1.77,-0.43,-0.49,-5.4,15.0625,5.4375,283.3125,-0.52978515625,0.4432373046875,0.6680908203125,0.0022,4.5625,41.0,-58.375,2.93,0.44,Climbing Up,7
4.28,4.288403322,23,3,3,3,0,-781.0,2.4,0.09,1.53,-0.53,-0.34,-5.25,18.3125,5.3125,280.6875,-0.53143310546875,0.4420166015625,0.66864013671875,0.0022,4.5625,41.0,-58.375,2.93,0.43,Climbing Up,7
4.29,4.288403322,23,3,3,3,0,-820.0,2.37,0.56,1.14,-0.56,0.14,-4.81,22.125,4.625,278.125,-0.53326416015625,0.44097900390625,0.66888427734375,0.0022,4.5625,41.0,-58.375,2.94,0.41,Climbing Up,7
4.3,4.292724489,23,3,3,3,0,-828.0,2.34,0.87,1.06,-0.6,0.48,-4.16,25.75,3.5625,275.625,-0.5352783203125,0.44024658203125,0.66876220703125,0.0022,4.5625,41.0,-58.375,2.94,0.38,Climbing Up,7
4.31,4.292724489,23,3,3,3,0,-845.0,2.39,1.12,0.89,-0.55,0.77,-3.59,29.0,2.4375,273.25,-0.53741455078125,0.43975830078125,0.6683349609375,0.0022,4.5625,41.0,-58.375,2.95,0.35,Climbing Up,7
4.32,4.297277549,23,3,3,3,0,-867.0,2.42,1.33,0.66,-0.52,1.02,-3.27,31.0,1.4375,271.0,-0.53961181640625,0.4393310546875,0.66766357421875,0.0022,5.375,39.75,-58.375,2.95,0.3,Climbing Up,7
4.33,4.297277549,23,3,3,3,0,-872.0,2.31,1.45,0.62,-0.63,1.18,-3.01,31.125,0.5625,268.8125,-0.5418701171875,0.43896484375,0.66693115234375,0.0022,5.375,39.75,-58.375,2.95,0.26,Climbing Up,7
4.34,4.301111737,23,3,3,3,0,-870.0,2.26,1.33,0.64,-0.68,1.1,-2.44,29.125,-0.375,266.9375,-0.54388427734375,0.43878173828125,0.6661376953125,0.0022,5.375,39.75,-58.375,2.95,0.22,Climbing Up,7
4.35,4.301111737,23,3,3,3,0,-875.0,2.35,1.21,0.59,-0.59,1.02,-1.57,26.0,-1.25,265.5,-0.545654296875,0.438720703125,0.66522216796875,0.0022,5.375,39.75,-58.4375,2.94,0.19,Climbing Up,7
4.36,4.36461194,23,3,3,3,0,-885.0,2.43,1.11,0.5,-0.5,0.95,-0.72,22.0625,-1.75,264.5,-0.547119140625,0.43890380859375,0.664306640625,0.0022,5.375,39.75,-58.4375,2.94,0.15,Climbing Up,7
4.37,4.36461194,23,3,3,3,0,-879.0,2.68,0.95,0.55,-0.26,0.82,0.05,17.6875,-2.0625,263.9375,-0.5482177734375,0.439208984375,0.66339111328125,0.0015,4.375,40.5,-58.4375,2.94,0.12,Climbing Up,7
4.38,4.370267662,23,3,3,3,0,-866.0,2.79,0.9,0.68,-0.14,0.79,0.86,12.6875,-2.25,263.875,-0.5489501953125,0.439697265625,0.66253662109375,0.0015,4.375,40.5,-58.4375,2.93,0.1,Climbing Up,7
4.39,4.370267662,23,3,3,3,0,-860.0,2.88,0.86,0.74,-0.05,0.77,1.65,8.375,-2.375,264.1875,-0.54931640625,0.44036865234375,0.66168212890625,0.0015,4.375,40.5,-58.4375,2.93,0.08,Climbing Up,7
4.4,4.375592857,23,3,3,3,0,-839.0,3.06,0.87,0.96,0.13,0.8,2.24,5.625,-2.875,264.8125,-0.5494384765625,0.441162109375,0.66082763671875,0.0015,4.375,40.5,-58.4375,2.93,0.06,Climbing Up,7
4.41,4.375592857,23,3,3,3,0,-846.0,3.21,0.72,0.89,0.29,0.67,2.36,4.75,-3.1875,265.5625,-0.54949951171875,0.44195556640625,0.659912109375,0.0015,4.375,40.5,-58.4375,2.92,0.05,Climbing Up,7
4.42,4.381439008,23,3,3,3,0,-857.0,3.33,0.48,0.78,0.41,0.44,2.09,6.6875,-4.125,266.125,-0.54974365234375,0.442626953125,0.65899658203125,0.002,5.1875,40.875,-58.5,2.91,0.03,Climbing Up,7
4.43,4.381439008,23,3,3,3,0,-857.0,3.33,0.48,0.78,0.41,0.44,2.09,6.6875,-4.125,266.125,-0.54974365234375,0.442626953125,0.65899658203125,0.002,5.1875,40.875,-58.5,2.91,0.03,Climbing Up,7
4.43,4.393503461,23,3,3,3,0,-874.0,3.45,0.26,0.61,0.54,0.24,1.67,10.4375,-5.625,266.5625,-0.55029296875,0.4432373046875,0.657958984375,0.002,5.1875,40.875,-58.5,2.9,0.01,Climbing Up,7
4.44,4.393503461,23,3,3,3,0,-929.0,3.57,-0.07,0.07,0.67,-0.06,1.46,13.125,-7.6875,267.0,-0.5511474609375,0.44366455078125,0.65679931640625,0.002,5.1875,40.875,-58.5,2.89,-0.01,Climbing Up,7
4.45,4.397384198,23,3,3,3,0,-954.0,3.55,-0.03,-0.16,0.67,0.0,1.43,11.875,-9.3125,267.5,-0.552001953125,0.44403076171875,0.65570068359375,0.002,5.1875,40.875,-58.5625,2.88,-0.03,Climbing Up,7
4.46,4.397384198,23,3,3,3,0,-982.0,3.53,0.1,-0.44,0.67,0.15,1.44,7.25,-10.6875,268.25,-0.5526123046875,0.44415283203125,0.65472412109375,0.002,5.1875,40.875,-58.5625,2.86,-0.05,Climbing Up,7
4.47,4.40263725,23,3,3,3,0,-1015.0,3.61,0.33,-0.76,0.77,0.39,1.62,1.375,-11.25,269.375,-0.55291748046875,0.4442138671875,0.654052734375,0.0012,5.5,40.875,-58.625,2.84,-0.05,Climbing Up,7
4.48,4.40263725,23,3,3,3,0,-1070.0,4.08,0.79,-1.31,1.25,0.85,1.91,-2.25,-11.125,270.6875,-0.55291748046875,0.4443359375,0.6534423828125,0.0012,5.5,40.875,-58.625,2.82,-0.06,Climbing Up,7
4.49,4.409998944,23,3,3,3,0,-1085.0,4.25,0.97,-1.45,1.44,1.03,2.24,-3.125,-10.5625,272.125,-0.55279541015625,0.44451904296875,0.65277099609375,0.0012,5.5,40.875,-58.6875,2.81,-0.06,Climbing Up,7
4.5,4.409998944,23,3,3,3,0,-1110.0,4.33,1.14,-1.7,1.54,1.21,2.6,-1.1875,-10.5,273.625,-0.55279541015625,0.4449462890625,0.6519775390625,0.0012,5.5,40.875,-58.75,2.79,-0.06,Climbing Up,7
4.51,4.439786908,23,3,3,3,0,-1150.0,4.34,1.25,-2.1,1.57,1.33,2.97,3.3125,-11.25,275.0625,-0.552978515625,0.445556640625,0.65081787109375,0.0012,5.5,40.875,-58.75,2.77,-0.08,Climbing Up,7
4.52,4.439786908,23,3,3,3,0,-1261.0,4.34,1.46,-3.2,1.59,1.57,3.28,9.375,-13.3125,276.4375,-0.55352783203125,0.4462890625,0.6492919921875,0.0016,5.5,42.375,-58.8125,2.75,-0.1,Climbing Up,7
4.53,4.454518557,23,3,3,3,0,-1300.0,4.26,1.45,-3.58,1.54,1.6,3.44,14.25,-16.1875,277.875,-0.554443359375,0.447021484375,0.6473388671875,0.0016,5.5,42.375,-58.8125,2.72,-0.14,Climbing Up,7
4.54,4.454518557,23,3,3,3,0,-1317.0,4.06,1.33,-3.74,1.36,1.51,3.27,16.5625,-20.0,279.375,-0.5556640625,0.4476318359375,0.645263671875,0.0016,5.5,42.375,-58.875,2.69,-0.17,Climbing Up,7
4.55,4.468765057,23,3,3,3,0,-1360.0,3.9,0.52,-4.16,1.25,0.73,2.97,15.625,-23.9375,281.0625,-0.55706787109375,0.4478759765625,0.64324951171875,0.0016,5.5,42.375,-58.9375,2.65,-0.21,Climbing Up,7
4.56,4.468765057,23,3,3,3,0,-1406.0,3.93,-0.05,-4.61,1.33,0.18,2.84,11.5625,-27.4375,283.0625,-0.558349609375,0.44781494140625,0.641357421875,0.0016,5.5,42.375,-59.0625,2.6,-0.24,Climbing Up,7
4.57,4.499123619,23,3,3,3,0,-1429.0,4.14,-0.54,-4.82,1.59,-0.28,3.07,5.125,-29.9375,285.5625,-0.559326171875,0.44757080078125,0.6396484375,0.0007,5.375,42.375,-59.125,2.55,-0.25,Climbing Up,7
4.58,4.499123619,23,3,3,3,0,-1482.0,4.53,-0.92,-5.34,2.03,-0.65,3.83,-1.125,-30.8125,288.5625,-0.55987548828125,0.44732666015625,0.63800048828125,0.0007,5.375,42.375,-59.1875,2.5,-0.26,Climbing Up,7
4.59,4.514384279,23,3,3,3,0,-1617.0,4.8,-1.41,-6.68,2.35,-1.13,4.49,-2.375,-30.125,291.75,-0.5601806640625,0.4473876953125,0.63629150390625,0.0007,5.375,42.375,-59.3125,2.45,-0.27,Climbing Up,7
4.6,4.514384279,23,3,3,3,0,-1606.0,4.46,-1.44,-6.55,2.06,-1.16,5.15,-0.3125,-29.75,295.0625,-0.560546875,0.44769287109375,0.63427734375,0.0007,5.375,42.375,-59.375,2.4,-0.28,Climbing Up,7
4.61,4.529638348,23,3,3,3,0,-1536.0,3.72,-1.4,-5.85,1.37,-1.09,6.55,1.5,-30.0625,298.75,-0.560791015625,0.44854736328125,0.6318359375,0.0007,5.375,42.375,-59.4375,2.35,-0.3,Climbing Up,7
4.62,4.529638348,23,3,3,3,0,-1417.0,2.75,-1.32,-4.64,0.45,-0.99,8.25,2.1875,-31.5,303.0,-0.560791015625,0.44989013671875,0.62890625,0.001,5.375,40.5,-59.5,2.29,-0.33,Climbing Up,7
4.63,4.560029665,23,3,3,3,0,-1140.0,1.26,-0.97,-1.86,-0.97,-0.61,9.28,4.0625,-32.5625,307.5625,-0.560791015625,0.45159912109375,0.6256103515625,0.001,5.375,40.5,-59.625,2.23,-0.36,Climbing Up,7
4.64,4.560029665,23,3,3,3,0,-1028.0,1.02,-0.9,-0.72,-1.14,-0.5,9.55,9.375,-33.6875,312.0625,-0.56103515625,0.45343017578125,0.62188720703125,0.001,5.375,40.5,-59.6875,2.17,-0.39,Climbing Up,7
4.65,4.573786257,23,3,3,3,0,-944.0,0.94,-0.96,0.12,-1.16,-0.51,9.2,16.875,-34.5625,316.1875,-0.561767578125,0.455322265625,0.61785888671875,0.001,5.375,40.5,-59.75,2.11,-0.44,Climbing Up,7
4.66,4.573786257,23,3,3,3,0,-887.0,0.9,-1.23,0.69,-1.14,-0.73,8.79,20.375,-34.375,320.0,-0.562744140625,0.4571533203125,0.61376953125,0.001,5.375,40.5,-59.8125,2.05,-0.5,Climbing Up,7
4.67,4.590271446,23,3,3,3,0,-820.0,0.72,-2.25,1.38,-1.27,-1.7,8.6,17.3125,-33.125,323.8125,-0.56353759765625,0.4588623046875,0.60986328125,0.0021,7.1875,42.6875,-59.875,1.99,-0.55,Climbing Up,7
4.68,4.590271446,23,3,3,3,0,-804.0,0.56,-2.78,1.54,-1.37,-2.2,8.66,8.0,-30.625,327.875,-0.56365966796875,0.46044921875,0.6064453125,0.0021,7.1875,42.6875,-59.9375,1.93,-0.58,Climbing Up,7
4.69,4.605184979,23,3,3,3,0,-809.0,0.38,-3.33,1.5,-1.49,-2.74,8.79,-6.1875,-27.4375,332.375,-0.56292724609375,0.4617919921875,0.603759765625,0.0021,7.1875,42.6875,-60.0,1.88,-0.59,Climbing Up,7
4.7,4.605184979,23,3,3,3,0,-809.0,0.38,-3.33,1.5,-1.49,-2.74,8.79,-6.1875,-27.4375,332.375,-0.56292724609375,0.4617919921875,0.603759765625,0.0021,7.1875,42.6875,-60.0,1.88,-0.59,Climbing Up,7
4.7,4.619791791,23,3,3,3,0,-854.0,0.33,-4.0,1.07,-1.5,-3.43,8.88,-22.875,-24.125,337.375,-0.56109619140625,0.462890625,0.6019287109375,0.0021,7.1875,42.6875,-60.0625,1.83,-0.57,Climbing Up,7
4.71,4.619791791,23,3,3,3,0,-884.0,0.41,-3.98,0.77,-1.38,-3.46,8.83,-39.75,-21.25,342.9375,-0.55828857421875,0.463623046875,0.60101318359375,0.0021,7.1875,42.6875,-60.125,1.79,-0.52,Climbing Up,7
4.72,4.64930351,23,3,3,3,0,-891.0,0.51,-3.68,0.71,-1.24,-3.23,8.53,-52.5625,-19.0625,348.8125,-0.55474853515625,0.46392822265625,0.60089111328125,0.0017,7.1875,41.0625,-60.1875,1.76,-0.45,Climbing Up,7
4.73,4.64930351,23,3,3,3,0,-875.0,0.66,-3.22,0.89,-1.06,-2.85,8.2,-57.875,-18.5,354.6875,-0.5509033203125,0.4639892578125,0.60101318359375,0.0017,7.1875,41.0625,-60.25,1.72,-0.36,Climbing Up,7
4.74,4.664424074,23,3,3,3,0,-836.0,0.87,-2.24,1.28,-0.81,-1.95,7.88,-55.0,-18.125,360.375,-0.54730224609375,0.46405029296875,0.60107421875,0.0017,7.1875,41.0625,-60.3125,1.69,-0.29,Climbing Up,7
4.75,4.664424074,23,3,3,3,0,-835.0,0.99,-1.8,1.3,-0.66,-1.58,7.25,-47.1875,-18.125,365.5,-0.54412841796875,0.464111328125,0.6009521484375,0.0017,7.1875,41.0625,-60.375,1.66,-0.22,Climbing Up,7
4.76,4.679279299,23,3,3,3,0,-840.0,1.17,-1.34,1.26,-0.45,-1.17,6.33,-36.5,-18.125,369.9375,-0.541748046875,0.46417236328125,0.6004638671875,0.0017,7.1875,41.0625,-60.375,1.62,-0.17,Climbing Up,7
4.77,4.679279299,23,3,3,3,0,-837.0,1.36,-0.87,1.29,-0.22,-0.73,5.25,-26.625,-17.9375,373.5625,-0.5400390625,0.46417236328125,0.59979248046875,0.0016,7.5,40.375,-60.4375,1.59,-0.13,Climbing Up,7
4.78,4.710090904,23,3,3,3,0,-786.0,1.61,0.09,1.82,0.04,0.21,4.23,-17.375,-18.1875,376.5,-0.5390625,0.46417236328125,0.5989990234375,0.0016,7.5,40.375,-60.5,1.56,-0.11,Climbing Up,7
4.79,4.710090904,23,3,3,3,0,-771.0,1.54,0.62,1.97,0.01,0.73,3.27,-7.9375,-18.6875,378.8125,-0.53875732421875,0.464111328125,0.597900390625,0.0016,7.5,40.375,-60.5,1.53,-0.11,Climbing Up,7
4.8,4.723772382,23,3,3,3,0,-759.0,1.46,1.19,2.09,-0.04,1.31,2.6,0.75,-18.9375,380.625,-0.5390625,0.464111328125,0.5965576171875,0.0016,7.5,40.375,-60.5625,1.5,-0.11,Climbing Up,7
4.81,4.723772382,23,3,3,3,0,-745.0,1.27,1.71,2.23,-0.19,1.85,2.5,8.0,-18.5,382.0,-0.53973388671875,0.46429443359375,0.594970703125,0.0016,7.5,40.375,-60.5625,1.46,-0.13,Climbing Up,7
4.82,4.740148073,23,3,3,3,0,-704.0,1.18,2.09,2.65,-0.25,2.25,2.3,12.1875,-17.5,383.125,-0.54058837890625,0.46466064453125,0.59320068359375,0.0013,8.1875,39.5625,-60.5625,1.43,-0.15,Climbing Up,7
4.83,4.740148073,23,3,3,3,0,-686.0,1.16,1.8,2.83,-0.24,1.99,1.56,13.25,-16.6875,383.9375,-0.5416259765625,0.46478271484375,0.59161376953125,0.0013,8.1875,39.5625,-60.625,1.41,-0.18,Climbing Up,7
4.84,4.768986574,23,3,3,3,0,-663.0,1.06,1.41,3.06,-0.32,1.61,0.62,9.875,-15.6875,384.5,-0.54266357421875,0.464599609375,0.5904541015625,0.0013,8.1875,39.5625,-60.625,1.38,-0.2,Climbing Up,7
4.85,4.768986574,23,3,3,3,0,-641.0,0.89,1.04,3.29,-0.46,1.24,-0.02,2.9375,-14.5,385.1875,-0.54339599609375,0.4639892578125,0.58984375,0.0013,8.1875,39.5625,-60.625,1.35,-0.2,Climbing Up,7
4.86,4.784191693,23,3,3,3,0,-583.0,0.66,0.5,3.87,-0.67,0.7,-0.03,-4.625,-12.9375,386.0625,-0.543701171875,0.46319580078125,0.58966064453125,0.0013,8.1875,39.5625,-60.6875,1.33,-0.19,Climbing Up,7
4.87,4.784191693,23,3,3,3,0,-564.0,0.58,0.27,4.07,-0.72,0.46,0.18,-10.0,-12.0,387.125,-0.54364013671875,0.46240234375,0.58966064453125,0.0016,9.0,38.375,-60.6875,1.31,-0.18,Climbing Up,7
4.88,4.816123904,23,3,3,3,0,-549.0,0.56,0.02,4.21,-0.73,0.18,0.41,-12.5,-11.625,388.375,-0.54339599609375,0.4615478515625,0.58978271484375,0.0016,9.0,38.375,-60.6875,1.29,-0.16,Climbing Up,7
4.89,4.816123904,23,3,3,3,0,-551.0,0.52,-0.36,4.2,-0.75,-0.22,0.66,-12.8125,-11.25,389.75,-0.54302978515625,0.4608154296875,0.58984375,0.0016,9.0,38.375,-60.75,1.27,-0.14,Climbing Up,7
4.9,4.830084882,23,3,3,3,0,-579.0,0.55,-0.37,3.93,-0.7,-0.24,1.0,-11.625,-10.5,391.0625,-0.54266357421875,0.46026611328125,0.58978271484375,0.0016,9.0,38.375,-60.75,1.25,-0.12,Climbing Up,7
4.91,4.830084882,23,3,3,3,0,-607.0,0.53,-0.28,3.65,-0.7,-0.16,1.28,-8.5,-9.5625,392.3125,-0.5423583984375,0.45989990234375,0.58953857421875,0.0016,9.0,38.375,-60.75,1.24,-0.11,Climbing Up,7
4.92,4.862916994,23,3,3,3,0,-645.0,0.54,-0.18,3.27,-0.68,-0.08,1.41,-4.5,-8.625,393.375,-0.54217529296875,0.45977783203125,0.589111328125,0.001,9.0,37.25,-60.75,1.22,-0.1,Climbing Up,7
4.93,4.862916994,23,3,3,3,0,-701.0,0.63,0.0,2.71,-0.58,0.1,1.32,-0.375,-7.6875,394.1875,-0.542236328125,0.45989990234375,0.5885009765625,0.001,9.0,37.25,-60.8125,1.21,-0.1,Climbing Up,7
4.94,4.868735679,23,3,3,3,0,-715.0,0.6,0.09,2.58,-0.59,0.21,1.28,3.3125,-6.4375,394.75,-0.5423583984375,0.4600830078125,0.5877685546875,0.001,9.0,37.25,-60.8125,1.2,-0.11,Climbing Up,7
4.95,4.868735679,23,3,3,3,0,-729.0,0.49,0.16,2.43,-0.69,0.29,1.31,8.0,-5.5,395.125,-0.542724609375,0.46051025390625,0.5869140625,0.001,9.0,37.25,-60.8125,1.19,-0.13,Climbing Up,7
4.96,4.890048912,23,3,3,3,0,-753.0,0.37,0.25,2.19,-0.81,0.41,1.45,14.75,-5.125,395.25,-0.54339599609375,0.46124267578125,0.58563232421875,0.001,9.0,37.25,-60.8125,1.18,-0.15,Climbing Up,7
4.97,4.890048912,23,3,3,3,0,-753.0,0.37,0.25,2.19,-0.81,0.41,1.45,14.75,-5.125,395.25,-0.54339599609375,0.46124267578125,0.58563232421875,0.001,9.0,37.25,-60.8125,1.18,-0.15,Climbing Up,7
4.97,4.895336469,23,3,3,3,0,-823.0,0.33,0.22,1.49,-0.84,0.42,1.67,22.875,-4.75,395.0625,-0.54443359375,0.46234130859375,0.583984375,0.001,9.6875,38.0625,-60.8125,1.17,-0.19,Climbing Up,7
4.98,4.895336469,23,3,3,3,0,-871.0,0.39,0.16,1.02,-0.77,0.42,1.86,29.1875,-4.3125,394.625,-0.54571533203125,0.46368408203125,0.58197021484375,0.001,9.6875,38.0625,-60.8125,1.16,-0.25,Climbing Up,7
4.99,4.919347089,23,3,3,3,0,-910.0,0.51,0.12,0.63,-0.64,0.43,2.02,31.375,-3.625,394.125,-0.5469970703125,0.4652099609375,0.579833984375,0.001,9.6875,38.0625,-60.8125,1.16,-0.3,Climbing Up,7
5.0,4.919347089,23,3,3,3,0,-940.0,0.66,0.22,0.32,-0.49,0.58,2.06,29.4375,-2.25,393.6875,-0.54815673828125,0.46673583984375,0.57781982421875,0.001,9.6875,38.0625,-60.8125,1.15,-0.35,Climbing Up,7
5.01,4.951047895,23,3,3,3,0,-961.0,0.85,0.61,0.11,-0.3,1.01,1.97,26.3125,-0.75,393.25,-0.54913330078125,0.46820068359375,0.5760498046875,0.001,9.6875,38.0625,-60.8125,1.15,-0.4,Climbing Up,7
5.02,4.951047895,23,3,3,3,0,-971.0,0.8,0.76,0.01,-0.34,1.21,1.71,24.5625,0.5,392.75,-0.54998779296875,0.46954345703125,0.57440185546875,0.001,9.6875,37.375,-60.75,1.15,-0.45,Climbing Up,7
5.03,4.956257367,23,3,3,3,0,-980.0,0.67,0.77,-0.07,-0.47,1.26,1.2,25.1875,1.4375,391.9375,-0.55096435546875,0.4708251953125,0.57293701171875,0.001,9.6875,37.375,-60.75,1.15,-0.49,Climbing Up,7
5.04,4.956257367,23,3,3,3,0,-997.0,0.42,0.62,-0.24,-0.73,1.16,0.66,25.75,2.3125,391.0,-0.552001953125,0.47198486328125,0.57159423828125,0.001,9.6875,37.375,-60.75,1.15,-0.53,Climbing Up,7
5.05,4.981196047,23,3,3,3,0,-1019.0,0.45,0.56,-0.47,-0.71,1.14,0.29,25.0,3.625,389.8125,-0.55303955078125,0.47308349609375,0.5704345703125,0.001,9.6875,37.375,-60.6875,1.16,-0.58,Climbing Up,7
5.06,4.981196047,23,3,3,3,0,-1048.0,0.49,0.44,-0.76,-0.67,1.06,0.23,23.375,5.3125,388.625,-0.553955078125,0.47418212890625,0.56939697265625,0.001,9.6875,37.375,-60.6875,1.17,-0.62,Climbing Up,7
5.07,4.994342857,23,3,3,3,0,-1082.0,0.53,0.27,-1.11,-0.65,0.93,0.25,20.4375,7.25,387.5,-0.55462646484375,0.47528076171875,0.568603515625,0.0007,9.375,37.75,-60.6875,1.18,-0.65,Climbing Up,7
5.08,4.994342857,23,3,3,3,0,-1117.0,0.35,0.17,-1.46,-0.83,0.86,0.3,16.5625,8.6875,386.4375,-0.55499267578125,0.47637939453125,0.5679931640625,0.0007,9.375,37.75,-60.625,1.19,-0.68,Climbing Up,7
5.09,5.010013227,23,3,3,3,0,-1114.0,0.38,0.31,-1.44,-0.82,1.02,0.37,12.75,10.0,385.5,-0.55517578125,0.47735595703125,0.567626953125,0.0007,9.375,37.75,-60.625,1.21,-0.7,Climbing Up,7
5.1,5.010013227,23,3,3,3,0,-1115.0,0.48,0.5,-1.45,-0.75,1.23,0.23,9.5,11.4375,384.625,-0.55511474609375,0.478271484375,0.56744384765625,0.0007,9.375,37.75,-60.625,1.23,-0.72,Climbing Up,7
5.11,5.040339683,23,3,3,3,0,-1123.0,0.62,0.6,-1.53,-0.63,1.33,-0.15,8.125,12.75,383.5625,-0.55499267578125,0.4791259765625,0.5675048828125,0.0007,9.375,37.75,-60.5625,1.25,-0.73,Climbing Up,7
5.12,5.040339683,23,3,3,3,0,-1123.0,0.9,0.67,-1.54,-0.38,1.42,-0.73,7.75,14.5,382.3125,-0.554931640625,0.4798583984375,0.56781005859375,0.0015,9.375,37.6875,-60.5625,1.28,-0.74,Climbing Up,7
5.13,5.054515831,23,3,3,3,0,-1120.0,1.03,0.65,-1.51,-0.27,1.41,-1.39,7.6875,16.625,380.6875,-0.55487060546875,0.48046875,0.568359375,0.0015,9.375,37.6875,-60.5,1.3,-0.76,Climbing Up,7
5.14,5.054515831,23,3,3,3,0,-1125.0,1.11,0.52,-1.56,-0.23,1.29,-2.1,7.0625,19.6875,378.75,-0.55487060546875,0.48095703125,0.5692138671875,0.0015,9.375,37.6875,-60.5,1.34,-0.76,Climbing Up,7
5.15,5.085023358,23,3,3,3,0,-1148.0,1.07,0.41,-1.8,-0.3,1.19,-2.56,4.625,23.0,376.625,-0.55462646484375,0.4814453125,0.57037353515625,0.0015,9.375,37.6875,-60.4375,1.38,-0.77,Climbing Up,7
5.16,5.085023358,23,3,3,3,0,-1217.0,0.82,0.02,-2.5,-0.6,0.78,-2.7,-0.25,26.9375,374.4375,-0.55401611328125,0.48187255859375,0.57196044921875,0.0015,9.375,37.6875,-60.4375,1.43,-0.76,Climbing Up,7
5.17,5.099173179,23,3,3,3,0,-1261.0,0.8,-0.15,-2.95,-0.68,0.6,-2.91,-6.625,31.875,372.1875,-0.55291748046875,0.4822998046875,0.5740966796875,0.002,9.375,38.875,-60.375,1.48,-0.75,Climbing Up,7
5.18,5.099173179,23,3,3,3,0,-1294.0,0.74,-0.28,-3.28,-0.81,0.44,-3.24,-12.3125,36.75,369.8125,-0.5513916015625,0.48260498046875,0.57666015625,0.002,9.375,38.875,-60.3125,1.55,-0.72,Climbing Up,7
5.19,5.119314008,23,3,3,3,0,-1292.0,0.67,-0.03,-3.27,-0.94,0.65,-3.43,-15.625,41.375,367.3125,-0.549560546875,0.4830322265625,0.57965087890625,0.002,9.375,38.875,-60.25,1.62,-0.69,Climbing Up,7
5.2,5.119314008,23,3,3,3,0,-1333.0,0.88,-0.15,-3.7,-0.81,0.5,-3.36,-14.375,45.5625,364.5625,-0.54754638671875,0.48370361328125,0.5826416015625,0.002,9.375,38.875,-60.1875,1.7,-0.66,Climbing Up,7
5.21,5.130588381,23,3,3,3,0,-1418.0,0.95,-0.5,-4.55,-0.82,0.13,-3.04,-9.9375,48.75,361.5625,-0.54559326171875,0.4847412109375,0.58544921875,0.002,9.375,38.875,-60.125,1.78,-0.63,Climbing Up,7
5.22,5.130588381,23,3,3,3,0,-1512.0,0.83,-0.97,-5.51,-1.04,-0.35,-2.46,-7.5,50.4375,358.5,-0.54351806640625,0.486083984375,0.5880126953125,0.0013,8.6875,40.375,-60.0,1.87,-0.62,Climbing Up,7
5.23,5.159744916,23,3,3,3,0,-1661.0,0.77,-1.5,-7.02,-1.18,-0.9,-1.71,-10.9375,50.75,355.8125,-0.5411376953125,0.487548828125,0.59051513671875,0.0013,8.6875,40.375,-59.9375,1.95,-0.59,Climbing Up,7
5.24,5.159744916,23,3,3,3,0,-1690.0,1.2,-1.42,-7.32,-0.83,-0.86,-1.33,-17.0625,49.0,353.5625,-0.5384521484375,0.4888916015625,0.5931396484375,0.0013,8.6875,40.375,-59.8125,2.04,-0.56,Climbing Up,7
5.25,5.164330121,23,3,3,3,0,-1690.0,1.2,-1.42,-7.32,-0.83,-0.86,-1.33,-17.0625,49.0,353.5625,-0.5384521484375,0.4888916015625,0.5931396484375,0.0013,8.6875,40.375,-59.8125,2.04,-0.56,Climbing Up,7
5.25,5.164330121,23,3,3,3,0,-1658.0,2.08,-1.19,-7.02,-0.03,-0.66,-1.48,-21.5,46.4375,351.625,-0.53558349609375,0.48992919921875,0.595947265625,0.0013,8.6875,40.375,-59.75,2.11,-0.52,Climbing Up,7
5.26,5.190048383,23,3,3,3,0,-1597.0,3.12,-0.99,-6.43,0.92,-0.5,-1.82,-19.3125,43.8125,349.625,-0.5330810546875,0.49078369140625,0.5986328125,0.0013,8.6875,40.375,-59.625,2.19,-0.49,Climbing Up,7
5.27,5.190048383,23,3,3,3,0,-1340.0,4.72,-0.59,-3.87,2.45,-0.12,-2.24,-10.8125,42.5625,347.1875,-0.5311279296875,0.49169921875,0.60101318359375,0.0015,8.0,40.0,-59.5625,2.26,-0.46,Climbing Up,7
5.28,5.219330081,23,3,3,3,0,-1171.0,4.98,-0.49,-2.2,2.65,-0.03,-2.46,-1.125,42.4375,344.25,-0.5296630859375,0.4927978515625,0.60296630859375,0.0015,8.0,40.0,-59.4375,2.33,-0.45,Climbing Up,7
5.29,5.219330081,23,3,3,3,0,-1026.0,5.08,-0.49,-0.76,2.67,-0.02,-2.53,5.5625,42.1875,341.0,-0.52862548828125,0.4940185546875,0.6046142578125,0.0015,8.0,40.0,-59.3125,2.4,-0.46,Climbing Up,7
5.3,5.224814415,23,3,3,3,0,-914.0,5.13,-0.8,0.33,2.66,-0.33,-3.08,9.0625,42.125,337.4375,-0.52783203125,0.4952392578125,0.60626220703125,0.0015,8.0,40.0,-59.1875,2.47,-0.46,Climbing Up,7
5.31,5.224814415,23,3,3,3,0,-728.0,4.94,-2.07,2.17,2.39,-1.59,-4.26,10.3125,42.3125,333.4375,-0.52734375,0.49603271484375,0.608154296875,0.0015,8.0,40.0,-59.0625,2.54,-0.47,Climbing Up,7
5.32,5.250863691,23,3,3,3,0,-664.0,4.75,-2.7,2.79,2.12,-2.23,-5.73,9.1875,41.875,329.0625,-0.52703857421875,0.49627685546875,0.6104736328125,0.0012,8.0,39.25,-58.9375,2.62,-0.47,Climbing Up,7
5.33,5.250863691,23,3,3,3,0,-631.0,4.48,-3.12,3.1,1.79,-2.67,-6.85,3.75,40.3125,324.6875,-0.52667236328125,0.4959716796875,0.61328125,0.0012,8.0,39.25,-58.8125,2.69,-0.45,Climbing Up,7
5.34,5.26420915,23,3,3,3,0,-650.0,4.02,-3.69,2.89,1.26,-3.26,-7.88,-5.375,38.25,320.5,-0.52606201171875,0.49493408203125,0.61669921875,0.0012,8.0,39.25,-58.75,2.75,-0.42,Climbing Up,7
5.35,5.26420915,23,3,3,3,0,-670.0,3.66,-3.85,2.68,0.84,-3.47,-9.31,-14.4375,35.75,316.4375,-0.52532958984375,0.4930419921875,0.620849609375,0.0012,8.0,39.25,-58.625,2.81,-0.37,Climbing Up,7
5.36,5.278477989,23,3,3,3,0,-696.0,3.22,-3.93,2.4,0.34,-3.62,-10.89,-19.0625,32.5,312.3125,-0.52471923828125,0.49029541015625,0.62548828125,0.0012,8.0,39.25,-58.5625,2.87,-0.3,Climbing Up,7
5.37,5.278477989,23,3,3,3,0,-712.0,2.81,-3.86,2.23,-0.1,-3.61,-11.87,-14.375,25.375,308.0,-0.52484130859375,0.48699951171875,0.6300048828125,0.0023,7.5625,39.25,-58.4375,2.92,-0.24,Climbing Up,7
5.38,5.309998375,23,3,3,3,0,-712.0,2.23,-3.14,2.21,-0.73,-2.95,-11.87,-14.375,25.375,303.75,-0.52490234375,0.48370361328125,0.63446044921875,0.0023,7.5625,39.25,-58.375,2.96,-0.18,Climbing Up,7
5.39,5.309998375,23,3,3,3,0,-702.0,2.1,-2.54,2.31,-0.89,-2.4,-10.96,-7.5,21.625,299.625,-0.52532958984375,0.480712890625,0.63824462890625,0.0023,7.5625,39.25,-58.3125,3.0,-0.13,Climbing Up,7
5.4,5.323638349,23,3,3,3,0,-695.0,2.02,-1.9,2.36,-1.01,-1.8,-9.51,-1.625,18.1875,295.8125,-0.5260009765625,0.47821044921875,0.6412353515625,0.0023,7.5625,39.25,-58.25,3.03,-0.1,Climbing Up,7
5.41,5.323638349,23,3,3,3,0,-695.0,1.95,-1.37,2.35,-1.1,-1.29,-7.9,1.1875,14.9375,292.625,-0.52667236328125,0.47613525390625,0.64361572265625,0.0023,7.5625,39.25,-58.1875,3.05,-0.08,Climbing Up,7
5.42,5.44447274,23,3,3,3,0,-663.0,1.86,-0.43,2.67,-1.21,-0.37,-5.23,-0.875,11.5,290.4375,-0.5269775390625,0.474853515625,0.645263671875,0.0023,7.5625,38.0625,-58.1875,3.07,-0.06,Climbing Up,7
5.43,5.44447274,23,3,3,3,0,-637.0,1.88,-0.07,2.92,-1.21,-0.03,-5.23,-0.875,11.5,288.25,-0.52728271484375,0.4735107421875,0.64697265625,0.0023,7.5625,38.0625,-58.125,3.09,-0.04,Climbing Up,7
5.44,5.459770592,23,3,3,3,0,-623.0,1.96,0.2,3.06,-1.15,0.23,-4.37,-1.125,11.0625,286.375,-0.52740478515625,0.47247314453125,0.64837646484375,0.0023,7.5625,38.0625,-58.0625,3.11,-0.02,Climbing Up,7
5.45,5.459770592,23,3,3,3,0,-612.0,2.1,0.48,3.16,-1.02,0.49,-3.71,0.625,11.0,284.625,-0.527587890625,0.4716796875,0.64959716796875,0.0023,7.5625,38.0625,-58.0625,3.13,-0.01,Climbing Up,7
5.46,5.490110029,23,3,3,3,0,-587.0,2.14,0.84,3.4,-1.0,0.85,-2.93,4.125,10.4375,282.9375,-0.52783203125,0.47119140625,0.650390625,0.0023,7.5625,38.0625,-58.0,3.15,-0.01,Climbing Up,7
5.47,5.490110029,23,3,3,3,0,-586.0,2.09,0.91,3.41,-1.06,0.93,-2.22,9.4375,6.875,281.5,-0.5284423828125,0.470947265625,0.65069580078125,0.0009,7.1875,36.875,-58.0,3.16,-0.02,Climbing Up,7
5.48,5.495745852,23,3,3,3,0,-591.0,2.03,0.79,3.36,-1.13,0.81,-2.6,8.25,4.0625,280.125,-0.52911376953125,0.470458984375,0.65106201171875,0.0009,7.1875,36.875,-58.0,3.16,-0.02,Climbing Up,7
5.49,5.495745852,23,3,3,3,0,-595.0,1.93,0.64,3.32,-1.22,0.67,-2.77,4.8125,0.6875,279.0625,-0.52978515625,0.4696044921875,0.65155029296875,0.0009,7.1875,36.875,-58.0,3.16,-0.02,Climbing Up,7
5.5,5.501070559,23,3,3,3,0,-590.0,1.79,0.44,3.37,-1.37,0.45,-2.74,0.0,-2.125,278.375,-0.53033447265625,0.468505859375,0.65216064453125,0.0009,7.1875,36.875,-58.0,3.16,-0.01,Climbing Up,7
5.51,5.501070559,23,3,3,3,0,-599.0,1.76,0.26,3.29,-1.39,0.26,-2.98,-3.875,-4.5625,277.9375,-0.53070068359375,0.4671630859375,0.65301513671875,0.0009,7.1875,36.875,-58.0,3.15,0.0,Climbing Up,7
5.52,5.506748375,23,3,3,3,0,-599.0,1.76,0.26,3.29,-1.39,0.26,-2.98,-3.875,-4.5625,277.9375,-0.53070068359375,0.4671630859375,0.65301513671875,0.0009,7.1875,36.875,-58.0,3.15,0.0,Climbing Up,7
5.53,5.506748375,23,3,3,3,0,-608.0,1.92,0.09,3.19,-1.22,0.07,-3.32,-4.1875,-5.9375,277.5,-0.53125,0.46563720703125,0.65386962890625,0.0009,7.875,36.5625,-58.0,3.14,0.01,Climbing Up,7
5.53,5.512271975,23,3,3,3,0,-634.0,2.35,-0.26,2.94,-0.78,-0.29,-3.03,-0.9375,-6.1875,277.0,-0.5318603515625,0.4642333984375,0.654541015625,0.0009,7.875,36.5625,-58.0625,3.13,0.03,Climbing Up,7
5.54,5.512271975,23,3,3,3,0,-659.0,2.57,-0.29,2.69,-0.55,-0.32,-2.26,5.1875,-5.875,276.4375,-0.53277587890625,0.4632568359375,0.65472412109375,0.0009,7.875,36.5625,-58.0625,3.12,0.03,Climbing Up,7
5.55,5.51758419,23,3,3,3,0,-694.0,2.69,-0.32,2.35,-0.42,-0.33,-1.21,11.5625,-5.3125,275.875,-0.5338134765625,0.462890625,0.65435791015625,0.0009,7.875,36.5625,-58.0625,3.11,0.01,Climbing Up,7
5.56,5.51758419,23,3,3,3,0,-727.0,2.69,-0.28,2.02,-0.41,-0.26,-0.09,16.125,-4.75,275.5,-0.53497314453125,0.4630126953125,0.65350341796875,0.0009,7.875,36.5625,-58.0625,3.11,-0.01,Climbing Up,7
5.57,5.521564212,23,3,3,3,0,-740.0,2.43,-0.03,1.89,-0.66,0.01,0.85,20.8125,-4.6875,275.125,-0.53619384765625,0.46356201171875,0.6522216796875,0.0012,7.375,35.375,-58.125,3.1,-0.04,Climbing Up,7
5.58,5.521564212,23,3,3,3,0,-749.0,2.36,0.08,1.81,-0.73,0.18,1.49,26.4375,-5.0,274.8125,-0.5377197265625,0.4644775390625,0.65045166015625,0.0012,7.375,35.375,-58.125,3.09,-0.09,Climbing Up,7
5.59,5.550251793,23,3,3,3,0,-771.0,2.45,0.14,1.59,-0.63,0.3,1.73,32.5,-5.5,274.25,-0.53955078125,0.46563720703125,0.64837646484375,0.0012,7.375,35.375,-58.125,3.08,-0.15,Climbing Up,7
5.6,5.550251793,23,3,3,3,0,-797.0,2.67,0.16,1.32,-0.4,0.38,1.85,36.0625,-6.0625,273.6875,-0.54156494140625,0.466796875,0.64605712890625,0.0012,7.375,35.375,-58.125,3.07,-0.21,Climbing Up,7
5.61,5.5558265,23,3,3,3,0,-852.0,3.03,0.32,0.78,-0.02,0.61,2.0,36.25,-6.5625,273.1875,-0.5435791015625,0.46807861328125,0.6436767578125,0.0012,7.375,35.375,-58.1875,3.06,-0.28,Climbing Up,7
5.62,5.5558265,23,3,3,3,0,-883.0,3.16,0.34,0.48,0.11,0.69,1.94,34.0,-7.125,272.75,-0.54547119140625,0.46917724609375,0.641357421875,0.001,6.6875,36.875,-58.1875,3.05,-0.34,Climbing Up,7
5.63,5.579983808,23,3,3,3,0,-907.0,3.23,0.33,0.23,0.19,0.73,1.78,31.5,-7.625,272.375,-0.54730224609375,0.47021484375,0.63922119140625,0.001,6.6875,36.875,-58.1875,3.03,-0.4,Climbing Up,7
5.64,5.579983808,23,3,3,3,0,-916.0,3.24,0.32,0.15,0.22,0.78,1.81,28.9375,-7.9375,272.1875,-0.54901123046875,0.47113037109375,0.63720703125,0.001,6.6875,36.875,-58.1875,3.02,-0.45,Climbing Up,7
5.65,5.585528282,23,3,3,3,0,-915.0,3.39,0.54,0.16,0.38,1.05,1.83,27.3125,-8.0625,272.0625,-0.55059814453125,0.47198486328125,0.63519287109375,0.001,6.6875,36.875,-58.1875,3.01,-0.5,Climbing Up,7
5.66,5.585528282,23,3,3,3,0,-912.0,3.47,0.66,0.19,0.47,1.22,1.6,27.375,-8.0625,271.875,-0.55218505859375,0.4727783203125,0.63330078125,0.001,6.6875,36.875,-58.25,2.99,-0.55,Climbing Up,7
5.67,5.701276533,23,3,3,3,0,-899.0,3.6,0.72,0.33,0.62,1.32,1.14,27.375,-8.25,271.5,-0.55389404296875,0.47344970703125,0.6314697265625,0.001,7.0,36.875,-58.25,2.98,-0.6,Climbing Up,7
5.68,5.701276533,23,3,3,3,0,-864.0,3.68,0.79,0.67,0.71,1.44,0.76,26.0,-8.1875,271.125,-0.5555419921875,0.473876953125,0.62982177734375,0.001,7.0,36.875,-58.25,2.96,-0.65,Climbing Up,7
5.69,5.7062876,23,3,3,3,0,-872.0,3.7,0.69,0.6,0.74,1.38,0.43,22.25,-7.6875,270.75,-0.5570068359375,0.47418212890625,0.62847900390625,0.001,7.0,36.875,-58.25,2.95,-0.68,Climbing Up,7
5.7,5.7062876,23,3,3,3,0,-891.0,3.73,0.55,0.41,0.78,1.27,0.0,15.875,-7.0625,270.4375,-0.55816650390625,0.4742431640625,0.62750244140625,0.001,7.0,36.875,-58.25,2.94,-0.71,Climbing Up,7
5.71,5.711017906,23,3,3,3,0,-929.0,3.74,0.29,0.03,0.8,1.02,-0.53,9.1875,-6.375,270.25,-0.55902099609375,0.47393798828125,0.6270751953125,0.001,7.0,36.875,-58.25,2.93,-0.72,Climbing Up,7
5.72,5.711017906,23,3,3,3,0,-933.0,3.94,-0.27,0.0,1.01,0.45,-0.95,3.125,-5.9375,270.125,-0.5595703125,0.473388671875,0.62701416015625,0.0015,7.25,38.375,-58.3125,2.92,-0.73,Climbing Up,7
5.73,5.717544233,23,3,3,3,0,-929.0,4.04,-0.54,0.03,1.12,0.18,-0.84,-2.0,-6.5,270.3125,-0.55987548828125,0.47271728515625,0.627197265625,0.0015,7.25,38.375,-58.3125,2.91,-0.72,Climbing Up,7
5.74,5.717544233,23,3,3,3,0,-949.0,4.09,-0.82,-0.15,1.18,-0.11,-0.34,-5.6875,-7.8125,270.9375,-0.5599365234375,0.47210693359375,0.62738037109375,0.0015,7.25,38.375,-58.3125,2.9,-0.71,Climbing Up,7
5.75,5.723031537,23,3,3,3,0,-957.0,4.18,-0.91,-0.23,1.3,-0.21,-0.02,-6.375,-9.625,271.6875,-0.5599365234375,0.47149658203125,0.62750244140625,0.0015,7.25,38.375,-58.375,2.88,-0.7,Climbing Up,7
5.76,5.723031537,23,3,3,3,0,-942.0,4.41,-0.46,-0.07,1.54,0.23,0.0,-2.9375,-12.125,272.5,-0.560302734375,0.4708251953125,0.62738037109375,0.0015,7.25,38.375,-58.4375,2.86,-0.69,Climbing Up,7
5.77,5.728213382,23,3,3,3,0,-924.0,4.4,0.04,0.11,1.56,0.75,-0.08,5.125,-15.3125,273.1875,-0.5611572265625,0.47021484375,0.62677001953125,0.0013,7.25,38.875,-58.4375,2.84,-0.7,Climbing Up,7
5.78,5.728213382,23,3,3,3,0,-915.0,4.26,0.61,0.21,1.44,1.34,-0.32,16.5,-18.6875,273.375,-0.56292724609375,0.46954345703125,0.6256103515625,0.0013,7.25,38.875,-58.5,2.81,-0.73,Climbing Up,7
5.79,5.732789106,23,3,3,3,0,-931.0,4.11,1.09,0.05,1.33,1.87,-0.83,27.1875,-22.0,273.25,-0.56536865234375,0.46881103515625,0.62396240234375,0.0013,7.25,38.875,-58.5625,2.77,-0.77,Climbing Up,7
5.8,5.732789106,23,3,3,3,0,-931.0,4.11,1.09,0.05,1.33,1.87,-0.83,27.1875,-22.0,273.25,-0.56536865234375,0.46881103515625,0.62396240234375,0.0013,7.25,38.875,-58.5625,2.77,-0.77,Climbing Up,7
5.81,5.737143557,23,3,3,3,0,-1033.0,3.97,1.41,-0.95,1.23,2.23,-1.52,32.8125,-24.25,272.6875,-0.568359375,0.4678955078125,0.6221923828125,0.0013,7.25,38.875,-58.5625,2.74,-0.82,Climbing Up,7
5.81,5.737143557,23,3,3,3,0,-1094.0,4.05,1.21,-1.55,1.34,2.07,-2.07,30.125,-25.3125,272.1875,-0.57135009765625,0.46661376953125,0.62060546875,0.0013,7.25,38.875,-58.625,2.7,-0.86,Climbing Up,7
5.82,5.80595504,23,3,3,3,0,-1154.0,4.12,0.95,-2.14,1.46,1.84,-2.26,20.375,-25.3125,272.0,-0.57379150390625,0.465087890625,0.61962890625,0.0016,7.0,39.25,-58.6875,2.66,-0.89,Climbing Up,7
5.83,5.80595504,23,3,3,3,0,-1239.0,4.4,0.4,-2.99,1.78,1.3,-2.07,8.5,-24.125,272.3125,-0.57550048828125,0.46337890625,0.619140625,0.0016,7.0,39.25,-58.75,2.62,-0.9,Climbing Up,7
5.84,5.810918053,23,3,3,3,0,-1270.0,4.51,0.1,-3.28,1.92,0.99,-1.66,0.125,-22.9375,273.0625,-0.57666015625,0.461669921875,0.61907958984375,0.0016,7.0,39.25,-58.8125,2.58,-0.89,Climbing Up,7
5.85,5.810918053,23,3,3,3,0,-1301.0,4.51,-0.2,-3.59,1.96,0.67,-1.43,-3.375,-22.375,273.9375,-0.57757568359375,0.4599609375,0.61907958984375,0.0016,7.0,39.25,-58.875,2.55,-0.88,Climbing Up,7
5.86,5.815492027,23,3,3,3,0,-1318.0,4.6,-0.58,-3.75,2.08,0.28,-1.47,-3.8125,-22.0,274.875,-0.57843017578125,0.458251953125,0.619140625,0.0016,7.0,39.25,-58.9375,2.51,-0.87,Climbing Up,7
5.87,5.815492027,23,3,3,3,0,-1355.0,4.78,-1.37,-4.11,2.29,-0.51,-1.57,-4.1875,-21.4375,275.6875,-0.57928466796875,0.45654296875,0.6192626953125,0.0013,7.6875,38.75,-59.0,2.48,-0.86,Climbing Up,7
5.88,5.820611168,23,3,3,3,0,-1402.0,4.95,-1.6,-4.57,2.49,-0.75,-1.64,-4.0625,-20.125,276.4375,-0.580078125,0.45489501953125,0.61944580078125,0.0013,7.6875,38.75,-59.0625,2.45,-0.85,Climbing Up,7
5.89,5.820611168,23,3,3,3,0,-1460.0,4.81,-1.75,-5.14,2.39,-0.91,-1.72,-3.25,-18.5,277.0625,-0.58087158203125,0.45330810546875,0.61956787109375,0.0013,7.6875,38.75,-59.125,2.42,-0.84,Climbing Up,7
5.9,5.825752241,23,3,3,3,0,-1518.0,4.51,-1.84,-5.7,2.11,-1.01,-1.7,-1.4375,-17.375,277.5,-0.58172607421875,0.4517822265625,0.61968994140625,0.0013,7.6875,38.75,-59.1875,2.39,-0.83,Climbing Up,7
5.91,5.825752241,23,3,3,3,0,-1479.0,3.18,-1.73,-5.31,0.81,-0.89,-1.29,2.625,-16.8125,277.875,-0.58270263671875,0.4505615234375,0.6195068359375,0.0013,7.6875,38.75,-59.1875,2.37,-0.83,Climbing Up,7
5.92,5.851123823,23,3,3,3,0,-1373.0,2.27,-1.52,-4.25,-0.06,-0.67,-0.6,9.5625,-17.3125,278.25,-0.583984375,0.44970703125,0.6187744140625,0.0013,7.6875,39.5,-59.25,2.34,-0.84,Climbing Up,7
5.93,5.851123823,23,3,3,3,0,-1264.0,1.5,-1.29,-3.15,-0.81,-0.41,-0.15,18.6875,-18.6875,278.5,-0.58575439453125,0.44915771484375,0.617431640625,0.0013,7.6875,39.5,-59.25,2.31,-0.87,Climbing Up,7
5.94,5.865712771,23,3,3,3,0,-1178.0,0.83,-1.27,-2.29,-1.44,-0.35,0.26,24.875,-20.0,278.6875,-0.58782958984375,0.44879150390625,0.6156005859375,0.0013,7.6875,39.5,-59.3125,2.28,-0.92,Climbing Up,7
5.95,5.865712771,23,3,3,3,0,-1030.0,-0.03,-1.6,-0.81,-2.28,-0.64,1.19,23.125,-19.5625,279.1875,-0.58966064453125,0.44873046875,0.61370849609375,0.0013,7.6875,39.5,-59.3125,2.24,-0.96,Climbing Up,7
5.96,5.879329186,23,3,3,3,0,-977.0,-0.28,-2.04,-0.27,-2.5,-1.05,2.6,13.0625,-18.0,280.5,-0.59063720703125,0.44903564453125,0.6119384765625,0.0013,7.6875,39.5,-59.375,2.21,-0.98,Climbing Up,7
5.97,5.879329186,23,3,3,3,0,-934.0,-0.5,-2.69,0.16,-2.68,-1.69,4.33,-2.0625,-16.1875,282.9375,-0.59051513671875,0.4495849609375,0.610595703125,0.001,7.6875,37.5625,-59.375,2.18,-0.99,Climbing Up,7
5.98,5.911593875,23,3,3,3,0,-895.0,-0.76,-3.4,0.56,-2.91,-2.42,6.27,-18.875,-15.5625,286.5625,-0.58917236328125,0.45037841796875,0.60968017578125,0.001,7.6875,37.5625,-59.4375,2.15,-0.97,Climbing Up,7
5.99,5.911593875,23,3,3,3,0,-891.0,-0.61,-4.7,0.61,-2.72,-3.76,8.24,-33.0625,-15.9375,291.5,-0.58673095703125,0.45147705078125,0.60894775390625,0.001,7.6875,37.5625,-59.5,2.11,-0.94,Climbing Up,7
6.0,5.925699588,23,3,3,3,0,-891.0,-0.23,-4.97,0.62,-2.31,-4.07,9.62,-40.875,-17.25,297.25,-0.583740234375,0.45281982421875,0.6082763671875,0.001,7.6875,37.5625,-59.625,2.07,-0.89,Climbing Up,7
6.01,5.925699588,23,3,3,3,0,-885.0,0.17,-4.89,0.7,-1.86,-4.04,10.12,-39.75,-19.625,303.1875,-0.580810546875,0.4541015625,0.60723876953125,0.001,7.6875,37.5625,-59.6875,2.03,-0.85,Climbing Up,7
6.02,5.954843224,23,3,3,3,0,-881.0,0.94,-4.15,0.74,-1.04,-3.33,10.19,-31.1875,-22.125,308.9375,-0.578369140625,0.45556640625,0.605712890625,0.0002,8.75,36.0625,-59.75,1.98,-0.82,Climbing Up,7
6.04,5.954843224,23,3,3,3,0,-900.0,1.02,-3.61,0.57,-0.91,-2.8,10.22,-20.9375,-23.75,314.375,-0.5765380859375,0.4571533203125,0.60357666015625,0.0002,8.75,36.0625,-59.8125,1.94,-0.81,Climbing Up,7
6.05,5.969385908,23,3,3,3,0,-917.0,1.01,-3.0,0.41,-0.87,-2.19,10.28,-12.9375,-24.25,319.5625,-0.5750732421875,0.458984375,0.60101318359375,0.0002,8.75,36.0625,-59.875,1.89,-0.81,Climbing Up,7
6.05,5.969385908,23,3,3,3,0,-917.0,1.05,-2.4,0.42,-0.78,-1.58,9.71,-6.6875,-23.75,324.1875,-0.57403564453125,0.4608154296875,0.5982666015625,0.0002,8.75,36.0625,-59.9375,1.84,-0.82,Climbing Up,7
6.06,5.984814863,23,3,3,3,0,-868.0,1.17,-1.23,0.91,-0.61,-0.39,8.6,-1.25,-22.875,328.25,-0.57342529296875,0.46240234375,0.59552001953125,0.0002,8.75,36.0625,-60.0,1.79,-0.83,Climbing Up,7
6.07,5.984814863,23,3,3,3,0,-834.0,1.39,-0.77,1.26,-0.35,0.08,7.46,3.75,-21.75,331.625,-0.57318115234375,0.4638671875,0.59283447265625,0.0002,8.6875,35.25,-60.0625,1.75,-0.85,Climbing Up,7
6.08,5.999144575,23,3,3,3,0,-803.0,1.63,-0.33,1.58,-0.07,0.54,6.57,8.8125,-20.3125,334.4375,-0.57330322265625,0.4652099609375,0.590087890625,0.0002,8.6875,35.25,-60.0625,1.71,-0.88,Climbing Up,7
6.09,5.999144575,23,3,3,3,0,-803.0,1.63,-0.33,1.58,-0.07,0.54,6.57,8.8125,-20.3125,334.4375,-0.57330322265625,0.4652099609375,0.590087890625,0.0002,8.6875,35.25,-60.0625,1.71,-0.88,Climbing Up,7
6.1,6.014192467,23,3,3,3,0,-775.0,1.72,0.02,1.86,0.05,0.94,5.87,12.875,-18.9375,336.75,-0.57373046875,0.46649169921875,0.58740234375,0.0002,8.6875,35.25,-60.0625,1.67,-0.91,Climbing Up,7
6.1,6.014192467,23,3,3,3,0,-707.0,1.51,0.67,2.54,-0.12,1.62,5.28,16.0625,-17.3125,338.6875,-0.57427978515625,0.46783447265625,0.58477783203125,0.0002,8.6875,35.25,-60.125,1.63,-0.95,Climbing Up,7
6.11,6.044711632,23,3,3,3,0,-684.0,1.38,0.81,2.77,-0.22,1.8,4.64,16.8125,-15.8125,340.3125,-0.574951171875,0.468994140625,0.582275390625,0.0002,8.6875,35.25,-60.125,1.6,-0.99,Climbing Up,7
6.13,6.044711632,23,3,3,3,0,-683.0,1.14,0.62,2.78,-0.43,1.65,3.98,13.75,-13.5,341.6875,-0.57550048828125,0.469970703125,0.58013916015625,0.0009,9.75,31.75,-60.125,1.58,-1.02,Climbing Up,7
6.14,6.059686648,23,3,3,3,0,-675.0,0.98,0.24,2.86,-0.57,1.28,3.65,5.0,-10.8125,343.25,-0.5755615234375,0.470703125,0.57861328125,0.0009,9.75,31.75,-60.125,1.55,-1.03,Climbing Up,7
6.14,6.059686648,23,3,3,3,0,-649.0,0.77,-0.46,3.13,-0.76,0.56,3.7,-7.25,-8.3125,345.1875,-0.5748291015625,0.47125244140625,0.57781982421875,0.0009,9.75,31.75,-60.1875,1.53,-1.03,Climbing Up,7
6.15,6.07439014,23,3,3,3,0,-630.0,0.76,-0.7,3.32,-0.75,0.3,3.77,-17.375,-5.75,347.4375,-0.57354736328125,0.47161865234375,0.5775146484375,0.0009,9.75,31.75,-60.1875,1.52,-1.0,Climbing Up,7
6.16,6.07439014,23,3,3,3,0,-616.0,0.78,-0.9,3.46,-0.73,0.06,3.83,-23.375,-3.25,349.8125,-0.57177734375,0.47198486328125,0.57757568359375,0.0009,9.75,31.75,-60.1875,1.51,-0.97,Climbing Up,7
6.17,6.105205488,23,3,3,3,0,-627.0,0.91,-1.24,3.36,-0.59,-0.3,3.94,-24.9375,-1.1875,352.1875,-0.56982421875,0.472412109375,0.5777587890625,-0.0002,9.375,31.5,-60.25,1.5,-0.93,Climbing Up,7
6.18,6.105205488,23,3,3,3,0,-634.0,0.94,-1.39,3.3,-0.56,-0.48,4.21,-24.5625,0.1875,354.5625,-0.56781005859375,0.4730224609375,0.577880859375,-0.0002,9.375,31.5,-60.25,1.5,-0.9,Climbing Up,7
6.19,6.119335615,23,3,3,3,0,-661.0,1.01,-1.5,3.03,-0.48,-0.62,4.27,-23.625,1.875,356.8125,-0.56573486328125,0.4737548828125,0.5780029296875,-0.0002,9.375,31.5,-60.3125,1.5,-0.87,Climbing Up,7
6.2,6.119335615,23,3,3,3,0,-694.0,1.14,-1.55,2.71,-0.36,-0.71,4.25,-23.3125,3.75,358.9375,-0.5635986328125,0.47454833984375,0.57818603515625,-0.0002,9.375,31.5,-60.3125,1.5,-0.84,Climbing Up,7
6.22,6.134981489,23,3,3,3,0,-756.0,1.51,-1.35,2.08,0.0,-0.54,4.39,-23.5625,6.5625,361.0,-0.561279296875,0.47552490234375,0.578369140625,-0.0002,9.375,31.5,-60.3125,1.51,-0.8,Climbing Up,7
6.22,6.134981489,23,3,3,3,0,-775.0,1.79,-1.13,1.89,0.26,-0.35,4.79,-23.0625,10.5,362.9375,-0.55877685546875,0.47686767578125,0.57861328125,-0.0005,10.5,30.0,-60.3125,1.52,-0.77,Climbing Up,7
6.23,6.164880089,23,3,3,3,0,-777.0,2.0,-0.86,1.87,0.45,-0.11,5.59,-20.9375,14.6875,364.8125,-0.5560302734375,0.47869873046875,0.57861328125,-0.0005,10.5,30.0,-60.3125,1.54,-0.75,Climbing Up,7
6.24,6.164880089,23,3,3,3,0,-773.0,2.0,-0.58,1.91,0.43,0.15,6.76,-18.4375,18.25,366.75,-0.55303955078125,0.48114013671875,0.57830810546875,-0.0005,10.5,30.0,-60.3125,1.57,-0.73,Climbing Up,7
6.25,6.179439049,23,3,3,3,0,-828.0,1.63,-0.34,1.36,0.03,0.37,7.29,-16.8125,20.8125,368.625,-0.54986572265625,0.48388671875,0.57781982421875,-0.0005,10.5,30.0,-60.25,1.6,-0.71,Climbing Up,7
6.26,6.179439049,23,3,3,3,0,-865.0,1.42,-0.44,0.98,-0.2,0.26,6.67,-14.75,21.6875,370.1875,-0.54693603515625,0.486572265625,0.57745361328125,-0.0005,10.5,30.0,-60.25,1.63,-0.7,Climbing Up,7
6.27,6.194325768,23,3,3,3,0,-895.0,1.17,-0.48,0.68,-0.49,0.2,5.76,-13.625,21.1875,371.4375,-0.544189453125,0.48895263671875,0.57720947265625,-0.0005,9.5,28.75,-60.1875,1.66,-0.69,Climbing Up,7
6.29,6.194325768,23,3,3,3,0,-917.0,0.79,-0.38,0.45,-0.89,0.29,5.4,-16.25,19.375,372.8125,-0.54150390625,0.4910888671875,0.5771484375,-0.0005,9.5,28.75,-60.1875,1.69,-0.67,Climbing Up,7
6.3,6.226730634,23,3,3,3,0,-975.0,0.39,0.02,-0.12,-1.32,0.67,4.91,-19.5,17.4375,374.25,-0.53875732421875,0.49285888671875,0.57733154296875,-0.0005,9.5,28.75,-60.1875,1.71,-0.65,Climbing Up,7
6.31,6.226730634,23,3,3,3,0,-991.0,0.37,0.09,-0.28,-1.36,0.72,3.66,-19.375,15.25,375.375,-0.53643798828125,0.49407958984375,0.57769775390625,-0.0005,9.5,28.75,-60.1875,1.74,-0.62,Climbing Up,7
6.31,6.258487552,23,3,3,3,0,-1000.0,0.49,0.07,-0.37,-1.26,0.67,2.38,-16.25,12.5,376.1875,-0.53460693359375,0.494873046875,0.5782470703125,-0.0005,9.5,28.75,-60.125,1.76,-0.6,Climbing Up,7
6.32,6.258487552,23,3,3,3,0,-999.0,0.8,0.03,-0.36,-0.96,0.62,1.8,-11.9375,10.3125,376.75,-0.533203125,0.49554443359375,0.57861328125,0.0001,10.5625,28.5,-60.125,1.77,-0.58,Climbing Up,7
6.33,6.264850548,23,3,3,3,0,-991.0,0.98,0.08,-0.29,-0.8,0.66,1.86,-10.1875,9.1875,377.25,-0.53192138671875,0.49627685546875,0.578857421875,0.0001,10.5625,28.5,-60.125,1.79,-0.57,Climbing Up,7
6.34,6.264850548,23,3,3,3,0,-990.0,1.13,0.12,-0.28,-0.67,0.68,1.95,-10.9375,9.25,377.875,-0.53057861328125,0.4969482421875,0.57916259765625,0.0001,10.5625,28.5,-60.125,1.8,-0.55,Climbing Up,7
6.35,6.285385175,23,3,3,3,0,-995.0,1.31,0.12,-0.33,-0.5,0.66,1.66,-12.4375,9.375,378.4375,-0.5291748046875,0.49749755859375,0.57958984375,0.0001,10.5625,28.5,-60.125,1.81,-0.54,Climbing Up,7
6.37,6.285385175,23,3,3,3,0,-979.0,1.21,-0.02,-0.17,-0.61,0.49,1.22,-13.25,8.625,378.9375,-0.52789306640625,0.49786376953125,0.58013916015625,0.0001,10.5625,28.5,-60.0625,1.83,-0.52,Climbing Up,7
6.38,6.315143802,23,3,3,3,0,-966.0,1.05,-0.06,-0.04,-0.79,0.43,0.86,-13.25,7.375,379.375,-0.5267333984375,0.498046875,0.58074951171875,0.0002,10.0,30.0,-60.0625,1.84,-0.49,Climbing Up,7
6.39,6.315143802,23,3,3,3,0,-965.0,0.96,-0.1,-0.03,-0.89,0.37,0.62,-12.0625,6.3125,379.8125,-0.5257568359375,0.49810791015625,0.581298828125,0.0002,10.0,30.0,-60.0625,1.85,-0.48,Climbing Up,7
6.39,6.323088016,23,3,3,3,0,-972.0,0.93,-0.07,-0.11,-0.92,0.38,0.45,-11.0,5.9375,380.125,-0.52484130859375,0.4981689453125,0.5819091796875,0.0002,10.0,30.0,-60.0625,1.86,-0.46,Climbing Up,7
6.4,6.323088016,23,3,3,3,0,-964.0,0.86,0.25,-0.02,-0.98,0.68,0.44,-9.9375,6.125,381.5625,-0.52423095703125,0.4971923828125,0.58233642578125,0.0002,10.0,30.0,-60.125,1.84,-0.43,Climbing Up,7
6.41,6.330954145,23,3,3,3,0,-965.0,0.88,0.51,-0.03,-0.97,0.93,0.49,-8.3125,6.8125,381.75,-0.5234375,0.49737548828125,0.58282470703125,0.0002,10.0,30.0,-60.0625,1.85,-0.41,Climbing Up,7
6.42,6.330954145,23,3,3,3,0,-965.0,0.88,0.51,-0.03,-0.97,0.93,0.49,-8.3125,6.8125,381.75,-0.5234375,0.49737548828125,0.58282470703125,0.0002,10.0,30.0,-60.0625,1.85,-0.41,Climbing Up,7
6.43,6.344771691,23,3,3,3,0,-986.0,0.96,0.78,-0.24,-0.9,1.19,0.42,-6.625,8.0,381.75,-0.52264404296875,0.49761962890625,0.583251953125,0.001,9.5625,28.0,-60.0625,1.87,-0.4,Climbing Up,7
6.43,6.344771691,23,3,3,3,0,-1023.0,0.99,0.95,-0.62,-0.89,1.34,0.22,-5.9375,8.625,381.6875,-0.52197265625,0.4979248046875,0.583740234375,0.001,9.5625,28.0,-60.0625,1.88,-0.39,Climbing Up,7
6.45,6.374919762,23,3,3,3,0,-1112.0,1.01,0.98,-1.51,-0.88,1.37,0.01,-8.8125,9.0625,381.5625,-0.5211181640625,0.498046875,0.58441162109375,0.001,9.5625,28.0,-60.0625,1.89,-0.38,Climbing Up,7
6.46,6.374919762,23,3,3,3,0,-1154.0,0.97,0.91,-1.93,-0.93,1.27,-0.26,-13.4375,9.75,381.625,-0.52008056640625,0.4979248046875,0.58544921875,0.001,9.5625,28.0,-60.0625,1.91,-0.36,Climbing Up,7
6.47,6.38898153,23,3,3,3,0,-1191.0,1.07,0.82,-2.3,-0.85,1.15,-0.6,-18.9375,11.25,381.6875,-0.51873779296875,0.49761962890625,0.5867919921875,0.001,9.5625,28.0,-60.0,1.93,-0.32,Climbing Up,7
6.47,6.38898153,23,3,3,3,0,-1260.0,1.53,0.74,-2.99,-0.42,1.03,-1.03,-22.5625,13.9375,381.6875,-0.51715087890625,0.4971923828125,0.58856201171875,0.0002,10.0,28.5,-60.0,1.95,-0.28,Climbing Up,7
6.48,6.404163659,23,3,3,3,0,-1283.0,1.86,0.75,-3.23,-0.12,1.0,-1.41,-23.125,18.0,381.375,-0.5155029296875,0.49676513671875,0.590576171875,0.0002,10.0,28.5,-59.9375,1.98,-0.24,Climbing Up,7
6.49,6.404163659,23,3,3,3,0,-1281.0,2.09,0.84,-3.21,0.06,1.05,-1.65,-19.5,22.5625,380.5625,-0.51385498046875,0.49658203125,0.5926513671875,0.0002,10.0,28.5,-59.9375,2.02,-0.2,Climbing Up,7
6.5,6.43453109,23,3,3,3,0,-1264.0,2.17,0.91,-3.06,0.1,1.1,-1.8,-12.0625,27.25,379.1875,-0.51239013671875,0.496826171875,0.59454345703125,0.0002,10.0,28.5,-59.875,2.07,-0.18,Climbing Up,7
6.52,6.43453109,23,3,3,3,0,-1272.0,1.97,0.55,-3.15,-0.15,0.72,-1.82,-4.625,32.0,377.1875,-0.51116943359375,0.49749755859375,0.59625244140625,0.0002,10.0,28.5,-59.8125,2.12,-0.17,Climbing Up,7
6.53,6.450220625,23,3,3,3,0,-1301.0,1.67,0.2,-3.45,-0.51,0.36,-1.8,-1.5625,35.0625,374.875,-0.5098876953125,0.4984130859375,0.59796142578125,0.0013,10.0,25.6875,-59.6875,2.18,-0.16,Climbing Up,7
6.54,6.450220625,23,3,3,3,0,-1344.0,1.59,-0.07,-3.9,-0.64,0.07,-1.75,-2.875,35.8125,372.625,-0.508544921875,0.49932861328125,0.5997314453125,0.0013,10.0,25.6875,-59.625,2.24,-0.15,Climbing Up,7
6.55,6.464313602,23,3,3,3,0,-1364.0,1.92,-0.32,-4.11,-0.37,-0.18,-1.72,-6.5625,35.125,370.5625,-0.50701904296875,0.50006103515625,0.6015625,0.0013,10.0,25.6875,-59.5625,2.3,-0.14,Climbing Up,7
6.56,6.464313602,23,3,3,3,0,-1278.0,2.95,-0.64,-3.26,0.59,-0.52,-1.46,-8.5625,34.25,368.6875,-0.50537109375,0.5008544921875,0.60345458984375,0.0013,10.0,25.6875,-59.4375,2.35,-0.12,Climbing Up,7
6.56,6.494249759,23,3,3,3,0,-1204.0,3.51,-0.87,-2.54,1.1,-0.76,-1.26,-6.9375,33.625,366.875,-0.5037841796875,0.50164794921875,0.60516357421875,0.0013,10.0,25.6875,-59.375,2.41,-0.1,Climbing Up,7
6.57,6.494249759,23,3,3,3,0,-1107.0,3.85,-1.09,-1.58,1.39,-0.99,-1.35,-3.9375,32.8125,364.875,-0.50238037109375,0.50250244140625,0.606689453125,0.0016,9.75,25.25,-59.3125,2.46,-0.09,Climbing Up,7
6.58,6.50977519,23,3,3,3,0,-1004.0,4.01,-1.39,-0.56,1.49,-1.3,-1.93,-1.9375,31.125,362.75,-0.5013427734375,0.503173828125,0.6082763671875,0.0016,9.75,25.25,-59.1875,2.51,-0.08,Climbing Up,7
6.6,6.50977519,23,3,3,3,0,-845.0,3.8,-2.2,1.0,1.23,-2.12,-3.02,-1.75,28.25,360.4375,-0.50054931640625,0.5032958984375,0.61004638671875,0.0016,9.75,25.25,-59.125,2.56,-0.07,Climbing Up,7
6.61,6.524192386,23,3,3,3,0,-789.0,3.64,-2.61,1.55,1.03,-2.55,-4.24,-3.125,25.4375,358.0625,-0.5001220703125,0.5029296875,0.61212158203125,0.0016,9.75,25.25,-59.0625,2.6,-0.05,Climbing Up,7
6.62,6.524192386,23,3,3,3,0,-758.0,3.57,-2.9,1.85,0.93,-2.87,-5.3,-5.6875,23.3125,355.5625,-0.49981689453125,0.501953125,0.61456298828125,0.0016,9.75,25.25,-59.0,2.64,-0.03,Climbing Up,7
6.63,6.554865848,23,3,3,3,0,-741.0,3.56,-3.14,2.01,0.88,-3.13,-6.3,-7.4375,21.375,352.9375,-0.4996337890625,0.50054931640625,0.61724853515625,0.0012,10.5,25.6875,-58.9375,2.68,0.0,Climbing Up,7
6.64,6.554865848,23,3,3,3,0,-773.0,3.72,-3.37,1.68,1.01,-3.4,-7.16,-8.0,19.0,350.25,-0.499755859375,0.49871826171875,0.6201171875,0.0012,10.5,25.6875,-58.875,2.71,0.03,Climbing Up,7
6.64,6.568987552,23,3,3,3,0,-791.0,3.68,-3.38,1.5,0.94,-3.45,-7.63,-7.0,16.25,347.5625,-0.50006103515625,0.49664306640625,0.62298583984375,0.0012,10.5,25.6875,-58.8125,2.73,0.06,Climbing Up,7
6.65,6.568987552,23,3,3,3,0,-799.0,3.49,-3.22,1.41,0.73,-3.31,-7.55,-4.625,13.3125,344.9375,-0.50067138671875,0.4945068359375,0.6256103515625,0.0012,10.5,25.6875,-58.75,2.76,0.09,Climbing Up,7
6.67,6.583909874,23,3,3,3,0,-822.0,3.11,-2.61,1.17,0.33,-2.73,-7.17,-1.125,11.5,342.3125,-0.50140380859375,0.4925537109375,0.62786865234375,0.0012,10.5,25.6875,-58.75,2.77,0.11,Climbing Up,7
6.68,6.583909874,23,3,3,3,0,-829.0,3.08,-2.11,1.1,0.28,-2.25,-6.45,2.125,10.375,339.8125,-0.50225830078125,0.4908447265625,0.62982177734375,0.002,10.0,23.5,-58.6875,2.79,0.13,Climbing Up,7
