timestamp,android_nano_timestamp,temperature,calib_mag,calib_accel,calib_gyro,calib_sys,acc_x,acc_y,acc_z,lacc_x,lacc_y,lacc_z,gyro_x,gyro_y,gyro_z,quat_w,quat_x,quat_y,quat_z,mag_x,mag_y,mag_z,gravity_x,gravity_y,gravity_z,label,person
0.68,0.633194376,29,3,3,3,0,-8.67,1.62,-4.3,-0.05,-0.02,0.06,1.4375,1.25,0.625,0.50616455078125,0.38348388671875,0.7587890625,-0.14495849609375,26.5625,37.5,78.25,-8.62,1.65,-4.36,nothing,4
0.69,0.633194376,29,3,3,3,0,-8.66,1.62,-4.31,-0.04,-0.02,0.05,1.6875,0.3125,0.6875,0.506103515625,0.38360595703125,0.75872802734375,-0.14501953125,26.5625,37.5,78.25,-8.62,1.65,-4.37,nothing,4
0.7,0.638781942,29,3,3,3,0,-8.61,1.61,-4.44,0.0,-0.02,-0.07,1.875,0.0,0.6875,0.50604248046875,0.38372802734375,0.7586669921875,-0.14508056640625,25.5625,37.5,77.0625,-8.62,1.64,-4.37,nothing,4
0.71,0.638781942,29,3,3,3,0,-8.59,1.63,-4.43,0.02,-0.01,-0.06,1.625,-0.5,0.9375,0.50604248046875,0.38385009765625,0.75860595703125,-0.1451416015625,25.5625,37.5,77.0625,-8.62,1.64,-4.37,nothing,4
0.72,0.651459432,29,3,3,3,0,-8.6,1.64,-4.43,0.01,0.0,-0.06,1.0,-0.6875,1.0625,0.50604248046875,0.38397216796875,0.758544921875,-0.14520263671875,25.5625,37.5,77.0625,-8.62,1.65,-4.37,nothing,4
0.73,0.651459432,29,3,3,3,0,-8.62,1.67,-4.43,0.0,0.02,-0.06,0.5,-0.8125,1.1875,0.506103515625,0.384033203125,0.75848388671875,-0.14520263671875,25.5625,37.5,77.0625,-8.62,1.65,-4.36,nothing,4
0.74,0.682583089,29,3,3,3,0,-8.64,1.71,-4.38,-0.02,0.06,-0.02,0.4375,-1.0,1.0625,0.5062255859375,0.38409423828125,0.75836181640625,-0.14520263671875,25.5625,37.5,77.0625,-8.62,1.65,-4.36,nothing,4
0.75,0.682583089,29,3,3,3,0,-8.64,1.71,-4.37,-0.02,0.05,-0.01,0.4375,-0.625,1.0625,0.50628662109375,0.3841552734375,0.75830078125,-0.1451416015625,27.0,36.6875,78.6875,-8.62,1.65,-4.36,nothing,4
0.76,0.69768453,29,3,3,3,0,-8.68,1.72,-4.35,-0.06,0.06,0.0,1.125,-0.6875,1.0625,0.50628662109375,0.38427734375,0.75823974609375,-0.14520263671875,27.0,36.6875,78.6875,-8.62,1.65,-4.36,nothing,4
0.77,0.69768453,29,3,3,3,0,-8.72,1.72,-4.36,-0.09,0.07,0.0,1.5625,-0.8125,1.25,0.50628662109375,0.38446044921875,0.75811767578125,-0.145263671875,27.0,36.6875,78.6875,-8.62,1.65,-4.36,nothing,4
0.78,0.711972371,29,3,3,3,0,-8.7,1.7,-4.32,-0.07,0.04,0.04,2.0,-0.875,1.375,0.50634765625,0.38458251953125,0.75799560546875,-0.1453857421875,27.0,36.6875,78.6875,-8.62,1.65,-4.36,nothing,4
0.79,0.711972371,29,3,3,3,0,-8.71,1.72,-4.34,-0.08,0.06,0.01,2.25,-1.25,1.25,0.50634765625,0.384765625,0.75787353515625,-0.1455078125,27.0,36.6875,78.6875,-8.62,1.65,-4.36,nothing,4
0.8,0.741497274,29,3,3,3,0,-8.67,1.71,-4.35,-0.04,0.05,0.0,2.3125,-1.5625,1.25,0.50640869140625,0.38494873046875,0.75775146484375,-0.14569091796875,26.5625,37.5,77.375,-8.62,1.65,-4.36,nothing,4
0.81,0.741497274,29,3,3,3,0,-8.65,1.67,-4.33,-0.02,0.01,0.02,2.0,-1.8125,1.0,0.5064697265625,0.38507080078125,0.757568359375,-0.14581298828125,26.5625,37.5,77.375,-8.62,1.65,-4.35,nothing,4
0.82,0.756312052,29,3,3,3,0,-8.64,1.7,-4.32,-0.01,0.04,0.03,1.8125,-2.0,0.75,0.50653076171875,0.38519287109375,0.7574462890625,-0.14599609375,26.5625,37.5,77.375,-8.62,1.65,-4.35,nothing,4
0.83,0.756312052,29,3,3,3,0,-8.63,1.66,-4.3,0.0,0.01,0.04,1.9375,-2.4375,0.25,0.50665283203125,0.38525390625,0.75732421875,-0.14617919921875,26.5625,37.5,77.375,-8.62,1.65,-4.35,nothing,4
0.84,0.776041626,29,3,3,3,0,-8.65,1.64,-4.32,-0.02,0.0,0.02,1.75,-2.6875,0.0,0.50677490234375,0.38525390625,0.7572021484375,-0.1463623046875,26.5625,37.5,77.375,-8.63,1.65,-4.34,nothing,4
0.85,0.776041626,29,3,3,3,0,-8.69,1.64,-4.33,-0.06,0.0,0.01,1.75,-2.8125,-0.1875,0.50689697265625,0.38531494140625,0.75701904296875,-0.1466064453125,27.375,37.75,77.0625,-8.63,1.65,-4.34,nothing,4
0.86,0.801089966,29,3,3,3,0,-8.68,1.62,-4.34,-0.04,-0.02,0.0,1.6875,-2.75,-0.5,0.50701904296875,0.3853759765625,0.75689697265625,-0.14678955078125,27.375,37.75,77.0625,-8.63,1.65,-4.34,nothing,4
0.87,0.801089966,29,3,3,3,0,-8.7,1.63,-4.33,-0.06,-0.01,0.0,1.875,-2.9375,-0.625,0.50714111328125,0.3853759765625,0.75677490234375,-0.14703369140625,27.375,37.75,77.0625,-8.63,1.65,-4.33,nothing,4
0.88,0.816108805,29,3,3,3,0,-8.71,1.62,-4.33,-0.07,-0.02,0.0,1.875,-2.8125,-0.75,0.50726318359375,0.3853759765625,0.756591796875,-0.1473388671875,27.375,37.75,77.0625,-8.64,1.64,-4.33,nothing,4
0.89,0.816108805,29,3,3,3,0,-8.71,1.62,-4.35,-0.07,-0.02,-0.02,1.5,-2.8125,-0.875,0.50738525390625,0.38531494140625,0.75653076171875,-0.1475830078125,27.375,37.75,77.0625,-8.64,1.64,-4.33,nothing,4
0.9,0.832645711,29,3,3,3,0,-8.73,1.64,-4.35,-0.08,0.0,-0.02,1.1875,-2.6875,-0.9375,0.50750732421875,0.38525390625,0.75640869140625,-0.14776611328125,26.0,38.1875,77.375,-8.64,1.64,-4.32,nothing,4
0.91,0.832645711,29,3,3,3,0,-8.74,1.64,-4.33,-0.1,0.0,-0.01,1.0,-2.6875,-0.8125,0.5076904296875,0.38525390625,0.75628662109375,-0.14794921875,26.0,38.1875,77.375,-8.64,1.64,-4.32,nothing,4
0.92,0.861738444,29,3,3,3,0,-8.75,1.67,-4.32,-0.1,0.03,0.0,1.0,-2.3125,-0.9375,0.50775146484375,0.38519287109375,0.7562255859375,-0.14813232421875,26.0,38.1875,77.375,-8.65,1.63,-4.31,nothing,4
0.93,0.861738444,29,3,3,3,0,-8.75,1.67,-4.28,-0.1,0.03,0.03,1.0,-2.125,-0.9375,0.50787353515625,0.3851318359375,0.756103515625,-0.1483154296875,26.0,38.1875,77.375,-8.65,1.63,-4.31,nothing,4
0.94,0.875454712,29,3,3,3,0,-8.75,1.68,-4.27,-0.1,0.05,0.04,1.125,-2.1875,-1.0,0.5079345703125,0.38507080078125,0.75604248046875,-0.1485595703125,26.0,38.1875,77.375,-8.65,1.63,-4.31,nothing,4
0.95,0.875454712,29,3,3,3,0,-8.75,1.69,-4.24,-0.1,0.06,0.06,1.1875,-2.25,-1.0625,0.508056640625,0.38507080078125,0.7559814453125,-0.14874267578125,27.375,37.5,78.5625,-8.65,1.63,-4.31,nothing,4
0.96,0.891651449,29,3,3,3,0,-8.75,1.66,-4.26,-0.1,0.03,0.04,1.375,-2.375,-1.125,0.50811767578125,0.385009765625,0.755859375,-0.14898681640625,27.375,37.5,78.5625,-8.65,1.62,-4.3,nothing,4
0.97,0.891651449,29,3,3,3,0,-8.73,1.65,-4.27,-0.07,0.02,0.03,1.5,-2.4375,-1.25,0.50823974609375,0.38494873046875,0.75579833984375,-0.14923095703125,27.375,37.5,78.5625,-8.66,1.62,-4.3,nothing,4
0.98,0.906438354,29,3,3,3,0,-8.75,1.65,-4.26,-0.09,0.03,0.03,1.6875,-2.625,-1.1875,0.50836181640625,0.3848876953125,0.75567626953125,-0.14947509765625,27.375,37.5,78.5625,-8.66,1.62,-4.3,nothing,4
0.99,0.906438354,29,3,3,3,0,-8.73,1.63,-4.25,-0.06,0.01,0.03,1.875,-2.8125,-1.4375,0.5084228515625,0.3848876953125,0.755615234375,-0.1497802734375,27.375,37.5,78.5625,-8.66,1.61,-4.29,nothing,4
1.0,0.936000773,29,3,3,3,0,-8.74,1.62,-4.28,-0.07,0.01,0.01,1.875,-2.625,-1.1875,0.508544921875,0.38482666015625,0.7554931640625,-0.1500244140625,27.0,37.0625,77.0625,-8.66,1.61,-4.29,nothing,4
1.01,0.936000773,29,3,3,3,0,-8.72,1.62,-4.27,-0.05,0.01,0.01,1.875,-2.5625,-1.375,0.50860595703125,0.384765625,0.75543212890625,-0.1502685546875,27.0,37.0625,77.0625,-8.67,1.61,-4.28,nothing,4
1.02,0.951101603,29,3,3,3,0,-8.73,1.61,-4.27,-0.05,0.0,0.01,1.875,-2.375,-1.375,0.50872802734375,0.384765625,0.75531005859375,-0.15057373046875,27.0,37.0625,77.0625,-8.67,1.6,-4.28,nothing,4
1.03,0.951101603,29,3,3,3,0,-8.75,1.6,-4.27,-0.08,0.0,0.0,1.8125,-2.125,-1.3125,0.5087890625,0.38470458984375,0.7552490234375,-0.15081787109375,27.0,37.0625,77.0625,-8.67,1.6,-4.28,nothing,4
1.04,0.981053019,29,3,3,3,0,-8.75,1.58,-4.24,-0.07,-0.01,0.03,1.9375,-1.9375,-1.3125,0.5087890625,0.38470458984375,0.75518798828125,-0.15106201171875,27.0,37.0625,77.0625,-8.67,1.6,-4.28,nothing,4
1.05,0.981053019,29,3,3,3,0,-8.79,1.58,-4.26,-0.11,-0.01,0.01,2.0,-1.8125,-1.25,0.50885009765625,0.3846435546875,0.755126953125,-0.15130615234375,26.5625,38.1875,77.0625,-8.67,1.59,-4.27,nothing,4
1.06,0.99890918,29,3,3,3,0,-8.77,1.6,-4.27,-0.09,0.01,0.0,1.9375,-1.5625,-1.0625,0.50885009765625,0.3846435546875,0.75506591796875,-0.15155029296875,26.5625,38.1875,77.0625,-8.67,1.59,-4.27,nothing,4
1.07,0.99890918,29,3,3,3,0,-8.79,1.61,-4.25,-0.11,0.01,0.02,1.9375,-1.25,-1.0,0.5089111328125,0.3846435546875,0.7550048828125,-0.15179443359375,26.5625,38.1875,77.0625,-8.68,1.59,-4.27,nothing,4
1.08,1.011765015,29,3,3,3,0,-8.8,1.61,-4.26,-0.12,0.02,0.01,2.0625,-1.4375,-0.875,0.5089111328125,0.38470458984375,0.75494384765625,-0.1519775390625,26.5625,38.1875,77.0625,-8.68,1.58,-4.27,nothing,4
1.09,1.011765015,29,3,3,3,0,-8.8,1.62,-4.25,-0.12,0.03,0.01,2.125,-1.3125,-0.9375,0.5089111328125,0.38470458984375,0.7548828125,-0.1522216796875,26.5625,38.1875,77.0625,-8.68,1.58,-4.27,nothing,4
1.1,1.034316813,29,3,3,3,0,-8.79,1.64,-4.28,-0.1,0.06,-0.01,2.1875,-1.5,-0.6875,0.5089111328125,0.38470458984375,0.75482177734375,-0.1524658203125,27.75,37.5,78.5625,-8.68,1.58,-4.27,nothing,4
1.11,1.034316813,29,3,3,3,0,-8.81,1.64,-4.3,-0.13,0.06,-0.03,2.3125,-1.125,-0.4375,0.5089111328125,0.38482666015625,0.7547607421875,-0.15264892578125,27.75,37.5,78.5625,-8.68,1.58,-4.26,nothing,4
1.12,1.056768433,29,3,3,3,0,-8.8,1.65,-4.31,-0.12,0.07,-0.04,2.5,-0.75,-0.4375,0.5089111328125,0.3848876953125,0.754638671875,-0.15283203125,27.75,37.5,78.5625,-8.68,1.57,-4.26,nothing,4
1.13,1.056768433,29,3,3,3,0,-8.81,1.63,-4.33,-0.13,0.06,-0.06,2.625,-0.5625,-0.4375,0.50885009765625,0.385009765625,0.75457763671875,-0.15301513671875,27.75,37.5,78.5625,-8.68,1.57,-4.26,nothing,4
1.14,1.070842814,29,3,3,3,0,-8.82,1.65,-4.26,-0.13,0.08,0.0,2.4375,-0.4375,-0.5625,0.50872802734375,0.38507080078125,0.75457763671875,-0.1531982421875,27.75,37.5,78.5625,-8.68,1.57,-4.26,nothing,4
1.15,1.070842814,29,3,3,3,0,-8.79,1.63,-4.17,-0.1,0.06,0.09,2.0,-0.25,-0.375,0.5086669921875,0.38519287109375,0.75457763671875,-0.1533203125,27.375,38.1875,76.25,-8.68,1.57,-4.27,nothing,4
1.16,1.085340576,29,3,3,3,0,-8.73,1.65,-4.24,-0.04,0.08,0.02,1.5625,-0.1875,-0.5,0.5086669921875,0.38525390625,0.7545166015625,-0.1534423828125,27.375,38.1875,76.25,-8.68,1.57,-4.27,nothing,4
1.17,1.085340576,29,3,3,3,0,-8.72,1.61,-4.26,-0.03,0.03,0.0,1.5,-0.1875,-0.3125,0.50860595703125,0.38531494140625,0.7545166015625,-0.153564453125,27.375,38.1875,76.25,-8.68,1.57,-4.27,nothing,4
1.18,1.116248413,29,3,3,3,0,-8.68,1.58,-4.27,0.0,0.01,0.0,2.0,0.25,0.1875,0.508544921875,0.3853759765625,0.75445556640625,-0.1536865234375,27.375,38.1875,76.25,-8.68,1.56,-4.27,nothing,4
1.19,1.116248413,29,3,3,3,0,-8.7,1.56,-4.23,-0.01,0.0,0.03,2.625,0.5625,0.5625,0.5084228515625,0.38555908203125,0.75445556640625,-0.15380859375,27.375,38.1875,76.25,-8.68,1.56,-4.27,nothing,4
1.2,1.131327433,29,3,3,3,0,-8.71,1.56,-4.27,-0.03,0.0,0.0,2.8125,0.375,1.125,0.50830078125,0.38580322265625,0.75439453125,-0.1539306640625,27.375,37.5,76.6875,-8.68,1.56,-4.27,nothing,4
1.21,1.131327433,29,3,3,3,0,-8.72,1.58,-4.26,-0.03,0.01,0.0,2.875,-0.1875,1.1875,0.50823974609375,0.385986328125,0.7542724609375,-0.15411376953125,27.375,37.5,76.6875,-8.68,1.56,-4.27,nothing,4
1.22,1.145976563,29,3,3,3,0,-8.73,1.61,-4.24,-0.04,0.04,0.02,2.875,-0.5625,1.5625,0.5081787109375,0.38623046875,0.754150390625,-0.15423583984375,27.375,37.5,76.6875,-8.68,1.56,-4.27,nothing,4
1.23,1.145976563,29,3,3,3,0,-8.74,1.66,-4.25,-0.06,0.09,0.01,2.625,-0.875,1.625,0.5081787109375,0.38641357421875,0.7540283203125,-0.15435791015625,27.375,37.5,76.6875,-8.68,1.56,-4.27,nothing,4
1.24,1.17591801,29,3,3,3,0,-8.71,1.68,-4.28,-0.03,0.11,-0.01,2.125,-1.0625,1.75,0.50823974609375,0.3865966796875,0.75390625,-0.15447998046875,27.375,37.5,76.6875,-8.68,1.56,-4.27,nothing,4
1.25,1.17591801,29,3,3,3,0,-8.69,1.68,-4.29,0.0,0.11,-0.02,1.5,-1.125,1.8125,0.50830078125,0.38677978515625,0.7537841796875,-0.154541015625,27.375,37.75,77.375,-8.68,1.57,-4.27,nothing,4
1.26,1.191019572,29,3,3,3,0,-8.68,1.65,-4.29,0.0,0.08,-0.02,1.0625,-0.75,1.875,0.50830078125,0.386962890625,0.753662109375,-0.154541015625,27.375,37.75,77.375,-8.68,1.57,-4.27,nothing,4
1.27,1.191019572,29,3,3,3,0,-8.74,1.64,-4.3,-0.05,0.06,-0.03,0.8125,-0.5,2.0625,0.50830078125,0.38714599609375,0.7535400390625,-0.15447998046875,27.375,37.75,77.375,-8.68,1.57,-4.27,nothing,4
1.28,1.22101534,29,3,3,3,0,-8.75,1.63,-4.3,-0.07,0.05,-0.03,0.8125,-0.75,1.9375,0.50836181640625,0.38726806640625,0.75347900390625,-0.15447998046875,27.375,37.75,77.375,-8.68,1.57,-4.26,nothing,4
1.29,1.22101534,29,3,3,3,0,-8.78,1.64,-4.35,-0.09,0.06,-0.08,0.8125,-0.375,2.0,0.50836181640625,0.387451171875,0.75335693359375,-0.15447998046875,27.375,37.75,77.375,-8.68,1.58,-4.26,nothing,4
1.3,1.237090698,29,3,3,3,0,-8.78,1.61,-4.34,-0.09,0.03,-0.07,1.125,-0.1875,2.375,0.50836181640625,0.38763427734375,0.7532958984375,-0.1544189453125,27.0,38.1875,76.25,-8.68,1.58,-4.27,nothing,4
1.31,1.237090698,29,3,3,3,0,-8.75,1.61,-4.37,-0.07,0.03,-0.1,1.5,-0.125,2.25,0.50836181640625,0.38787841796875,0.753173828125,-0.1544189453125,27.0,38.1875,76.25,-8.68,1.58,-4.27,nothing,4
1.32,1.251074097,29,3,3,3,0,-8.74,1.62,-4.34,-0.05,0.04,-0.07,1.625,0.0,2.375,0.50830078125,0.38812255859375,0.7530517578125,-0.1544189453125,27.0,38.1875,76.25,-8.68,1.58,-4.27,nothing,4
1.33,1.251074097,29,3,3,3,0,-8.74,1.61,-4.33,-0.06,0.02,-0.06,1.5625,0.375,2.5,0.50830078125,0.38836669921875,0.75299072265625,-0.1544189453125,27.0,38.1875,76.25,-8.68,1.59,-4.27,nothing,4
1.34,1.282439453,29,3,3,3,0,-8.7,1.66,-4.32,-0.02,0.06,-0.04,1.4375,0.5,2.4375,0.50830078125,0.3885498046875,0.75286865234375,-0.1544189453125,27.0,38.1875,76.25,-8.68,1.59,-4.27,nothing,4
1.35,1.282439453,29,3,3,3,0,-8.68,1.69,-4.26,0.0,0.09,0.0,1.3125,0.9375,2.625,0.50823974609375,0.3887939453125,0.7528076171875,-0.15435791015625,27.0,38.5,76.25,-8.68,1.59,-4.27,nothing,4
1.36,1.296051229,29,3,3,3,0,-8.67,1.69,-4.27,0.0,0.09,0.0,1.25,1.0625,2.5625,0.50811767578125,0.3890380859375,0.75274658203125,-0.154296875,27.0,38.5,76.25,-8.67,1.59,-4.27,nothing,4
1.37,1.296051229,29,3,3,3,0,-8.67,1.69,-4.3,0.0,0.08,-0.02,1.375,0.8125,2.625,0.508056640625,0.3892822265625,0.752685546875,-0.15423583984375,27.0,38.5,76.25,-8.67,1.6,-4.27,nothing,4
1.38,1.311771566,29,3,3,3,0,-8.66,1.7,-4.32,0.01,0.09,-0.04,1.875,0.8125,2.75,0.50799560546875,0.38958740234375,0.7525634765625,-0.1541748046875,27.0,38.5,76.25,-8.67,1.6,-4.27,nothing,4
1.39,1.311771566,29,3,3,3,0,-8.65,1.71,-4.32,0.02,0.1,-0.04,2.375,0.5,2.875,0.5079345703125,0.389892578125,0.75244140625,-0.15423583984375,27.0,38.5,76.25,-8.67,1.6,-4.27,nothing,4
1.4,1.325694418,29,3,3,3,0,-8.63,1.7,-4.33,0.04,0.09,-0.04,2.9375,0.1875,2.875,0.50787353515625,0.39019775390625,0.7523193359375,-0.154296875,26.25,38.5,78.25,-8.67,1.61,-4.28,nothing,4
1.41,1.325694418,29,3,3,3,0,-8.64,1.69,-4.33,0.02,0.07,-0.05,3.5625,0.0,3.0625,0.5078125,0.39056396484375,0.75213623046875,-0.1544189453125,26.25,38.5,78.25,-8.67,1.61,-4.28,nothing,4
1.42,1.358235881,29,3,3,3,0,-8.67,1.69,-4.4,0.0,0.08,-0.12,3.9375,-0.5625,3.125,0.50775146484375,0.39093017578125,0.751953125,-0.154541015625,26.25,38.5,78.25,-8.67,1.61,-4.28,nothing,4
1.43,1.358235881,29,3,3,3,0,-8.68,1.69,-4.32,-0.01,0.07,-0.04,4.0625,-0.5,3.5,0.5076904296875,0.391357421875,0.75177001953125,-0.1546630859375,26.25,38.5,78.25,-8.67,1.61,-4.28,nothing,4
1.44,1.371269735,29,3,3,3,0,-8.68,1.65,-4.33,-0.01,0.03,-0.04,4.0625,-0.5,3.5,0.507568359375,0.39178466796875,0.7515869140625,-0.15472412109375,26.25,38.5,78.25,-8.67,1.61,-4.28,nothing,4
1.45,1.371269735,29,3,3,3,0,-8.7,1.66,-4.43,-0.03,0.04,-0.14,4.3125,-0.375,3.6875,0.50750732421875,0.3922119140625,0.75140380859375,-0.15484619140625,27.75,38.1875,76.6875,-8.67,1.62,-4.28,nothing,4
1.46,1.400828654,29,3,3,3,0,-8.71,1.62,-4.39,-0.04,0.0,-0.11,4.75,-0.1875,3.8125,0.50738525390625,0.3927001953125,0.751220703125,-0.155029296875,27.75,38.1875,76.6875,-8.66,1.62,-4.28,nothing,4
1.47,1.400828654,29,3,3,3,0,-8.73,1.64,-4.34,-0.06,0.01,-0.06,4.9375,-0.3125,4.0625,0.50726318359375,0.3931884765625,0.75103759765625,-0.1551513671875,27.75,38.1875,76.6875,-8.66,1.62,-4.28,nothing,4
1.48,1.416654582,29,3,3,3,0,-8.73,1.62,-4.39,-0.06,0.0,-0.1,5.0,-0.875,4.3125,0.5072021484375,0.3936767578125,0.75079345703125,-0.15533447265625,27.75,38.1875,76.6875,-8.66,1.62,-4.28,nothing,4
1.49,1.416654582,29,3,3,3,0,-8.64,1.63,-4.41,0.01,0.0,-0.12,5.25,-0.875,4.3125,0.50714111328125,0.3941650390625,0.75048828125,-0.155517578125,27.75,38.1875,76.6875,-8.66,1.63,-4.28,nothing,4
1.5,1.430910767,29,3,3,3,0,-8.67,1.62,-4.38,-0.01,0.0,-0.09,5.3125,-1.1875,4.6875,0.507080078125,0.39471435546875,0.750244140625,-0.15570068359375,28.0625,38.1875,77.0625,-8.66,1.63,-4.28,nothing,4
1.51,1.430910767,29,3,3,3,0,-8.66,1.63,-4.36,0.0,0.0,-0.07,5.0,-1.6875,4.875,0.507080078125,0.39520263671875,0.7498779296875,-0.15582275390625,28.0625,38.1875,77.0625,-8.66,1.63,-4.28,nothing,4
1.52,1.46172107,29,3,3,3,0,-8.65,1.62,-4.4,0.01,-0.01,-0.12,5.25,-2.4375,4.9375,0.50714111328125,0.395751953125,0.74957275390625,-0.15606689453125,28.0625,38.1875,77.0625,-8.66,1.64,-4.28,nothing,4
1.53,1.46172107,29,3,3,3,0,-8.62,1.61,-4.39,0.04,-0.03,-0.11,5.5,-3.0,5.1875,0.5072021484375,0.39630126953125,0.7491455078125,-0.15631103515625,28.0625,38.1875,77.0625,-8.66,1.64,-4.28,nothing,4
1.54,1.475861125,29,3,3,3,0,-8.6,1.6,-4.35,0.06,-0.04,-0.08,6.3125,-3.1875,5.3125,0.50732421875,0.3968505859375,0.74871826171875,-0.1566162109375,28.0625,38.1875,77.0625,-8.66,1.64,-4.27,nothing,4
1.55,1.475861125,29,3,3,3,0,-8.58,1.57,-4.36,0.08,-0.07,-0.08,7.5,-3.4375,5.5625,0.50732421875,0.39752197265625,0.748291015625,-0.15692138671875,27.75,38.5,77.5,-8.66,1.65,-4.27,nothing,4
1.56,1.491334432,29,3,3,3,0,-8.58,1.57,-4.35,0.08,-0.07,-0.08,8.625,-4.0,6.0625,0.50738525390625,0.39825439453125,0.747802734375,-0.15740966796875,27.75,38.5,77.5,-8.67,1.65,-4.27,nothing,4
1.57,1.491334432,29,3,3,3,0,-8.56,1.6,-4.37,0.1,-0.05,-0.11,9.4375,-5.0,6.25,0.5074462890625,0.39898681640625,0.7471923828125,-0.15789794921875,27.75,38.5,77.5,-8.67,1.65,-4.26,nothing,4
1.58,1.521270549,29,3,3,3,0,-8.54,1.61,-4.36,0.13,-0.04,-0.1,10.25,-6.0,6.5625,0.507568359375,0.39984130859375,0.74658203125,-0.15850830078125,27.75,38.5,77.5,-8.67,1.65,-4.26,nothing,4
1.59,1.521270549,29,3,3,3,0,-8.54,1.6,-4.38,0.13,-0.05,-0.12,10.9375,-6.75,7.125,0.50775146484375,0.40069580078125,0.745849609375,-0.15911865234375,27.75,38.5,77.5,-8.67,1.66,-4.25,nothing,4
1.6,1.53586084,29,3,3,3,0,-8.51,1.64,-4.4,0.16,-0.01,-0.15,12.0625,-7.3125,7.5625,0.5079345703125,0.401611328125,0.7451171875,-0.1597900390625,27.75,38.5,77.0625,-8.68,1.66,-4.24,nothing,4
1.61,1.53586084,29,3,3,3,0,-8.49,1.66,-4.36,0.19,0.0,-0.12,13.3125,-8.0,8.0625,0.508056640625,0.402587890625,0.7442626953125,-0.16058349609375,27.75,38.5,77.0625,-8.68,1.66,-4.23,nothing,4
1.62,1.550821005,29,3,3,3,0,-8.49,1.69,-4.36,0.19,0.02,-0.13,14.5,-8.6875,8.6875,0.50823974609375,0.4036865234375,0.743408203125,-0.1614990234375,27.75,38.5,77.0625,-8.68,1.66,-4.22,nothing,4
1.63,1.550821005,29,3,3,3,0,-8.51,1.7,-4.31,0.18,0.02,-0.09,15.375,-9.5625,9.3125,0.50848388671875,0.40484619140625,0.742431640625,-0.16241455078125,27.75,38.5,77.0625,-8.69,1.67,-4.21,nothing,4
1.64,1.582523356,29,3,3,3,0,-8.47,1.68,-4.31,0.22,0.0,-0.1,16.4375,-10.3125,9.9375,0.5086669921875,0.40606689453125,0.74139404296875,-0.16339111328125,27.75,38.5,77.0625,-8.69,1.67,-4.2,nothing,4
1.65,1.582523356,29,3,3,3,0,-8.5,1.72,-4.3,0.19,0.04,-0.1,17.75,-11.0,10.8125,0.5089111328125,0.40740966796875,0.740234375,-0.1644287109375,28.0625,40.0,76.25,-8.7,1.67,-4.19,nothing,4
1.66,1.595905437,29,3,3,3,0,-8.51,1.76,-4.3,0.19,0.08,-0.11,19.0625,-11.625,11.625,0.50909423828125,0.40887451171875,0.73907470703125,-0.16552734375,28.0625,40.0,76.25,-8.7,1.68,-4.18,nothing,4
1.67,1.595905437,29,3,3,3,0,-8.51,1.8,-4.3,0.19,0.11,-0.13,20.5625,-12.6875,12.8125,0.50933837890625,0.41046142578125,0.73779296875,-0.16668701171875,28.0625,40.0,76.25,-8.71,1.68,-4.17,nothing,4
1.68,1.610558594,29,3,3,3,0,-8.52,1.82,-4.25,0.18,0.12,-0.09,21.9375,-13.4375,13.75,0.50958251953125,0.41217041015625,0.73638916015625,-0.16790771484375,28.0625,40.0,76.25,-8.71,1.69,-4.16,nothing,4
1.69,1.610558594,29,3,3,3,0,-8.53,1.88,-4.26,0.18,0.18,-0.11,23.4375,-14.25,14.75,0.50982666015625,0.41400146484375,0.73486328125,-0.16925048828125,28.0625,40.0,76.25,-8.72,1.7,-4.14,nothing,4
1.7,1.640954672,29,3,3,3,0,-8.55,1.91,-4.26,0.16,0.2,-0.13,25.0625,-15.125,16.0,0.51007080078125,0.41595458984375,0.7332763671875,-0.17059326171875,28.75,40.0,75.5,-8.72,1.7,-4.13,nothing,4
1.71,1.640954672,29,3,3,3,0,-8.57,1.95,-4.23,0.15,0.23,-0.12,26.6875,-15.5,17.0,0.51031494140625,0.4180908203125,0.7315673828125,-0.1719970703125,28.75,40.0,75.5,-8.73,1.71,-4.11,nothing,4
1.72,1.656101237,29,3,3,3,0,-8.54,2.06,-4.2,0.18,0.33,-0.09,28.5,-16.0,18.125,0.51055908203125,0.42034912109375,0.729736328125,-0.1734619140625,28.75,40.0,75.5,-8.73,1.72,-4.1,nothing,4
1.73,1.656101237,29,3,3,3,0,-8.5,2.08,-4.12,0.23,0.35,-0.03,30.4375,-16.125,19.5,0.5107421875,0.42279052734375,0.72784423828125,-0.17498779296875,28.75,40.0,75.5,-8.74,1.73,-4.08,nothing,4
1.74,1.670858399,29,3,3,3,0,-8.51,2.06,-4.11,0.23,0.31,-0.03,32.3125,-16.1875,20.875,0.5108642578125,0.4254150390625,0.725830078125,-0.176513671875,28.75,40.0,75.5,-8.74,1.74,-4.07,nothing,4
1.75,1.670858399,29,3,3,3,0,-8.47,2.05,-4.14,0.27,0.28,-0.08,33.875,-16.3125,22.125,0.510986328125,0.42822265625,0.7237548828125,-0.1781005859375,29.5625,38.875,74.25,-8.74,1.76,-4.06,nothing,4
1.76,1.702041342,29,3,3,3,0,-8.47,2.07,-4.05,0.28,0.3,0.0,35.25,-17.5625,23.125,0.5111083984375,0.4310302734375,0.7215576171875,-0.1798095703125,29.5625,38.875,74.25,-8.75,1.77,-4.04,nothing,4
1.77,1.702041342,29,3,3,3,0,-8.51,2.04,-3.98,0.24,0.25,0.04,36.625,-18.8125,23.6875,0.51129150390625,0.4339599609375,0.71917724609375,-0.181640625,29.5625,38.875,74.25,-8.75,1.78,-4.03,nothing,4
1.78,1.716846843,29,3,3,3,0,-8.55,2.05,-3.87,0.2,0.25,0.14,37.5625,-20.625,24.125,0.5115966796875,0.4368896484375,0.71673583984375,-0.18359375,29.5625,38.875,74.25,-8.76,1.8,-4.01,nothing,4
1.79,1.716846843,29,3,3,3,0,-8.7,2.1,-3.79,0.06,0.29,0.19,38.4375,-22.0625,24.5,0.51190185546875,0.4398193359375,0.71417236328125,-0.18572998046875,29.5625,38.875,74.25,-8.77,1.81,-3.99,nothing,4
1.8,1.731365153,29,3,3,3,0,-8.73,2.17,-3.85,0.04,0.34,0.11,39.25,-23.3125,25.1875,0.51220703125,0.4427490234375,0.7115478515625,-0.18792724609375,30.5625,40.6875,72.6875,-8.78,1.82,-3.96,nothing,4
1.81,1.731365153,29,3,3,3,0,-8.79,2.22,-3.92,0.0,0.38,0.01,40.25,-23.8125,26.0,0.5125732421875,0.44573974609375,0.70880126953125,-0.190185546875,30.5625,40.6875,72.6875,-8.78,1.83,-3.94,nothing,4
1.82,1.761675212,29,3,3,3,0,-8.77,2.27,-4.0,0.02,0.42,-0.08,41.5625,-23.375,26.8125,0.51287841796875,0.448974609375,0.7059326171875,-0.19232177734375,30.5625,40.6875,72.6875,-8.79,1.85,-3.92,nothing,4
1.83,1.761675212,29,3,3,3,0,-8.69,2.4,-3.99,0.1,0.52,-0.09,42.75,-22.3125,27.5625,0.5130615234375,0.45233154296875,0.70306396484375,-0.19439697265625,30.5625,40.6875,72.6875,-8.79,1.87,-3.9,nothing,4
1.84,1.776614136,29,3,3,3,0,-8.69,2.45,-3.98,0.11,0.56,-0.1,43.625,-21.0625,28.375,0.51318359375,0.45587158203125,0.7001953125,-0.19635009765625,30.5625,40.6875,72.6875,-8.8,1.89,-3.88,nothing,4
1.85,1.776614136,29,3,3,3,0,-8.72,2.48,-3.94,0.08,0.57,-0.07,44.25,-19.625,29.125,0.51312255859375,0.45928955078125,0.6973876953125,-0.198486328125,30.5625,40.6875,70.6875,-8.8,1.9,-3.86,nothing,4
1.86,1.791103842,29,3,3,3,0,-8.75,2.52,-3.94,0.04,0.59,-0.08,44.8125,-18.125,29.25,0.512939453125,0.46270751953125,0.69464111328125,-0.20062255859375,30.5625,40.6875,70.6875,-8.8,1.92,-3.85,nothing,4
1.87,1.791103842,29,3,3,3,0,-8.82,2.53,-4.03,-0.01,0.59,-0.19,45.5,-16.5625,29.5,0.51263427734375,0.46624755859375,0.69189453125,-0.2027587890625,30.5625,40.6875,70.6875,-8.81,1.93,-3.84,nothing,4
1.88,1.824549154,29,3,3,3,0,-8.87,2.56,-4.03,-0.06,0.61,-0.19,46.125,-15.875,29.25,0.51220703125,0.4698486328125,0.68914794921875,-0.204833984375,30.5625,40.6875,70.6875,-8.81,1.95,-3.83,nothing,4
1.89,1.824549154,29,3,3,3,0,-8.9,2.57,-4.1,-0.09,0.6,-0.27,47.0,-15.5,28.875,0.51177978515625,0.47357177734375,0.68634033203125,-0.2066650390625,30.5625,40.6875,70.6875,-8.8,1.97,-3.83,nothing,4
1.9,1.836072063,29,3,3,3,0,-8.89,2.59,-4.12,-0.09,0.6,-0.29,48.0,-15.4375,28.6875,0.51123046875,0.47735595703125,0.68353271484375,-0.20855712890625,33.5625,41.6875,68.75,-8.8,1.99,-3.82,nothing,4
1.91,1.836072063,29,3,3,3,0,-8.98,2.68,-4.19,-0.18,0.67,-0.37,49.375,-15.4375,28.4375,0.5106201171875,0.481201171875,0.6806640625,-0.21051025390625,33.5625,41.6875,68.75,-8.8,2.0,-3.82,nothing,4
1.92,1.852571493,29,3,3,3,0,-9.02,2.68,-4.19,-0.22,0.65,-0.37,50.5,-15.9375,28.25,0.510009765625,0.485107421875,0.67779541015625,-0.21258544921875,33.5625,41.6875,68.75,-8.8,2.02,-3.81,nothing,4
1.93,1.852571493,29,3,3,3,0,-9.06,2.69,-4.17,-0.26,0.65,-0.35,51.3125,-16.8125,28.0,0.50933837890625,0.48895263671875,0.6748046875,-0.2147216796875,33.5625,41.6875,68.75,-8.8,2.04,-3.81,nothing,4
1.94,1.882529338,29,3,3,3,0,-9.1,2.67,-4.08,-0.3,0.61,-0.27,51.75,-17.6875,27.375,0.50872802734375,0.49267578125,0.67181396484375,-0.21697998046875,33.5625,41.6875,68.75,-8.8,2.05,-3.8,nothing,4
1.95,1.882529338,29,3,3,3,0,-9.11,2.62,-3.99,-0.31,0.55,-0.19,50.5625,-18.5625,26.625,0.50823974609375,0.49627685546875,0.6688232421875,-0.2193603515625,34.0,42.375,66.375,-8.8,2.06,-3.79,nothing,4
1.96,1.896376058,29,3,3,3,0,-9.14,2.54,-4.01,-0.33,0.46,-0.23,48.9375,-19.375,25.5,0.50775146484375,0.49969482421875,0.66583251953125,-0.2216796875,34.0,42.375,66.375,-8.8,2.08,-3.78,nothing,4
1.97,1.896376058,29,3,3,3,0,-9.1,2.5,-4.11,-0.3,0.41,-0.34,46.8125,-20.375,24.0625,0.50738525390625,0.50286865234375,0.6629638671875,-0.22406005859375,34.0,42.375,66.375,-8.8,2.09,-3.77,nothing,4
1.98,1.911719646,29,3,3,3,0,-9.03,2.31,-4.24,-0.22,0.21,-0.48,44.8125,-20.75,22.625,0.50701904296875,0.505859375,0.66015625,-0.2264404296875,34.0,42.375,66.375,-8.81,2.09,-3.75,nothing,4
1.99,1.911719646,29,3,3,3,0,-8.97,2.18,-4.19,-0.15,0.08,-0.45,43.5625,-19.875,21.125,0.50665283203125,0.50860595703125,0.657470703125,-0.2288818359375,34.0,42.375,66.375,-8.81,2.1,-3.74,nothing,4
2.0,1.942704957,29,3,3,3,0,-8.9,2.03,-4.24,-0.08,-0.06,-0.51,42.75,-18.9375,19.375,0.5062255859375,0.51123046875,0.6549072265625,-0.2313232421875,35.875,44.1875,63.875,-8.82,2.1,-3.73,nothing,4
2.01,1.942704957,29,3,3,3,0,-8.81,1.92,-4.33,0.01,-0.17,-0.61,41.75,-19.0625,17.5,0.50579833984375,0.513671875,0.65240478515625,-0.2337646484375,35.875,44.1875,63.875,-8.82,2.1,-3.71,nothing,4
2.02,1.972164348,29,3,3,3,0,-8.74,1.84,-4.34,0.08,-0.26,-0.64,41.0,-18.5625,15.4375,0.50531005859375,0.5159912109375,0.65008544921875,-0.2362060546875,35.875,44.1875,63.875,-8.83,2.1,-3.7,nothing,4
2.03,1.972164348,29,3,3,3,0,-8.69,1.83,-4.27,0.14,-0.26,-0.58,40.5625,-17.3125,13.0625,0.5047607421875,0.5181884765625,0.64788818359375,-0.23870849609375,35.875,44.1875,63.875,-8.83,2.09,-3.69,nothing,4
2.04,1.978268799,29,3,3,3,0,-8.66,1.82,-4.18,0.17,-0.26,-0.5,39.25,-16.75,10.8125,0.504150390625,0.52020263671875,0.64581298828125,-0.2412109375,35.875,44.1875,63.875,-8.84,2.08,-3.68,nothing,4
2.05,1.978268799,29,3,3,3,0,-8.58,1.82,-4.18,0.26,-0.25,-0.51,36.75,-16.3125,8.125,0.5035400390625,0.52191162109375,0.64398193359375,-0.24365234375,36.5625,43.5,61.5,-8.85,2.07,-3.66,nothing,4
2.06,2.002847535,29,3,3,3,0,-8.48,1.88,-4.2,0.37,-0.18,-0.54,33.8125,-16.0625,5.9375,0.5030517578125,0.52337646484375,0.64227294921875,-0.24603271484375,36.5625,43.5,61.5,-8.86,2.06,-3.65,nothing,4
2.07,2.002847535,29,3,3,3,0,-8.44,1.9,-4.16,0.42,-0.14,-0.51,31.375,-15.6875,3.875,0.5025634765625,0.524658203125,0.64068603515625,-0.248291015625,36.5625,43.5,61.5,-8.87,2.05,-3.64,nothing,4
2.08,2.016496583,29,3,3,3,0,-8.4,1.93,-4.13,0.47,-0.1,-0.5,29.1875,-15.5,2.1875,0.50213623046875,0.5257568359375,0.6392822265625,-0.25054931640625,36.5625,43.5,61.5,-8.87,2.03,-3.63,nothing,4
2.09,2.016496583,29,3,3,3,0,-8.41,1.97,-4.04,0.46,-0.04,-0.42,26.5625,-15.5625,0.625,0.50177001953125,0.526611328125,0.63800048828125,-0.252685546875,36.5625,43.5,61.5,-8.88,2.02,-3.61,nothing,4
2.1,2.031847006,29,3,3,3,0,-8.39,2.09,-3.99,0.5,0.09,-0.38,24.0,-15.25,-0.875,0.50152587890625,0.52728271484375,0.6368408203125,-0.2547607421875,36.875,44.875,59.375,-8.89,2.0,-3.6,nothing,4
2.11,2.031847006,29,3,3,3,0,-8.39,2.17,-3.96,0.5,0.18,-0.36,21.6875,-14.5,-2.0625,0.5009765625,0.52801513671875,0.635986328125,-0.25640869140625,36.875,44.875,59.375,-8.9,1.98,-3.59,nothing,4
2.12,2.062028768,29,3,3,3,0,-8.43,2.25,-3.93,0.47,0.27,-0.35,19.6875,-13.375,-3.1875,0.500732421875,0.52838134765625,0.63507080078125,-0.25830078125,36.875,44.875,59.375,-8.91,1.97,-3.58,nothing,4
2.13,2.062028768,29,3,3,3,0,-8.61,2.37,-3.8,0.31,0.41,-0.24,17.8125,-12.4375,-4.375,0.50048828125,0.5286865234375,0.63433837890625,-0.260009765625,36.875,44.875,59.375,-8.92,1.95,-3.56,nothing,4
2.14,2.076856934,29,3,3,3,0,-8.68,2.38,-3.77,0.24,0.44,-0.22,15.875,-11.0,-5.125,0.500244140625,0.52880859375,0.63372802734375,-0.2615966796875,36.875,44.875,59.375,-8.93,1.93,-3.55,nothing,4
2.15,2.076856934,29,3,3,3,0,-8.81,2.41,-3.8,0.12,0.5,-0.26,13.4375,-9.3125,-6.125,0.5,0.52886962890625,0.63330078125,-0.2630615234375,37.6875,44.875,58.1875,-8.93,1.91,-3.54,nothing,4
2.16,2.091141277,29,3,3,3,0,-8.93,2.43,-3.85,0.01,0.53,-0.31,10.8125,-8.0625,-7.0,0.49981689453125,0.52880859375,0.633056640625,-0.26434326171875,37.6875,44.875,58.1875,-8.94,1.9,-3.53,nothing,4
2.17,2.091141277,29,3,3,3,0,-8.97,2.44,-3.99,-0.02,0.56,-0.46,8.375,-6.9375,-8.125,0.49957275390625,0.528564453125,0.6329345703125,-0.26544189453125,37.6875,44.875,58.1875,-8.95,1.88,-3.52,nothing,4
2.18,2.121013672,29,3,3,3,0,-9.02,2.45,-4.09,-0.06,0.58,-0.56,6.375,-6.0625,-9.0,0.4993896484375,0.5281982421875,0.6329345703125,-0.2664794921875,37.6875,44.875,58.1875,-8.96,1.86,-3.52,nothing,4
2.19,2.121013672,29,3,3,3,0,-9.03,2.42,-4.15,-0.06,0.57,-0.63,4.6875,-4.75,-10.125,0.49920654296875,0.5277099609375,0.633056640625,-0.26739501953125,37.6875,44.875,58.1875,-8.96,1.84,-3.51,nothing,4
2.2,2.135761028,29,3,3,3,0,-9.0,2.41,-4.19,-0.03,0.58,-0.68,3.1875,-3.125,-10.8125,0.49896240234375,0.5272216796875,0.63336181640625,-0.2681884765625,37.375,45.5625,57.1875,-8.97,1.82,-3.51,nothing,4
2.21,2.135761028,29,3,3,3,0,-8.86,2.29,-4.12,0.11,0.49,-0.61,1.8125,-1.375,-11.6875,0.49871826171875,0.526611328125,0.6337890625,-0.26885986328125,37.375,45.5625,57.1875,-8.97,1.8,-3.51,nothing,4
2.22,2.1536521,29,3,3,3,0,-8.77,2.24,-4.03,0.2,0.45,-0.52,-0.125,0.6875,-12.4375,0.49835205078125,0.52593994140625,0.6343994140625,-0.26934814453125,37.375,45.5625,57.1875,-8.97,1.78,-3.51,nothing,4
2.23,2.1536521,29,3,3,3,0,-8.66,2.19,-3.92,0.3,0.41,-0.4,-2.5625,2.75,-13.3125,0.497802734375,0.52569580078125,0.63525390625,-0.2689208984375,37.375,45.5625,57.1875,-8.97,1.78,-3.52,nothing,4
2.24,2.181086915,29,3,3,3,0,-8.61,2.11,-3.77,0.36,0.35,-0.23,-4.75,5.4375,-14.0625,0.49737548828125,0.52484130859375,0.63623046875,-0.26904296875,37.375,45.5625,57.1875,-8.97,1.76,-3.53,nothing,4
2.25,2.181086915,29,3,3,3,0,-8.68,1.93,-3.56,0.28,0.19,-0.01,-6.6875,8.0,-15.0625,0.49688720703125,0.52386474609375,0.637451171875,-0.2689208984375,37.75,45.5625,57.1875,-8.97,1.74,-3.54,nothing,4
2.26,2.195758301,29,3,3,3,0,-8.73,1.87,-3.51,0.24,0.15,0.04,-9.0,9.8125,-16.5,0.496337890625,0.5228271484375,0.63885498046875,-0.2686767578125,37.75,45.5625,57.1875,-8.97,1.72,-3.55,nothing,4
2.27,2.195758301,29,3,3,3,0,-8.73,1.76,-3.48,0.23,0.06,0.08,-10.875,10.5,-17.875,0.495849609375,0.5216064453125,0.640380859375,-0.26837158203125,37.75,45.5625,57.1875,-8.97,1.7,-3.57,nothing,4
2.28,2.211245362,29,3,3,3,0,-8.73,1.62,-3.56,0.23,-0.05,0.01,-12.6875,10.25,-19.1875,0.49542236328125,0.52020263671875,0.6419677734375,-0.26800537109375,37.75,45.5625,57.1875,-8.97,1.68,-3.58,nothing,4
2.29,2.211245362,29,3,3,3,0,-8.77,1.56,-3.54,0.19,-0.09,0.05,-14.375,10.5,-20.375,0.4949951171875,0.51873779296875,0.6436767578125,-0.267578125,37.75,45.5625,57.1875,-8.97,1.65,-3.59,nothing,4
2.3,2.241424195,29,3,3,3,0,-8.89,1.51,-3.43,0.07,-0.11,0.17,-15.125,11.625,-21.25,0.4945068359375,0.51715087890625,0.6455078125,-0.26708984375,36.6875,46.0,57.0625,-8.96,1.63,-3.61,nothing,4
2.31,2.241424195,29,3,3,3,0,-9.16,1.51,-3.31,-0.19,-0.09,0.3,-15.4375,12.5625,-21.75,0.49395751953125,0.51556396484375,0.64739990234375,-0.2666015625,36.6875,46.0,57.0625,-8.96,1.6,-3.62,nothing,4
2.32,2.256385784,29,3,3,3,0,-9.72,1.52,-3.34,-0.76,-0.06,0.29,-16.1875,12.3125,-22.3125,0.49346923828125,0.51385498046875,0.6492919921875,-0.26605224609375,36.6875,46.0,57.0625,-8.96,1.58,-3.64,nothing,4
2.33,2.256385784,29,3,3,3,0,-9.73,1.56,-3.69,-0.76,0.0,-0.04,-18.625,10.3125,-23.1875,0.49322509765625,0.51202392578125,0.6512451171875,-0.26556396484375,36.6875,46.0,57.0625,-8.96,1.56,-3.65,nothing,4
2.34,2.271056804,29,3,3,3,0,-9.61,1.56,-4.1,-0.64,0.02,-0.44,-21.625,8.0625,-23.75,0.4931640625,0.50994873046875,0.65313720703125,-0.26495361328125,36.6875,46.0,57.0625,-8.96,1.53,-3.65,nothing,4
2.35,2.271056804,29,3,3,3,0,-9.62,1.55,-4.44,-0.65,0.03,-0.77,-23.0625,7.375,-23.125,0.49322509765625,0.5078125,0.655029296875,-0.2642822265625,36.25,47.0625,59.0,-8.96,1.51,-3.66,nothing,4
2.36,2.302131552,29,3,3,3,0,-9.72,1.61,-4.26,-0.75,0.11,-0.58,-22.8125,9.5625,-22.0,0.4931640625,0.50579833984375,0.65692138671875,-0.26348876953125,36.25,47.0625,59.0,-8.96,1.49,-3.67,nothing,4
2.37,2.302131552,29,3,3,3,0,-9.74,1.6,-3.97,-0.77,0.12,-0.28,-22.5,13.75,-21.0625,0.49285888671875,0.50390625,0.65899658203125,-0.26251220703125,36.25,47.0625,59.0,-8.96,1.47,-3.69,nothing,4
2.38,2.315597169,29,3,3,3,0,-9.84,1.56,-3.66,-0.88,0.09,0.04,-23.9375,17.6875,-20.1875,0.492431640625,0.50213623046875,0.6611328125,-0.26123046875,36.25,47.0625,59.0,-8.95,1.46,-3.71,nothing,4
2.39,2.315597169,29,3,3,3,0,-10.02,1.55,-3.45,-1.07,0.1,0.28,-25.75,19.625,-19.5,0.49200439453125,0.5003662109375,0.6634521484375,-0.25970458984375,36.25,47.0625,59.0,-8.95,1.44,-3.73,nothing,4
2.4,2.330207317,29,3,3,3,0,-10.29,1.52,-3.58,-1.35,0.08,0.17,-27.4375,19.4375,-19.5,0.4915771484375,0.49847412109375,0.665771484375,-0.258056640625,35.1875,47.25,61.1875,-8.94,1.43,-3.76,nothing,4
2.41,2.330207317,29,3,3,3,0,-10.21,1.4,-3.93,-1.27,-0.02,-0.15,-28.9375,17.0625,-19.875,0.49139404296875,0.4964599609375,0.66802978515625,-0.2564697265625,35.1875,47.25,61.1875,-8.93,1.42,-3.77,nothing,4
2.42,2.361316488,29,3,3,3,0,-10.06,1.31,-4.29,-1.13,-0.09,-0.5,-29.4375,14.25,-20.25,0.49139404296875,0.494384765625,0.670166015625,-0.2550048828125,35.1875,47.25,61.1875,-8.93,1.41,-3.79,nothing,4
2.43,2.361316488,29,3,3,3,0,-9.87,1.25,-4.47,-0.94,-0.14,-0.66,-28.5625,13.1875,-20.25,0.49139404296875,0.49224853515625,0.6722412109375,-0.25360107421875,35.1875,47.25,61.1875,-8.92,1.4,-3.8,nothing,4
2.44,2.375982911,29,3,3,3,0,-9.58,1.11,-4.25,-0.66,-0.27,-0.42,-26.6875,14.375,-19.5,0.49127197265625,0.49029541015625,0.67425537109375,-0.25225830078125,35.1875,47.25,61.1875,-8.92,1.38,-3.82,nothing,4
2.45,2.375982911,29,3,3,3,0,-9.43,1.06,-3.99,-0.51,-0.3,-0.15,-25.3125,16.375,-19.3125,0.490966796875,0.4884033203125,0.67633056640625,-0.25091552734375,33.375,47.25,62.0,-8.91,1.37,-3.84,nothing,4
2.46,2.39142033,29,3,3,3,0,-9.27,1.02,-3.84,-0.36,-0.33,0.01,-25.3125,18.0625,-19.4375,0.49053955078125,0.486572265625,0.67852783203125,-0.24945068359375,33.375,47.25,62.0,-8.9,1.36,-3.86,nothing,4
2.47,2.39142033,29,3,3,3,0,-8.87,0.89,-3.68,0.02,-0.45,0.2,-26.125,19.1875,-19.8125,0.49005126953125,0.48468017578125,0.68072509765625,-0.2479248046875,33.375,47.25,62.0,-8.9,1.34,-3.89,nothing,4
2.48,2.421613282,29,3,3,3,0,-8.7,0.82,-3.64,0.18,-0.51,0.27,-27.3125,19.8125,-20.125,0.4896240234375,0.4827880859375,0.68304443359375,-0.246337890625,33.375,47.25,62.0,-8.89,1.33,-3.91,nothing,4
2.49,2.421613282,29,3,3,3,0,-8.49,0.76,-3.58,0.38,-0.55,0.35,-28.6875,20.1875,-20.25,0.48919677734375,0.48077392578125,0.68536376953125,-0.24462890625,33.375,47.25,62.0,-8.88,1.32,-3.93,nothing,4
2.5,2.435450277,29,3,3,3,0,-8.31,0.72,-3.58,0.55,-0.58,0.38,-30.0,20.375,-20.375,0.48876953125,0.47869873046875,0.687744140625,-0.24285888671875,33.375,47.0,63.5625,-8.87,1.31,-3.96,nothing,4
2.51,2.435450277,29,3,3,3,0,-8.09,0.71,-3.43,0.76,-0.58,0.54,-31.125,19.875,-20.375,0.48846435546875,0.4765625,0.6900634765625,-0.24102783203125,33.375,47.0,63.5625,-8.86,1.3,-3.98,nothing,4
2.52,2.452873088,29,3,3,3,0,-8.04,0.66,-3.34,0.81,-0.62,0.66,-32.0625,18.75,-20.0,0.48822021484375,0.47442626953125,0.6923828125,-0.2391357421875,33.375,47.0,63.5625,-8.85,1.29,-4.01,nothing,4
2.53,2.452873088,29,3,3,3,0,-8.05,0.7,-3.26,0.79,-0.58,0.76,-33.125,16.6875,-19.5625,0.4881591796875,0.47216796875,0.694580078125,-0.23724365234375,33.375,47.0,63.5625,-8.84,1.28,-4.02,nothing,4
2.54,2.481848959,29,3,3,3,0,-8.08,0.74,-3.23,0.75,-0.53,0.8,-34.125,13.875,-19.0625,0.48834228515625,0.4698486328125,0.6966552734375,-0.23541259765625,33.375,47.0,63.5625,-8.84,1.28,-4.04,nothing,4
2.55,2.481848959,29,3,3,3,0,-8.25,0.7,-3.34,0.58,-0.57,0.7,-34.9375,10.6875,-18.4375,0.48870849609375,0.4674072265625,0.6986083984375,-0.233642578125,33.0,46.1875,64.375,-8.83,1.27,-4.05,nothing,4
2.56,2.495971843,29,3,3,3,0,-8.37,0.65,-3.39,0.46,-0.62,0.66,-35.625,7.25,-18.125,0.4893798828125,0.4649658203125,0.70037841796875,-0.23193359375,33.0,46.1875,64.375,-8.83,1.27,-4.05,nothing,4
2.57,2.495971843,29,3,3,3,0,-8.52,0.67,-3.44,0.31,-0.59,0.6,-36.1875,4.5625,-17.5625,0.49029541015625,0.4620361328125,0.7020263671875,-0.23089599609375,33.0,46.1875,64.375,-8.84,1.26,-4.04,nothing,4
2.58,2.511556194,29,3,3,3,0,-8.65,0.61,-3.43,0.18,-0.64,0.6,-36.5625,2.75,-17.3125,0.49127197265625,0.45947265625,0.70355224609375,-0.229248046875,33.0,46.1875,64.375,-8.84,1.26,-4.04,nothing,4
2.59,2.511556194,29,3,3,3,0,-8.94,0.5,-3.44,-0.09,-0.75,0.58,-37.0625,1.75,-17.0625,0.49224853515625,0.45684814453125,0.705078125,-0.2276611328125,33.0,46.1875,64.375,-8.84,1.26,-4.03,nothing,4
2.6,2.540808106,29,3,3,3,0,-9.07,0.47,-3.44,-0.22,-0.79,0.58,-37.875,0.75,-17.0625,0.493408203125,0.4542236328125,0.70654296875,-0.22601318359375,31.5625,45.875,68.0,-8.85,1.26,-4.02,nothing,4
2.61,2.540808106,29,3,3,3,0,-9.12,0.39,-3.48,-0.26,-0.86,0.53,-38.75,0.1875,-17.25,0.49456787109375,0.45147705078125,0.70794677734375,-0.224365234375,31.5625,45.875,68.0,-8.85,1.26,-4.02,nothing,4
2.62,2.555577638,29,3,3,3,0,-9.31,0.27,-3.64,-0.45,-0.98,0.37,-39.375,-0.0625,-17.625,0.49578857421875,0.44866943359375,0.70941162109375,-0.22271728515625,31.5625,45.875,68.0,-8.85,1.26,-4.01,nothing,4
2.63,2.555577638,29,3,3,3,0,-9.32,0.24,-3.71,-0.46,-1.02,0.28,-39.1875,0.0,-18.5,0.4969482421875,0.44580078125,0.7109375,-0.2210693359375,31.5625,45.875,68.0,-8.86,1.26,-4.0,nothing,4
2.64,2.570392253,29,3,3,3,0,-9.38,0.2,-3.76,-0.51,-1.05,0.23,-38.25,0.5,-19.4375,0.498046875,0.44293212890625,0.71240234375,-0.21954345703125,31.5625,45.875,68.0,-8.86,1.25,-3.99,nothing,4
2.65,2.570392253,29,3,3,3,0,-9.39,0.17,-3.76,-0.52,-1.07,0.22,-36.9375,1.3125,-20.75,0.4990234375,0.4400634765625,0.7139892578125,-0.2181396484375,31.5625,45.1875,70.0,-8.87,1.25,-3.98,nothing,4
2.66,2.603211996,29,3,3,3,0,-9.42,0.17,-3.83,-0.55,-1.06,0.15,-35.125,1.75,-21.9375,0.49981689453125,0.43719482421875,0.715576171875,-0.216796875,31.5625,45.1875,70.0,-8.87,1.24,-3.98,nothing,4
2.67,2.603211996,29,3,3,3,0,-9.43,0.24,-3.83,-0.56,-0.98,0.14,-33.4375,1.875,-23.0,0.50054931640625,0.434326171875,0.7171630859375,-0.2156982421875,31.5625,45.1875,70.0,-8.87,1.23,-3.98,nothing,4
2.68,2.616238038,29,3,3,3,0,-9.48,0.3,-3.87,-0.59,-0.87,0.09,-31.875,1.5,-23.875,0.50103759765625,0.4306640625,0.71893310546875,-0.21600341796875,31.5625,45.1875,70.0,-8.88,1.18,-3.96,nothing,4
2.69,2.616238038,29,3,3,3,0,-9.5,0.4,-3.89,-0.6,-0.73,0.05,-30.875,1.25,-24.3125,0.50152587890625,0.42706298828125,0.72064208984375,-0.21612548828125,31.5625,45.1875,70.0,-8.89,1.14,-3.95,nothing,4
2.7,2.630852581,29,3,3,3,0,-9.54,0.56,-3.93,-0.63,-0.55,0.01,-30.0625,1.125,-24.5625,0.5020751953125,0.4237060546875,0.7222900390625,-0.216064453125,31.1875,44.75,70.75,-8.9,1.11,-3.94,nothing,4
2.71,2.630852581,29,3,3,3,0,-9.54,0.65,-3.95,-0.63,-0.43,-0.01,-29.5625,1.125,-24.375,0.50262451171875,0.4208984375,0.72381591796875,-0.21527099609375,31.1875,44.75,70.75,-8.91,1.09,-3.94,nothing,4
2.72,2.661987957,29,3,3,3,0,-9.54,0.72,-3.95,-0.63,-0.34,-0.01,-29.875,1.25,-24.0625,0.503173828125,0.4180908203125,0.72528076171875,-0.21435546875,31.1875,44.75,70.75,-8.91,1.07,-3.93,nothing,4
2.73,2.661987957,29,3,3,3,0,-9.54,0.78,-3.92,-0.62,-0.27,0.0,-30.75,1.25,-23.6875,0.5037841796875,0.415283203125,0.726806640625,-0.21343994140625,31.1875,44.75,70.75,-8.91,1.06,-3.93,nothing,4
2.74,2.676009075,29,3,3,3,0,-9.48,0.79,-3.94,-0.55,-0.24,-0.01,-31.25,1.1875,-23.1875,0.50439453125,0.41241455078125,0.728271484375,-0.21240234375,31.1875,44.75,70.75,-8.92,1.04,-3.93,nothing,4
2.75,2.676009075,29,3,3,3,0,-9.37,0.83,-3.96,-0.44,-0.19,-0.03,-31.4375,1.6875,-22.5,0.5050048828125,0.40960693359375,0.729736328125,-0.21136474609375,30.5,44.0,70.6875,-8.92,1.03,-3.92,nothing,4
2.76,2.691624879,29,3,3,3,0,-9.25,0.79,-3.9,-0.32,-0.22,0.01,-31.625,2.625,-21.8125,0.50555419921875,0.40692138671875,0.731201171875,-0.210205078125,30.5,44.0,70.6875,-8.92,1.01,-3.92,nothing,4
2.77,2.691624879,29,3,3,3,0,-9.14,0.75,-3.78,-0.21,-0.25,0.13,-30.75,4.25,-21.1875,0.5059814453125,0.40423583984375,0.73272705078125,-0.20904541015625,30.5,44.0,70.6875,-8.92,1.0,-3.92,nothing,4
2.78,2.720780966,29,3,3,3,0,-8.98,0.68,-3.63,-0.05,-0.3,0.29,-29.0,4.9375,-20.625,0.50628662109375,0.4017333984375,0.73419189453125,-0.20794677734375,30.5,44.0,70.6875,-8.92,0.99,-3.93,nothing,4
2.79,2.720780966,29,3,3,3,0,-8.94,0.66,-3.49,-0.01,-0.31,0.43,-27.1875,4.875,-20.0625,0.506591796875,0.39935302734375,0.735595703125,-0.2069091796875,30.5,44.0,70.6875,-8.92,0.98,-3.93,nothing,4
2.8,2.736561728,29,3,3,3,0,-8.92,0.64,-3.37,0.0,-0.32,0.56,-25.5,5.0,-19.5625,0.50677490234375,0.39703369140625,0.7369384765625,-0.20599365234375,28.6875,43.6875,72.25,-8.92,0.96,-3.93,nothing,4
2.81,2.736561728,29,3,3,3,0,-8.88,0.65,-3.3,0.04,-0.3,0.63,-24.0,4.8125,-19.0625,0.5069580078125,0.39483642578125,0.73828125,-0.20513916015625,28.6875,43.6875,72.25,-8.92,0.95,-3.94,nothing,4
2.82,2.751212851,29,3,3,3,0,-8.86,0.63,-3.32,0.06,-0.3,0.61,-23.25,3.875,-18.625,0.5072021484375,0.39263916015625,0.739501953125,-0.204345703125,28.6875,43.6875,72.25,-8.92,0.94,-3.94,nothing,4
2.83,2.751212851,29,3,3,3,0,-8.86,0.61,-3.35,0.06,-0.31,0.59,-22.0625,3.0,-17.875,0.50738525390625,0.39056396484375,0.74066162109375,-0.20361328125,28.6875,43.6875,72.25,-8.93,0.92,-3.94,nothing,4
2.84,2.783316611,29,3,3,3,0,-8.84,0.53,-3.31,0.08,-0.37,0.63,-20.9375,2.75,-17.25,0.50762939453125,0.3885498046875,0.74169921875,-0.20294189453125,28.6875,43.6875,72.25,-8.93,0.91,-3.94,nothing,4
2.85,2.783316611,29,3,3,3,0,-8.96,0.48,-3.16,-0.02,-0.41,0.77,-19.1875,2.5625,-16.1875,0.5078125,0.38671875,0.74273681640625,-0.20233154296875,29.0,43.0,73.0625,-8.93,0.9,-3.94,nothing,4
2.86,2.797107708,29,3,3,3,0,-9.01,0.46,-3.09,-0.07,-0.41,0.83,-17.625,2.25,-15.375,0.508544921875,0.384521484375,0.74334716796875,-0.20245361328125,29.0,43.0,73.0625,-8.94,0.88,-3.93,nothing,4
2.87,2.797107708,29,3,3,3,0,-9.06,0.42,-3.07,-0.11,-0.43,0.83,-15.75,2.125,-14.375,0.50921630859375,0.38238525390625,0.743896484375,-0.20269775390625,29.0,43.0,73.0625,-8.95,0.86,-3.91,nothing,4
2.88,2.812436524,29,3,3,3,0,-9.11,0.39,-3.09,-0.15,-0.44,0.8,-13.375,2.5625,-13.3125,0.5098876953125,0.38043212890625,0.74432373046875,-0.203125,29.0,43.0,73.0625,-8.95,0.83,-3.89,nothing,4
2.89,2.812436524,29,3,3,3,0,-9.27,0.34,-3.11,-0.3,-0.47,0.76,-10.6875,2.75,-12.0,0.510498046875,0.378662109375,0.74462890625,-0.20367431640625,29.0,43.0,73.0625,-8.96,0.81,-3.88,nothing,4
2.9,2.841590374,29,3,3,3,0,-9.32,0.29,-3.15,-0.36,-0.5,0.72,-8.0,3.0625,-10.6875,0.5103759765625,0.37762451171875,0.74530029296875,-0.20355224609375,27.1875,42.5625,74.25,-8.96,0.8,-3.88,nothing,4
2.91,2.841590374,29,3,3,3,0,-9.32,0.27,-3.26,-0.35,-0.51,0.62,-5.4375,2.9375,-9.4375,0.51019287109375,0.3768310546875,0.745849609375,-0.20355224609375,27.1875,42.5625,74.25,-8.96,0.79,-3.88,nothing,4
2.92,2.857031943,29,3,3,3,0,-9.35,0.25,-3.38,-0.38,-0.52,0.51,-3.375,3.375,-8.125,0.50994873046875,0.376220703125,0.74627685546875,-0.20355224609375,27.1875,42.5625,74.25,-8.96,0.78,-3.89,nothing,4
2.93,2.857031943,29,3,3,3,0,-9.43,0.25,-3.52,-0.47,-0.51,0.37,-1.3125,3.875,-7.0,0.5096435546875,0.375732421875,0.7467041015625,-0.20367431640625,27.1875,42.5625,74.25,-8.96,0.77,-3.89,nothing,4
2.94,2.871249146,29,3,3,3,0,-9.42,0.3,-3.59,-0.46,-0.45,0.31,0.5,4.375,-5.625,0.50921630859375,0.37542724609375,0.74713134765625,-0.20379638671875,27.1875,42.5625,74.25,-8.96,0.76,-3.9,nothing,4
2.95,2.871249146,29,3,3,3,0,-9.47,0.33,-3.65,-0.51,-0.41,0.25,1.8125,5.0,-3.9375,0.5087890625,0.3753662109375,0.7474365234375,-0.2039794921875,28.25,41.5,74.25,-8.96,0.75,-3.91,nothing,4
2.96,2.901255047,29,3,3,3,0,-9.42,0.37,-3.87,-0.47,-0.37,0.05,2.625,5.125,-2.625,0.50830078125,0.3753662109375,0.7476806640625,-0.2041015625,28.25,41.5,74.25,-8.95,0.74,-3.92,nothing,4
2.97,2.901255047,29,3,3,3,0,-9.42,0.36,-3.94,-0.47,-0.38,-0.01,2.75,5.25,-1.1875,0.50787353515625,0.37548828125,0.7479248046875,-0.20416259765625,28.25,41.5,74.25,-8.95,0.74,-3.93,nothing,4
2.98,2.917489015,29,3,3,3,0,-9.37,0.36,-3.89,-0.42,-0.38,0.03,2.8125,5.375,0.0,0.5074462890625,0.375732421875,0.74810791015625,-0.2042236328125,28.25,41.5,74.25,-8.95,0.74,-3.93,nothing,4
2.99,2.917489015,29,3,3,3,0,-9.34,0.36,-3.87,-0.39,-0.38,0.07,2.6875,6.0625,0.6875,0.5069580078125,0.3759765625,0.748291015625,-0.20416259765625,28.25,41.5,74.25,-8.94,0.74,-3.94,nothing,4
3.0,2.932943727,29,3,3,3,0,-9.3,0.41,-3.83,-0.36,-0.32,0.12,2.375,6.625,1.4375,0.5064697265625,0.37628173828125,0.74847412109375,-0.20404052734375,27.25,43.0,74.1875,-8.94,0.74,-3.95,nothing,4
3.01,2.932943727,29,3,3,3,0,-9.26,0.4,-3.76,-0.33,-0.33,0.2,1.1875,7.25,2.125,0.5059814453125,0.3765869140625,0.74871826171875,-0.20379638671875,27.25,43.0,74.1875,-8.93,0.74,-3.97,nothing,4
3.02,2.962050335,29,3,3,3,0,-9.19,0.44,-3.73,-0.25,-0.3,0.24,-0.3125,7.9375,2.9375,0.505615234375,0.37677001953125,0.74896240234375,-0.20367431640625,27.25,43.0,74.1875,-8.93,0.74,-3.97,nothing,4
3.03,2.962050335,29,3,3,3,0,-9.13,0.47,-3.81,-0.21,-0.27,0.17,-2.125,8.625,3.8125,0.5052490234375,0.37689208984375,0.74920654296875,-0.20330810546875,27.25,43.0,74.1875,-8.92,0.74,-3.98,nothing,4
3.04,2.975885703,29,3,3,3,0,-9.07,0.63,-3.8,-0.15,-0.12,0.19,-3.5,9.6875,4.75,0.5048828125,0.37713623046875,0.74951171875,-0.20269775390625,27.25,43.0,74.1875,-8.92,0.75,-4.0,nothing,4
3.05,2.975885703,29,3,3,3,0,-9.0,0.69,-3.71,-0.08,-0.07,0.3,-4.75,10.0,5.375,0.50457763671875,0.37738037109375,0.74981689453125,-0.20196533203125,27.6875,42.1875,74.1875,-8.91,0.76,-4.01,nothing,4
3.06,2.991931804,29,3,3,3,0,-8.92,0.71,-3.67,-0.01,-0.06,0.34,-6.375,9.875,6.1875,0.50439453125,0.3775634765625,0.75006103515625,-0.2010498046875,27.6875,42.1875,74.1875,-8.9,0.77,-4.02,nothing,4
3.07,2.991931804,29,3,3,3,0,-8.88,0.78,-3.68,0.01,-0.01,0.34,-7.8125,10.0,6.8125,0.50408935546875,0.37786865234375,0.75042724609375,-0.199951171875,27.6875,42.1875,74.1875,-8.9,0.79,-4.03,nothing,4
3.08,3.0217063,29,3,3,3,0,-8.8,0.82,-3.71,0.09,0.0,0.33,-8.4375,10.25,7.5625,0.50384521484375,0.378173828125,0.750732421875,-0.19873046875,27.6875,42.1875,74.1875,-8.89,0.81,-4.05,nothing,4
3.09,3.0217063,29,3,3,3,0,-8.76,0.83,-3.71,0.11,0.0,0.35,-8.5625,10.25,8.0625,0.50360107421875,0.37847900390625,0.7510986328125,-0.197509765625,27.6875,42.1875,74.1875,-8.88,0.82,-4.06,nothing,4
3.1,3.03669275,29,3,3,3,0,-8.7,0.82,-3.68,0.16,-0.02,0.39,-8.6875,9.875,8.5625,0.50341796875,0.3787841796875,0.75140380859375,-0.19622802734375,27.25,42.0625,74.5,-8.87,0.84,-4.08,nothing,4
3.11,3.03669275,29,3,3,3,0,-8.7,0.82,-3.66,0.16,-0.04,0.42,-8.875,9.625,8.8125,0.50323486328125,0.379150390625,0.75164794921875,-0.1949462890625,27.25,42.0625,74.5,-8.86,0.86,-4.09,nothing,4
3.12,3.05142269,29,3,3,3,0,-8.75,0.76,-3.75,0.1,-0.12,0.34,-8.75,8.8125,9.0,0.50323486328125,0.37945556640625,0.7518310546875,-0.19378662109375,27.25,42.0625,74.5,-8.86,0.88,-4.1,nothing,4
3.13,3.05142269,29,3,3,3,0,-8.79,0.72,-3.8,0.05,-0.17,0.3,-8.4375,8.3125,8.8125,0.503173828125,0.37969970703125,0.75201416015625,-0.19268798828125,27.25,42.0625,74.5,-8.85,0.9,-4.11,nothing,4
3.14,3.08174402,29,3,3,3,0,-8.83,0.69,-3.87,0.01,-0.23,0.25,-7.9375,7.9375,8.5625,0.503173828125,0.3800048828125,0.75213623046875,-0.191650390625,27.25,42.0625,74.5,-8.85,0.92,-4.12,nothing,4
3.15,3.08174402,29,3,3,3,0,-8.94,0.65,-4.0,-0.09,-0.28,0.12,-7.0,7.0625,8.375,0.50311279296875,0.3802490234375,0.75225830078125,-0.190673828125,26.875,42.0625,74.1875,-8.84,0.93,-4.12,nothing,4
3.16,3.095858766,29,3,3,3,0,-8.95,0.62,-4.11,-0.11,-0.33,0.01,-6.625,5.875,7.9375,0.5030517578125,0.38055419921875,0.75238037109375,-0.18975830078125,26.875,42.0625,74.1875,-8.84,0.95,-4.13,nothing,4
3.17,3.095858766,29,3,3,3,0,-8.97,0.59,-4.24,-0.14,-0.37,-0.1,-6.375,4.8125,7.5625,0.50311279296875,0.380859375,0.75244140625,-0.1888427734375,26.875,42.0625,74.1875,-8.83,0.97,-4.14,nothing,4
3.18,3.111111411,29,3,3,3,0,-8.99,0.61,-4.31,-0.16,-0.36,-0.16,-6.625,3.75,7.0625,0.503173828125,0.381103515625,0.75250244140625,-0.18798828125,26.875,42.0625,74.1875,-8.83,0.98,-4.14,nothing,4
3.19,3.111111411,29,3,3,3,0,-9.07,0.63,-4.35,-0.24,-0.36,-0.2,-6.3125,3.375,6.6875,0.5032958984375,0.38128662109375,0.75250244140625,-0.1871337890625,26.875,42.0625,74.1875,-8.82,1.0,-4.15,nothing,4
3.2,3.141120769,29,3,3,3,0,-9.1,0.66,-4.33,-0.28,-0.35,-0.18,-6.25,4.25,6.375,0.50335693359375,0.3814697265625,0.7525634765625,-0.18634033203125,27.25,41.0625,76.1875,-8.82,1.01,-4.15,nothing,4
3.21,3.141120769,29,3,3,3,0,-9.15,0.71,-4.34,-0.33,-0.3,-0.18,-6.5625,5.25,5.9375,0.5032958984375,0.38165283203125,0.75274658203125,-0.18548583984375,27.25,41.0625,76.1875,-8.81,1.02,-4.16,nothing,4
3.22,3.155979697,29,3,3,3,0,-9.19,0.74,-4.36,-0.37,-0.29,-0.19,-7.1875,6.0625,5.6875,0.50323486328125,0.3818359375,0.7529296875,-0.1845703125,27.25,41.0625,76.1875,-8.81,1.04,-4.17,nothing,4
3.23,3.155979697,29,3,3,3,0,-9.13,0.79,-4.41,-0.32,-0.26,-0.23,-8.0,6.6875,5.5625,0.50311279296875,0.3818359375,0.75323486328125,-0.1837158203125,27.25,41.0625,76.1875,-8.8,1.05,-4.18,nothing,4
3.24,3.171484783,29,3,3,3,0,-9.09,0.84,-4.4,-0.29,-0.22,-0.21,-8.5625,6.9375,5.25,0.5029296875,0.3818359375,0.7535400390625,-0.182861328125,27.25,41.0625,76.1875,-8.8,1.06,-4.18,nothing,4
3.25,3.171484783,29,3,3,3,0,-9.04,0.85,-4.36,-0.24,-0.21,-0.16,-9.3125,7.375,5.0625,0.5028076171875,0.3818359375,0.75390625,-0.181884765625,27.25,40.25,75.75,-8.79,1.07,-4.19,nothing,4
3.26,3.202238649,29,3,3,3,0,-8.98,0.89,-4.3,-0.19,-0.19,-0.09,-9.875,7.8125,4.875,0.50262451171875,0.38177490234375,0.7542724609375,-0.18084716796875,27.25,40.25,75.75,-8.78,1.08,-4.21,nothing,4
3.27,3.202238649,29,3,3,3,0,-8.8,0.95,-4.23,-0.01,-0.14,-0.01,-10.4375,8.375,4.625,0.50244140625,0.3817138671875,0.754638671875,-0.17974853515625,27.25,40.25,75.75,-8.78,1.1,-4.22,nothing,4
3.28,3.215970582,29,3,3,3,0,-8.72,0.98,-4.18,0.05,-0.13,0.04,-11.25,8.3125,4.375,0.50238037109375,0.381591796875,0.75506591796875,-0.1785888671875,27.25,40.25,75.75,-8.77,1.11,-4.23,nothing,4
3.29,3.215970582,29,3,3,3,0,-8.64,0.97,-4.21,0.12,-0.15,0.03,-12.0625,8.0,3.8125,0.5023193359375,0.3814697265625,0.7554931640625,-0.1773681640625,27.25,40.25,75.75,-8.76,1.13,-4.24,nothing,4
3.3,3.231976197,29,3,3,3,0,-8.53,1.01,-4.14,0.22,-0.12,0.1,-12.875,7.625,3.25,0.50225830078125,0.3812255859375,0.75592041015625,-0.1761474609375,26.875,39.875,76.875,-8.76,1.14,-4.25,nothing,4
3.31,3.231976197,29,3,3,3,0,-8.53,1.01,-4.1,0.22,-0.14,0.14,-13.4375,7.1875,2.6875,0.5023193359375,0.38092041015625,0.75634765625,-0.17486572265625,26.875,39.875,76.875,-8.75,1.15,-4.25,nothing,4
3.32,3.262701702,29,3,3,3,0,-8.51,1.02,-4.15,0.23,-0.14,0.1,-13.875,6.8125,2.25,0.5023193359375,0.38055419921875,0.75677490234375,-0.17364501953125,26.875,39.875,76.875,-8.75,1.17,-4.26,nothing,4
3.33,3.262701702,29,3,3,3,0,-8.55,1.06,-4.14,0.18,-0.12,0.12,-14.0625,6.25,1.625,0.50244140625,0.380126953125,0.7572021484375,-0.1724853515625,26.875,39.875,76.875,-8.74,1.18,-4.27,nothing,4
3.34,3.276277833,29,3,3,3,0,-8.61,1.12,-4.16,0.13,-0.07,0.11,-14.0625,5.625,1.0,0.5025634765625,0.379638671875,0.75762939453125,-0.17132568359375,26.875,39.875,76.875,-8.74,1.19,-4.27,nothing,4
3.35,3.276277833,29,3,3,3,0,-8.66,1.13,-4.19,0.07,-0.07,0.09,-14.3125,5.125,0.3125,0.502685546875,0.37908935546875,0.758056640625,-0.17022705078125,28.0625,40.25,75.75,-8.73,1.2,-4.28,nothing,4
3.36,3.291530722,29,3,3,3,0,-8.71,1.14,-4.23,0.02,-0.07,0.04,-14.1875,4.0,-0.0625,0.50286865234375,0.37847900390625,0.7584228515625,-0.169189453125,28.0625,40.25,75.75,-8.73,1.21,-4.28,nothing,4
3.37,3.291530722,29,3,3,3,0,-8.73,1.19,-4.29,0.0,-0.02,0.0,-13.75,3.0,-0.4375,0.50311279296875,0.3779296875,0.7587890625,-0.16815185546875,28.0625,40.25,75.75,-8.73,1.22,-4.28,nothing,4
3.38,3.32079476,29,3,3,3,0,-8.78,1.27,-4.29,-0.05,0.03,0.0,-12.9375,2.375,-0.8125,0.50341796875,0.3773193359375,0.75909423828125,-0.16729736328125,28.0625,40.25,75.75,-8.73,1.23,-4.28,nothing,4
3.39,3.32079476,29,3,3,3,0,-8.82,1.32,-4.31,-0.09,0.08,-0.02,-12.0,2.125,-1.0625,0.503662109375,0.37677001953125,0.7593994140625,-0.16650390625,28.0625,40.25,75.75,-8.73,1.24,-4.28,nothing,4
3.4,3.336385662,29,3,3,3,0,-8.87,1.36,-4.28,-0.14,0.11,0.0,-11.0625,2.125,-1.25,0.50384521484375,0.376220703125,0.75970458984375,-0.16571044921875,28.0625,38.875,76.1875,-8.73,1.24,-4.28,nothing,4
3.41,3.336385662,29,3,3,3,0,-8.88,1.45,-4.25,-0.16,0.19,0.03,-10.25,2.75,-1.125,0.50396728515625,0.375732421875,0.760009765625,-0.1650390625,28.0625,38.875,76.1875,-8.72,1.25,-4.29,nothing,4
3.42,3.352405641,29,3,3,3,0,-8.96,1.49,-4.3,-0.23,0.23,-0.01,-9.6875,3.1875,-1.0,0.50408935546875,0.375244140625,0.76031494140625,-0.164306640625,28.0625,38.875,76.1875,-8.72,1.26,-4.29,nothing,4
3.43,3.352405641,29,3,3,3,0,-8.96,1.52,-4.33,-0.23,0.26,-0.03,-9.0625,3.5,-0.625,0.50421142578125,0.3748779296875,0.76055908203125,-0.16357421875,28.0625,38.875,76.1875,-8.72,1.26,-4.29,nothing,4
3.44,3.382497275,29,3,3,3,0,-8.94,1.52,-4.32,-0.22,0.25,-0.02,-8.125,4.0,-0.3125,0.5042724609375,0.37457275390625,0.7608642578125,-0.16290283203125,28.0625,38.875,76.1875,-8.72,1.27,-4.29,nothing,4
3.45,3.382497275,29,3,3,3,0,-8.93,1.54,-4.35,-0.21,0.26,-0.05,-6.9375,4.25,0.25,0.5042724609375,0.3743896484375,0.7611083984375,-0.1622314453125,27.25,38.5,77.0,-8.71,1.28,-4.3,nothing,4
3.46,3.411703615,29,3,3,3,0,-8.85,1.59,-4.35,-0.14,0.3,-0.04,-5.5625,5.1875,1.0,0.504150390625,0.37432861328125,0.7613525390625,-0.16156005859375,27.25,38.5,77.0,-8.71,1.28,-4.3,nothing,4
3.47,3.411703615,29,3,3,3,0,-8.81,1.62,-4.42,-0.1,0.32,-0.1,-4.5,5.75,1.5625,0.50396728515625,0.37432861328125,0.76153564453125,-0.16094970703125,27.25,38.5,77.0,-8.7,1.29,-4.31,nothing,4
3.48,3.418263185,29,3,3,3,0,-8.77,1.62,-4.42,-0.07,0.31,-0.09,-3.625,6.4375,2.25,0.50372314453125,0.37445068359375,0.76177978515625,-0.1602783203125,27.25,38.5,77.0,-8.7,1.3,-4.32,nothing,4
3.49,3.418263185,29,3,3,3,0,-8.71,1.58,-4.3,-0.01,0.26,0.03,-2.9375,7.375,2.625,0.50341796875,0.37469482421875,0.76202392578125,-0.15960693359375,27.25,38.5,77.0,-8.69,1.31,-4.33,nothing,4
3.5,3.443511761,29,3,3,3,0,-8.7,1.58,-4.33,-0.01,0.26,0.01,-1.6875,7.5,3.3125,0.50311279296875,0.375,0.76220703125,-0.1590576171875,26.5625,39.1875,76.0625,-8.69,1.32,-4.34,nothing,4
3.51,3.443511761,29,3,3,3,0,-8.65,1.61,-4.26,0.03,0.28,0.08,-0.8125,7.3125,3.9375,0.50274658203125,0.3753662109375,0.76239013671875,-0.158447265625,26.5625,39.1875,76.0625,-8.68,1.33,-4.35,nothing,4
3.52,3.456161704,29,3,3,3,0,-8.64,1.57,-4.19,0.02,0.23,0.17,0.0,7.625,4.3125,0.50238037109375,0.37579345703125,0.76251220703125,-0.157958984375,26.5625,39.1875,76.0625,-8.67,1.34,-4.36,nothing,4
3.53,3.456161704,29,3,3,3,0,-8.65,1.45,-4.2,0.01,0.1,0.17,1.6875,7.125,4.9375,0.501953125,0.37628173828125,0.76263427734375,-0.1575927734375,26.5625,39.1875,76.0625,-8.67,1.34,-4.37,nothing,4
3.54,3.471430584,29,3,3,3,0,-8.67,1.44,-4.19,-0.01,0.09,0.19,3.375,5.25,5.375,0.50164794921875,0.37689208984375,0.7625732421875,-0.15740966796875,26.5625,39.1875,76.0625,-8.66,1.35,-4.38,nothing,4
3.55,3.471430584,29,3,3,3,0,-8.68,1.41,-4.2,-0.01,0.05,0.18,4.875,2.8125,5.6875,0.50140380859375,0.37750244140625,0.762451171875,-0.1573486328125,27.6875,39.25,76.5,-8.66,1.35,-4.38,nothing,4
3.56,3.505714642,29,3,3,3,0,-8.68,1.39,-4.16,-0.02,0.03,0.22,5.9375,1.0625,6.0,0.50128173828125,0.378173828125,0.76214599609375,-0.157470703125,27.6875,39.25,76.5,-8.66,1.36,-4.39,nothing,4
3.57,3.505714642,29,3,3,3,0,-8.69,1.44,-4.26,-0.03,0.07,0.12,6.6875,-0.25,5.875,0.501220703125,0.37884521484375,0.7618408203125,-0.15765380859375,27.6875,39.25,76.5,-8.66,1.36,-4.39,nothing,4
3.58,3.516590211,29,3,3,3,0,-8.65,1.48,-4.29,0.0,0.1,0.09,6.375,-1.1875,6.125,0.50115966796875,0.3795166015625,0.761474609375,-0.1578369140625,27.6875,39.25,76.5,-8.66,1.37,-4.39,nothing,4
3.59,3.516590211,29,3,3,3,0,-8.64,1.48,-4.3,0.01,0.1,0.08,5.75,-1.75,6.0,0.501220703125,0.38018798828125,0.7611083984375,-0.15802001953125,27.6875,39.25,76.5,-8.66,1.37,-4.38,nothing,4
3.6,3.530954428,29,3,3,3,0,-8.68,1.48,-4.3,-0.02,0.1,0.08,5.125,-2.1875,6.0625,0.50128173828125,0.38079833984375,0.7607421875,-0.158203125,26.5625,38.5,75.6875,-8.66,1.38,-4.38,nothing,4
3.61,3.530954428,29,3,3,3,0,-8.74,1.51,-4.39,-0.08,0.12,-0.01,4.625,-2.625,6.0625,0.50140380859375,0.38134765625,0.76031494140625,-0.1583251953125,26.5625,38.5,75.6875,-8.66,1.38,-4.38,nothing,4
3.62,3.562801881,29,3,3,3,0,-8.77,1.51,-4.48,-0.11,0.12,-0.1,4.5,-2.375,6.3125,0.50152587890625,0.3819580078125,0.75994873046875,-0.15838623046875,26.5625,38.5,75.6875,-8.66,1.39,-4.38,nothing,4
3.63,3.562801881,29,3,3,3,0,-8.77,1.54,-4.52,-0.11,0.14,-0.14,4.5625,-1.4375,6.6875,0.5015869140625,0.382568359375,0.75958251953125,-0.158447265625,26.5625,38.5,75.6875,-8.66,1.4,-4.38,nothing,4
3.64,3.577614707,29,3,3,3,0,-8.73,1.59,-4.57,-0.07,0.18,-0.19,5.0625,-0.4375,7.25,0.50152587890625,0.38330078125,0.75927734375,-0.158447265625,26.5625,38.5,75.6875,-8.65,1.41,-4.38,nothing,4
3.65,3.577614707,29,3,3,3,0,-8.71,1.67,-4.54,-0.05,0.25,-0.15,5.5625,0.3125,8.0625,0.50140380859375,0.38409423828125,0.7589111328125,-0.15838623046875,26.875,38.875,75.6875,-8.65,1.41,-4.38,nothing,4
3.66,3.59441618,29,3,3,3,0,-8.7,1.7,-4.5,-0.04,0.27,-0.12,5.875,0.9375,8.625,0.50128173828125,0.385009765625,0.75860595703125,-0.1583251953125,26.875,38.875,75.6875,-8.65,1.42,-4.38,nothing,4
3.67,3.59441618,29,3,3,3,0,-8.68,1.76,-4.47,-0.03,0.32,-0.08,6.25,1.3125,9.25,0.5010986328125,0.38592529296875,0.75823974609375,-0.158203125,26.875,38.875,75.6875,-8.64,1.44,-4.39,nothing,4
3.68,3.620992718,29,3,3,3,0,-8.58,1.78,-4.4,0.05,0.33,-0.01,6.75,1.75,9.5625,0.50091552734375,0.386962890625,0.75787353515625,-0.15802001953125,26.875,38.875,75.6875,-8.64,1.45,-4.39,nothing,4
3.69,3.620992718,29,3,3,3,0,-8.53,1.78,-4.39,0.1,0.32,0.0,7.375,1.8125,9.9375,0.500732421875,0.3880615234375,0.7574462890625,-0.15789794921875,26.875,38.875,75.6875,-8.64,1.46,-4.39,nothing,4
3.7,3.636626588,29,3,3,3,0,-8.51,1.8,-4.36,0.12,0.32,0.03,8.0625,1.75,9.875,0.50054931640625,0.38916015625,0.75701904296875,-0.15777587890625,27.25,38.875,74.5,-8.63,1.47,-4.4,nothing,4
3.71,3.636626588,29,3,3,3,0,-8.45,1.79,-4.41,0.17,0.3,0.0,8.8125,1.375,9.8125,0.50030517578125,0.39031982421875,0.756591796875,-0.15777587890625,27.25,38.875,74.5,-8.63,1.48,-4.4,nothing,4
3.72,3.652468914,29,3,3,3,0,-8.42,1.73,-4.4,0.2,0.23,0.01,9.875,0.9375,9.25,0.50006103515625,0.39141845703125,0.75616455078125,-0.1578369140625,27.25,38.875,74.5,-8.62,1.49,-4.41,nothing,4
3.73,3.652468914,29,3,3,3,0,-8.42,1.73,-4.37,0.2,0.22,0.03,11.0625,0.0,8.875,0.49981689453125,0.392578125,0.75567626953125,-0.1580810546875,27.25,38.875,74.5,-8.62,1.5,-4.41,nothing,4
3.74,3.680749188,29,3,3,3,0,-8.42,1.71,-4.37,0.19,0.19,0.04,11.875,-0.25,8.625,0.49957275390625,0.39373779296875,0.75518798828125,-0.15838623046875,27.25,38.875,74.5,-8.62,1.51,-4.42,nothing,4
3.75,3.680749188,29,3,3,3,0,-8.46,1.67,-4.39,0.15,0.16,0.02,12.3125,-1.0,8.4375,0.49932861328125,0.39483642578125,0.75469970703125,-0.1588134765625,27.25,39.5625,75.25,-8.62,1.51,-4.42,nothing,4
3.76,3.695741456,29,3,3,3,0,-8.52,1.64,-4.4,0.09,0.12,0.02,12.25,-1.75,8.0,0.4991455078125,0.39593505859375,0.754150390625,-0.15924072265625,27.25,39.5625,75.25,-8.61,1.52,-4.42,nothing,4
3.77,3.695741456,29,3,3,3,0,-8.54,1.61,-4.43,0.07,0.09,0.0,11.75,-2.375,7.75,0.4990234375,0.39691162109375,0.75360107421875,-0.15972900390625,27.25,39.5625,75.25,-8.61,1.52,-4.42,nothing,4
3.78,3.710867107,29,3,3,3,0,-8.54,1.6,-4.46,0.07,0.07,-0.04,10.8125,-2.4375,7.6875,0.4989013671875,0.39788818359375,0.7530517578125,-0.16021728515625,27.25,39.5625,75.25,-8.61,1.52,-4.42,nothing,4
3.79,3.710867107,29,3,3,3,0,-8.54,1.62,-4.55,0.06,0.09,-0.13,10.0,-1.625,7.3125,0.498779296875,0.3988037109375,0.75262451171875,-0.16058349609375,27.25,39.5625,75.25,-8.61,1.53,-4.42,nothing,4
3.8,3.741351849,29,3,3,3,0,-8.63,1.64,-4.56,-0.02,0.11,-0.14,9.5,-1.25,7.4375,0.49859619140625,0.39971923828125,0.75213623046875,-0.160888671875,26.5625,39.1875,74.875,-8.61,1.53,-4.42,nothing,4
3.81,3.741351849,29,3,3,3,0,-8.69,1.64,-4.5,-0.07,0.1,-0.07,9.5,-1.4375,7.375,0.49847412109375,0.40057373046875,0.751708984375,-0.1612548828125,26.5625,39.1875,74.875,-8.61,1.53,-4.42,nothing,4
3.82,3.756592734,29,3,3,3,0,-8.71,1.64,-4.52,-0.1,0.1,-0.09,9.1875,-1.875,7.4375,0.49835205078125,0.40142822265625,0.751220703125,-0.16156005859375,26.5625,39.1875,74.875,-8.61,1.54,-4.42,nothing,4
3.83,3.756592734,29,3,3,3,0,-8.7,1.65,-4.62,-0.09,0.1,-0.19,8.9375,-2.125,7.25,0.498291015625,0.40228271484375,0.750732421875,-0.161865234375,26.5625,39.1875,74.875,-8.61,1.54,-4.42,nothing,4
3.84,3.771257081,29,3,3,3,0,-8.71,1.66,-4.67,-0.09,0.11,-0.24,8.5,-2.0,7.125,0.49822998046875,0.40313720703125,0.75030517578125,-0.16217041015625,26.5625,39.1875,74.875,-8.61,1.55,-4.42,nothing,4
3.85,3.771257081,29,3,3,3,0,-8.69,1.67,-4.65,-0.08,0.11,-0.23,8.0625,-1.9375,6.8125,0.4981689453125,0.4039306640625,0.7498779296875,-0.1624755859375,27.6875,38.875,74.5,-8.61,1.55,-4.42,nothing,4
3.86,3.802432456,29,3,3,3,0,-8.7,1.65,-4.62,-0.09,0.09,-0.19,7.625,-1.1875,6.4375,0.498046875,0.4046630859375,0.74951171875,-0.1627197265625,27.6875,38.875,74.5,-8.61,1.56,-4.42,nothing,4
3.87,3.802432456,29,3,3,3,0,-8.68,1.64,-4.65,-0.07,0.07,-0.22,7.625,-0.5,6.4375,0.497802734375,0.40545654296875,0.7491455078125,-0.16290283203125,27.6875,38.875,74.5,-8.61,1.56,-4.42,nothing,4
3.88,3.832219402,29,3,3,3,0,-8.63,1.61,-4.63,-0.03,0.05,-0.2,8.0625,0.0625,6.25,0.49761962890625,0.40625,0.74884033203125,-0.16314697265625,27.6875,38.875,74.5,-8.6,1.56,-4.42,nothing,4
3.89,3.832219402,29,3,3,3,0,-8.6,1.61,-4.62,0.0,0.03,-0.19,8.6875,0.4375,6.1875,0.49737548828125,0.40704345703125,0.74853515625,-0.16339111328125,27.6875,38.875,74.5,-8.6,1.57,-4.43,nothing,4
3.9,3.837713624,29,3,3,3,0,-8.59,1.59,-4.59,0.0,0.01,-0.15,9.25,0.375,6.375,0.4970703125,0.4078369140625,0.7481689453125,-0.1636962890625,27.1875,39.5625,73.25,-8.6,1.57,-4.43,nothing,4
3.91,3.837713624,29,3,3,3,0,-8.5,1.55,-4.57,0.09,-0.02,-0.14,9.5,0.5625,6.0625,0.49676513671875,0.40869140625,0.74786376953125,-0.1640625,27.1875,39.5625,73.25,-8.6,1.57,-4.43,nothing,4
3.92,3.862390016,29,3,3,3,0,-8.48,1.54,-4.6,0.11,-0.02,-0.16,9.5625,-0.125,5.9375,0.4964599609375,0.4095458984375,0.74755859375,-0.16436767578125,27.1875,39.5625,73.25,-8.59,1.57,-4.44,nothing,4
3.93,3.862390016,29,3,3,3,0,-8.49,1.54,-4.58,0.1,-0.03,-0.13,9.625,-1.0,5.8125,0.4962158203125,0.41033935546875,0.7471923828125,-0.164794921875,27.1875,39.5625,73.25,-8.59,1.57,-4.44,nothing,4
3.94,3.875926922,29,3,3,3,0,-8.48,1.56,-4.6,0.11,-0.01,-0.16,9.4375,-1.6875,5.4375,0.49603271484375,0.41107177734375,0.74676513671875,-0.16522216796875,27.1875,39.5625,73.25,-8.59,1.57,-4.44,nothing,4
3.95,3.875926922,29,3,3,3,0,-8.48,1.6,-4.58,0.11,0.02,-0.13,9.375,-2.25,5.25,0.495849609375,0.41180419921875,0.74639892578125,-0.1656494140625,28.6875,40.25,73.6875,-8.59,1.57,-4.44,nothing,4
3.96,3.891686484,29,3,3,3,0,-8.49,1.62,-4.59,0.1,0.04,-0.14,9.125,-2.6875,5.125,0.4957275390625,0.41253662109375,0.7459716796875,-0.16607666015625,28.6875,40.25,73.6875,-8.59,1.58,-4.44,nothing,4
3.97,3.891686484,29,3,3,3,0,-8.47,1.63,-4.59,0.12,0.05,-0.14,8.6875,-3.0625,4.9375,0.49566650390625,0.4132080078125,0.74554443359375,-0.16656494140625,28.6875,40.25,73.6875,-8.59,1.58,-4.44,nothing,4
3.98,3.921433229,29,3,3,3,0,-8.46,1.63,-4.61,0.13,0.05,-0.17,8.125,-3.4375,4.75,0.49560546875,0.413818359375,0.7451171875,-0.16693115234375,28.6875,40.25,73.6875,-8.59,1.58,-4.44,nothing,4
3.99,3.921433229,29,3,3,3,0,-8.49,1.68,-4.59,0.1,0.09,-0.15,7.625,-3.9375,4.375,0.49560546875,0.4144287109375,0.7447509765625,-0.1673583984375,28.6875,40.25,73.6875,-8.59,1.58,-4.43,nothing,4
4.0,3.936707155,29,3,3,3,0,-8.52,1.7,-4.59,0.07,0.11,-0.15,6.9375,-4.0625,4.3125,0.49566650390625,0.41497802734375,0.74432373046875,-0.167724609375,28.6875,39.875,73.6875,-8.6,1.58,-4.43,nothing,4
4.01,3.936707155,29,3,3,3,0,-8.52,1.69,-4.63,0.07,0.1,-0.19,6.3125,-4.25,4.1875,0.4957275390625,0.41552734375,0.743896484375,-0.1680908203125,28.6875,39.875,73.6875,-8.6,1.58,-4.43,nothing,4
4.02,3.952657635,29,3,3,3,0,-8.56,1.7,-4.71,0.03,0.11,-0.28,5.8125,-4.3125,4.0625,0.49578857421875,0.416015625,0.7435302734375,-0.1683349609375,28.6875,39.875,73.6875,-8.6,1.59,-4.42,nothing,4
4.03,3.952657635,29,3,3,3,0,-8.55,1.7,-4.7,0.04,0.11,-0.27,5.5625,-4.375,4.0,0.495849609375,0.41650390625,0.74310302734375,-0.16864013671875,28.6875,39.875,73.6875,-8.6,1.59,-4.42,nothing,4
4.04,3.981730755,29,3,3,3,0,-8.56,1.7,-4.72,0.03,0.11,-0.3,5.4375,-4.4375,4.1875,0.49591064453125,0.4169921875,0.74273681640625,-0.16888427734375,28.6875,39.875,73.6875,-8.6,1.59,-4.42,nothing,4
4.05,3.981730755,29,3,3,3,0,-8.56,1.69,-4.73,0.04,0.09,-0.31,5.25,-4.3125,4.0625,0.4959716796875,0.41748046875,0.74237060546875,-0.16912841796875,28.25,39.5625,73.6875,-8.6,1.59,-4.42,nothing,4
4.06,4.01772986,29,3,3,3,0,-8.58,1.67,-4.7,0.02,0.07,-0.29,5.25,-4.375,3.875,0.49603271484375,0.41796875,0.74200439453125,-0.16937255859375,28.25,39.5625,73.6875,-8.6,1.6,-4.41,nothing,4
4.07,4.01772986,29,3,3,3,0,-8.59,1.63,-4.72,0.01,0.03,-0.31,5.25,-4.3125,3.8125,0.49609375,0.41839599609375,0.74163818359375,-0.169677734375,28.25,39.5625,73.6875,-8.6,1.6,-4.41,nothing,4
4.08,4.023207887,29,3,3,3,0,-8.58,1.62,-4.64,0.02,0.02,-0.22,5.3125,-4.25,3.75,0.49615478515625,0.41888427734375,0.74127197265625,-0.169921875,28.25,39.5625,73.6875,-8.6,1.6,-4.41,nothing,4
4.09,4.023207887,29,3,3,3,0,-8.56,1.59,-4.65,0.04,-0.01,-0.24,5.375,-4.0,3.4375,0.49615478515625,0.4193115234375,0.740966796875,-0.17022705078125,28.25,39.5625,73.6875,-8.61,1.6,-4.4,nothing,4
4.1,4.04080473,29,3,3,3,0,-8.49,1.54,-4.65,0.11,-0.06,-0.24,5.3125,-4.0625,3.25,0.49615478515625,0.41973876953125,0.74066162109375,-0.17059326171875,28.25,39.5625,73.1875,-8.61,1.6,-4.4,nothing,4
4.11,4.04080473,29,3,3,3,0,-8.44,1.51,-4.64,0.16,-0.08,-0.24,5.4375,-4.125,2.9375,0.49615478515625,0.42010498046875,0.7403564453125,-0.1708984375,28.25,39.5625,73.1875,-8.61,1.6,-4.4,nothing,4
4.12,4.056089316,29,3,3,3,0,-8.43,1.46,-4.64,0.17,-0.13,-0.24,5.5,-4.5,2.9375,0.49615478515625,0.4205322265625,0.74005126953125,-0.1712646484375,28.25,39.5625,73.1875,-8.61,1.6,-4.4,nothing,4
4.13,4.056089316,29,3,3,3,0,-8.42,1.47,-4.61,0.18,-0.12,-0.21,5.5625,-4.875,2.8125,0.49615478515625,0.4208984375,0.73974609375,-0.17169189453125,28.25,39.5625,73.1875,-8.61,1.6,-4.4,nothing,4
4.14,4.071283001,29,3,3,3,0,-8.4,1.47,-4.59,0.21,-0.12,-0.2,5.3125,-5.375,2.6875,0.4962158203125,0.4212646484375,0.7393798828125,-0.172119140625,28.25,39.5625,73.1875,-8.61,1.6,-4.39,nothing,4
4.15,4.071283001,29,3,3,3,0,-8.4,1.47,-4.58,0.21,-0.13,-0.19,5.1875,-5.75,2.625,0.49627685546875,0.42156982421875,0.73907470703125,-0.17254638671875,29.0,39.25,72.75,-8.62,1.6,-4.39,nothing,4
4.16,4.10097042,29,3,3,3,0,-8.43,1.48,-4.62,0.18,-0.12,-0.23,4.9375,-5.9375,2.6875,0.49639892578125,0.421875,0.73870849609375,-0.1729736328125,29.0,39.25,72.75,-8.62,1.6,-4.38,nothing,4
4.17,4.10097042,29,3,3,3,0,-8.46,1.49,-4.63,0.16,-0.11,-0.25,4.6875,-6.25,2.5,0.49652099609375,0.42218017578125,0.7384033203125,-0.17333984375,29.0,39.25,72.75,-8.62,1.6,-4.38,nothing,4
4.18,4.116404176,29,3,3,3,0,-8.48,1.5,-4.65,0.14,-0.09,-0.27,4.375,-6.5,2.3125,0.49664306640625,0.4224853515625,0.738037109375,-0.17376708984375,29.0,39.25,72.75,-8.62,1.59,-4.37,nothing,4
4.19,4.116404176,29,3,3,3,0,-8.52,1.52,-4.64,0.1,-0.07,-0.26,4.0,-6.6875,2.0625,0.49676513671875,0.4227294921875,0.73773193359375,-0.17413330078125,29.0,39.25,72.75,-8.63,1.59,-4.37,nothing,4
4.2,4.130959271,29,3,3,3,0,-8.54,1.5,-4.67,0.09,-0.09,-0.3,3.75,-6.75,1.875,0.4969482421875,0.42291259765625,0.73736572265625,-0.174560546875,29.0,41.375,72.0,-8.63,1.59,-4.36,nothing,4
4.21,4.130959271,29,3,3,3,0,-8.63,1.5,-4.75,0.0,-0.09,-0.39,3.5625,-6.875,1.5625,0.4970703125,0.423095703125,0.737060546875,-0.1749267578125,29.0,41.375,72.0,-8.63,1.59,-4.36,nothing,4
4.22,4.161815879,29,3,3,3,0,-8.66,1.5,-4.79,-0.02,-0.08,-0.43,3.75,-6.625,1.5625,0.4971923828125,0.42333984375,0.73681640625,-0.17535400390625,29.0,41.375,72.0,-8.64,1.59,-4.35,nothing,4
4.23,4.161815879,29,3,3,3,0,-8.67,1.52,-4.81,-0.03,-0.06,-0.46,4.0,-6.4375,1.875,0.49725341796875,0.423583984375,0.73651123046875,-0.17572021484375,29.0,41.375,72.0,-8.64,1.59,-4.35,nothing,4
4.25,4.17615495,29,3,3,3,0,-8.69,1.58,-4.79,-0.04,0.0,-0.44,4.1875,-6.25,1.625,0.49725341796875,0.423828125,0.73626708984375,-0.17608642578125,29.0,41.375,72.0,-8.64,1.59,-4.34,nothing,4
4.25,4.17615495,29,3,3,3,0,-8.68,1.59,-4.63,-0.03,0.0,-0.28,3.5625,-6.25,1.875,0.4974365234375,0.42401123046875,0.7359619140625,-0.17645263671875,29.375,39.5625,71.6875,-8.64,1.59,-4.34,nothing,4
4.26,4.191497031,29,3,3,3,0,-8.63,1.65,-4.67,0.01,0.06,-0.33,3.25,-6.125,1.875,0.49755859375,0.42425537109375,0.73565673828125,-0.1767578125,29.375,39.5625,71.6875,-8.64,1.59,-4.33,nothing,4
4.27,4.191497031,29,3,3,3,0,-8.56,1.62,-4.72,0.08,0.03,-0.39,2.75,-6.0625,2.0,0.49774169921875,0.42449951171875,0.7353515625,-0.17694091796875,29.375,39.5625,71.6875,-8.65,1.59,-4.33,nothing,4
4.28,4.222173179,29,3,3,3,0,-8.47,1.59,-4.67,0.17,0.0,-0.34,2.625,-5.75,2.25,0.497802734375,0.42474365234375,0.735107421875,-0.17718505859375,29.375,39.5625,71.6875,-8.65,1.59,-4.33,nothing,4
4.29,4.222173179,29,3,3,3,0,-8.41,1.54,-4.54,0.23,-0.05,-0.21,2.6875,-5.25,2.5625,0.4979248046875,0.42498779296875,0.73486328125,-0.1773681640625,29.375,39.5625,71.6875,-8.65,1.59,-4.32,nothing,4
4.3,4.236069419,29,3,3,3,0,-8.4,1.53,-4.6,0.24,-0.06,-0.28,3.125,-5.375,2.625,0.49798583984375,0.42529296875,0.73455810546875,-0.17755126953125,29.75,41.0625,72.5,-8.65,1.59,-4.32,nothing,4
4.31,4.236069419,29,3,3,3,0,-8.42,1.52,-4.58,0.23,-0.07,-0.26,3.1875,-5.9375,2.5625,0.49810791015625,0.425537109375,0.73431396484375,-0.17779541015625,29.75,41.0625,72.5,-8.65,1.59,-4.32,nothing,4
4.32,4.251235557,29,3,3,3,0,-8.47,1.53,-4.44,0.18,-0.06,-0.13,3.375,-7.4375,2.5,0.49835205078125,0.42578125,0.73388671875,-0.17816162109375,29.75,41.0625,72.5,-8.66,1.59,-4.31,nothing,4
4.33,4.251235557,29,3,3,3,0,-8.46,1.55,-4.46,0.2,-0.04,-0.16,3.4375,-8.3125,2.4375,0.4986572265625,0.426025390625,0.73345947265625,-0.1785888671875,29.75,41.0625,72.5,-8.66,1.59,-4.3,nothing,4
4.34,4.283937827,29,3,3,3,0,-8.5,1.55,-4.51,0.16,-0.04,-0.21,3.25,-8.625,2.25,0.4990234375,0.42620849609375,0.7330322265625,-0.178955078125,29.75,41.0625,72.5,-8.67,1.59,-4.29,nothing,4
4.35,4.283937827,29,3,3,3,0,-8.52,1.54,-4.59,0.14,-0.05,-0.31,2.625,-8.5625,2.0,0.49932861328125,0.42633056640625,0.73260498046875,-0.1793212890625,29.375,40.25,70.0,-8.67,1.59,-4.28,nothing,4
4.36,4.295877728,29,3,3,3,0,-8.55,1.52,-4.68,0.12,-0.07,-0.4,2.0,-8.8125,1.875,0.4996337890625,0.426513671875,0.73223876953125,-0.17962646484375,29.375,40.25,70.0,-8.67,1.59,-4.27,nothing,4
4.37,4.295877728,29,3,3,3,0,-8.64,1.48,-4.69,0.03,-0.11,-0.42,1.625,-8.6875,1.5625,0.49993896484375,0.42657470703125,0.73193359375,-0.179931640625,29.375,40.25,70.0,-8.68,1.59,-4.26,nothing,4
4.38,4.311376467,29,3,3,3,0,-8.69,1.46,-4.68,-0.01,-0.13,-0.42,1.9375,-8.6875,1.375,0.50018310546875,0.4266357421875,0.73162841796875,-0.1802978515625,29.375,40.25,70.0,-8.68,1.59,-4.26,nothing,4
4.39,4.311376467,29,3,3,3,0,-8.72,1.43,-4.66,-0.03,-0.16,-0.4,2.625,-8.125,1.0,0.5003662109375,0.4267578125,0.7313232421875,-0.18072509765625,29.375,40.25,70.0,-8.68,1.59,-4.25,nothing,4
4.4,4.341654014,29,3,3,3,0,-8.74,1.38,-4.44,-0.05,-0.21,-0.2,3.0625,-8.0,0.75,0.5006103515625,0.42681884765625,0.73101806640625,-0.18121337890625,30.5,41.375,71.1875,-8.69,1.59,-4.24,nothing,4
4.41,4.341654014,29,3,3,3,0,-8.74,1.37,-4.4,-0.04,-0.21,-0.16,3.0625,-8.0,0.3125,0.5008544921875,0.42681884765625,0.730712890625,-0.1817626953125,30.5,41.375,71.1875,-8.69,1.58,-4.23,nothing,4
4.42,4.366956382,29,3,3,3,0,-8.73,1.37,-4.38,-0.03,-0.21,-0.15,2.375,-8.5,0.0625,0.501220703125,0.4267578125,0.7303466796875,-0.1822509765625,30.5,41.375,71.1875,-8.7,1.58,-4.22,walking_forward,4
4.43,4.366956382,29,3,3,3,0,-8.72,1.38,-4.33,-0.01,-0.19,-0.12,1.4375,-8.875,0.0,0.501708984375,0.42669677734375,0.72998046875,-0.18267822265625,30.5,41.375,71.1875,-8.71,1.58,-4.21,walking_forward,4
4.44,4.372312339,29,3,3,3,0,-8.68,1.38,-4.27,0.03,-0.19,-0.07,0.625,-8.8125,-0.25,0.50225830078125,0.42657470703125,0.72955322265625,-0.18304443359375,30.5,41.375,71.1875,-8.71,1.58,-4.2,walking_forward,4
4.45,4.372312339,29,3,3,3,0,-8.68,1.36,-4.25,0.04,-0.21,-0.06,0.0,-8.8125,-0.375,0.5028076171875,0.42645263671875,0.72918701171875,-0.183349609375,29.375,40.6875,72.0,-8.72,1.58,-4.18,walking_forward,4
4.46,4.40257361,29,3,3,3,0,-8.63,1.35,-4.22,0.09,-0.22,-0.04,-0.4375,-9.4375,-0.375,0.50335693359375,0.42626953125,0.72882080078125,-0.18377685546875,29.375,40.6875,72.0,-8.73,1.58,-4.17,walking_forward,4
4.47,4.40257361,29,3,3,3,0,-8.63,1.36,-4.19,0.1,-0.21,-0.03,-0.6875,-10.0,-0.25,0.50396728515625,0.42608642578125,0.7283935546875,-0.18414306640625,29.375,40.6875,72.0,-8.73,1.58,-4.16,walking_forward,4
4.48,4.416305829,29,3,3,3,0,-8.61,1.36,-4.19,0.13,-0.21,-0.04,-1.0,-10.6875,-0.4375,0.504638671875,0.42584228515625,0.72802734375,-0.18450927734375,29.375,40.6875,72.0,-8.74,1.58,-4.14,walking_forward,4
4.5,4.416305829,29,3,3,3,0,-8.64,1.37,-4.13,0.1,-0.2,0.0,-1.4375,-11.125,-0.6875,0.50531005859375,0.425537109375,0.72760009765625,-0.18487548828125,29.375,40.6875,72.0,-8.75,1.57,-4.12,walking_forward,4
4.5,4.431789268,29,3,3,3,0,-8.7,1.35,-4.11,0.06,-0.22,0.0,-1.5625,-11.625,-0.875,0.50604248046875,0.4251708984375,0.7271728515625,-0.185302734375,30.5,40.6875,70.75,-8.76,1.57,-4.11,walking_forward,4
4.51,4.431789268,29,3,3,3,0,-8.83,1.34,-4.12,-0.05,-0.22,-0.03,-1.25,-11.75,-1.25,0.50677490234375,0.4248046875,0.72674560546875,-0.185791015625,30.5,40.6875,70.75,-8.77,1.57,-4.09,walking_forward,4
4.52,4.461252158,29,3,3,3,0,-8.9,1.33,-4.12,-0.12,-0.23,-0.04,-0.625,-12.25,-1.4375,0.50750732421875,0.4244384765625,0.726318359375,-0.18634033203125,30.5,40.6875,70.75,-8.78,1.57,-4.07,walking_forward,4
4.53,4.461252158,29,3,3,3,0,-8.9,1.28,-4.03,-0.11,-0.27,0.01,-0.0625,-12.6875,-1.625,0.50823974609375,0.42413330078125,0.72589111328125,-0.18695068359375,30.5,40.6875,70.75,-8.79,1.56,-4.05,walking_forward,4
4.54,4.476046999,29,3,3,3,0,-8.91,1.24,-4.07,-0.11,-0.31,-0.03,0.125,-12.5625,-1.8125,0.5089111328125,0.4237060546875,0.7254638671875,-0.1876220703125,30.5,40.6875,70.75,-8.8,1.56,-4.03,walking_forward,4
4.56,4.476046999,29,3,3,3,0,-8.89,1.22,-4.07,-0.08,-0.33,-0.05,0.375,-12.4375,-1.8125,0.50958251953125,0.42333984375,0.72503662109375,-0.18829345703125,30.5,41.0625,70.75,-8.8,1.55,-4.01,walking_forward,4
4.57,4.491386069,29,3,3,3,0,-8.84,1.19,-3.99,-0.02,-0.35,0.0,0.5,-11.5,-2.25,0.51019287109375,0.42291259765625,0.72467041015625,-0.18896484375,30.5,41.0625,70.75,-8.81,1.54,-4.0,walking_forward,4
4.58,4.491386069,29,3,3,3,0,-8.82,1.13,-3.91,0.0,-0.4,0.06,0.6875,-12.0625,-2.625,0.51080322265625,0.4224853515625,0.7242431640625,-0.189697265625,30.5,41.0625,70.75,-8.82,1.53,-3.98,walking_forward,4
4.58,4.521288657,29,3,3,3,0,-8.78,1.11,-3.86,0.05,-0.41,0.09,1.0,-12.5625,-2.9375,0.511474609375,0.4219970703125,0.723876953125,-0.1905517578125,30.5,41.0625,70.75,-8.83,1.52,-3.96,walking_forward,4
4.59,4.521288657,29,3,3,3,0,-8.64,1.17,-3.78,0.2,-0.34,0.15,1.4375,-13.0625,-3.375,0.5120849609375,0.42156982421875,0.72344970703125,-0.19146728515625,30.5,41.0625,70.75,-8.84,1.51,-3.94,walking_forward,4
4.6,4.552634523,29,3,3,3,0,-8.58,1.18,-3.69,0.27,-0.32,0.23,2.0625,-12.875,-3.875,0.51275634765625,0.42120361328125,0.7230224609375,-0.1922607421875,30.5,40.6875,68.875,-8.85,1.5,-3.92,walking_forward,4
4.61,4.552634523,29,3,3,3,0,-8.53,1.2,-3.59,0.33,-0.29,0.31,2.3125,-13.25,-4.3125,0.513427734375,0.4207763671875,0.7225341796875,-0.19305419921875,30.5,40.6875,68.875,-8.86,1.5,-3.9,walking_forward,4
4.62,4.559852093,29,3,3,3,0,-8.48,1.21,-3.53,0.39,-0.27,0.34,2.5625,-14.0,-4.5,0.51416015625,0.42034912109375,0.7220458984375,-0.1939697265625,30.5,40.6875,68.875,-8.88,1.49,-3.88,walking_forward,4
4.63,4.559852093,29,3,3,3,0,-8.49,1.35,-3.5,0.39,-0.12,0.35,3.3125,-15.125,-4.6875,0.514892578125,0.41998291015625,0.721435546875,-0.1949462890625,30.5,40.6875,68.875,-8.89,1.48,-3.86,walking_forward,4
4.65,4.581335451,29,3,3,3,0,-8.54,1.43,-3.48,0.35,-0.03,0.35,4.4375,-16.0,-4.875,0.515625,0.41961669921875,0.7208251953125,-0.196044921875,30.5,40.6875,68.875,-8.9,1.47,-3.83,walking_forward,4
4.66,4.581335451,29,3,3,3,0,-8.57,1.5,-3.48,0.33,0.04,0.32,5.375,-17.0,-4.6875,0.51641845703125,0.41925048828125,0.72015380859375,-0.19720458984375,31.5625,40.6875,69.25,-8.91,1.46,-3.81,walking_forward,4
4.66,4.596206708,29,3,3,3,0,-8.53,1.6,-3.62,0.39,0.15,0.15,6.3125,-18.25,-4.6875,0.51727294921875,0.4189453125,0.71942138671875,-0.198486328125,31.5625,40.6875,69.25,-8.92,1.44,-3.78,walking_forward,4
4.67,4.596206708,29,3,3,3,0,-8.53,1.62,-3.7,0.4,0.18,0.05,6.9375,-19.625,-4.625,0.51812744140625,0.4185791015625,0.71856689453125,-0.1998291015625,31.5625,40.6875,69.25,-8.94,1.43,-3.75,walking_forward,4
4.68,4.612052085,29,3,3,3,0,-8.48,1.65,-3.8,0.47,0.23,-0.08,8.0625,-20.875,-4.25,0.51910400390625,0.4183349609375,0.7176513671875,-0.2012939453125,31.5625,40.6875,69.25,-8.95,1.42,-3.72,walking_forward,4
4.69,4.612052085,29,3,3,3,0,-8.43,1.73,-3.85,0.53,0.32,-0.16,9.5,-21.625,-3.8125,0.52001953125,0.41815185546875,0.71661376953125,-0.202880859375,31.5625,40.6875,69.25,-8.97,1.41,-3.69,walking_forward,4
4.7,4.642049807,29,3,3,3,0,-8.17,1.9,-3.91,0.81,0.5,-0.24,10.375,-21.8125,-3.375,0.52093505859375,0.41802978515625,0.715576171875,-0.2044677734375,32.0,41.0625,68.875,-8.98,1.4,-3.66,walking_forward,4
4.71,4.642049807,29,3,3,3,0,-8.03,2.04,-3.88,0.96,0.65,-0.25,10.875,-21.875,-2.5625,0.5218505859375,0.41796875,0.7144775390625,-0.2060546875,32.0,41.0625,68.875,-9.0,1.39,-3.63,walking_forward,4
4.72,4.656937787,29,3,3,3,0,-7.9,2.11,-3.87,1.11,0.73,-0.26,11.4375,-21.0,-1.5,0.522705078125,0.41802978515625,0.71337890625,-0.2076416015625,32.0,41.0625,68.875,-9.01,1.38,-3.6,walking_forward,4
4.74,4.656937787,29,3,3,3,0,-7.88,2.23,-3.83,1.14,0.86,-0.25,12.4375,-20.125,-0.0625,0.52349853515625,0.418212890625,0.71221923828125,-0.20916748046875,32.0,41.0625,68.875,-9.02,1.37,-3.57,walking_forward,4
4.75,4.67125753,29,3,3,3,0,-8.18,2.41,-3.7,0.85,1.05,-0.16,13.6875,-19.5,1.625,0.52423095703125,0.4185791015625,0.7110595703125,-0.21063232421875,32.0,41.0625,68.875,-9.04,1.36,-3.54,walking_forward,4
4.75,4.67125753,29,3,3,3,0,-8.46,2.46,-3.72,0.58,1.1,-0.2,15.1875,-19.5625,3.375,0.52496337890625,0.41912841796875,0.709716796875,-0.212158203125,30.75,41.0625,67.25,-9.05,1.36,-3.51,walking_forward,4
4.76,4.702146446,29,3,3,3,0,-8.74,2.5,-3.88,0.32,1.13,-0.39,15.6875,-20.5,5.25,0.5257568359375,0.4197998046875,0.70831298828125,-0.213623046875,30.75,41.0625,67.25,-9.06,1.36,-3.49,walking_forward,4
4.77,4.702146446,29,3,3,3,0,-8.98,2.47,-4.18,0.09,1.11,-0.72,15.6875,-22.8125,6.5,0.52667236328125,0.4205322265625,0.70672607421875,-0.215087890625,30.75,41.0625,67.25,-9.07,1.36,-3.45,walking_forward,4
4.78,4.716081097,29,3,3,3,0,-9.53,2.41,-5.05,-0.44,1.05,-1.63,15.9375,-25.1875,7.75,0.52783203125,0.4212646484375,0.70501708984375,-0.2166748046875,30.75,41.0625,67.25,-9.08,1.36,-3.42,walking_forward,4
4.79,4.716081097,29,3,3,3,0,-9.78,2.36,-5.55,-0.68,0.99,-2.16,17.3125,-26.6875,8.75,0.52899169921875,0.42205810546875,0.703125,-0.21826171875,30.75,41.0625,67.25,-9.1,1.36,-3.38,walking_forward,4
4.8,4.7314032,29,3,3,3,0,-10.02,2.28,-5.97,-0.9,0.9,-2.62,19.5,-28.0,9.5,0.5301513671875,0.42303466796875,0.70111083984375,-0.2200927734375,31.5625,41.375,67.25,-9.11,1.37,-3.34,walking_forward,4
4.82,4.7314032,29,3,3,3,0,-10.16,2.13,-6.17,-1.03,0.76,-2.86,21.0625,-27.0625,9.8125,0.53118896484375,0.424072265625,0.6990966796875,-0.22186279296875,31.5625,41.375,67.25,-9.12,1.37,-3.3,walking_forward,4
4.83,4.761058921,29,3,3,3,0,-10.3,1.85,-5.93,-1.16,0.48,-2.65,23.125,-23.25,9.8125,0.53192138671875,0.42535400390625,0.69720458984375,-0.22369384765625,31.5625,41.375,67.25,-9.14,1.37,-3.27,walking_forward,4
4.83,4.761058921,29,3,3,3,0,-10.28,1.66,-5.69,-1.13,0.28,-2.43,25.0,-16.75,9.625,0.5322265625,0.4267578125,0.695556640625,-0.22540283203125,31.5625,41.375,67.25,-9.14,1.37,-3.25,walking_forward,4
4.84,4.776601442,29,3,3,3,0,-10.18,1.48,-5.52,-1.03,0.1,-2.28,24.9375,-9.4375,8.875,0.53204345703125,0.42828369140625,0.6943359375,-0.226806640625,31.5625,41.375,67.25,-9.15,1.37,-3.24,walking_forward,4
4.85,4.776601442,29,3,3,3,0,-9.56,1.26,-5.24,-0.41,-0.11,-2.0,23.25,-3.125,8.0,0.531494140625,0.4298095703125,0.69342041015625,-0.22796630859375,33.375,42.0625,66.0625,-9.15,1.37,-3.24,walking_forward,4
4.86,4.791242718,29,3,3,3,0,-9.21,1.18,-5.14,-0.07,-0.19,-1.89,21.1875,1.6875,7.25,0.53070068359375,0.4312744140625,0.69281005859375,-0.22882080078125,33.375,42.0625,66.0625,-9.14,1.37,-3.25,walking_forward,4
4.87,4.791242718,29,3,3,3,0,-8.88,1.1,-5.01,0.25,-0.27,-1.74,18.9375,5.5625,6.625,0.52978515625,0.43267822265625,0.69244384765625,-0.22943115234375,33.375,42.0625,66.0625,-9.14,1.37,-3.26,walking_forward,4
4.88,4.821889243,29,3,3,3,0,-8.54,1.13,-4.82,0.59,-0.24,-1.54,16.875,8.0,6.3125,0.52874755859375,0.43402099609375,0.6922607421875,-0.2298583984375,33.375,42.0625,66.0625,-9.13,1.37,-3.28,walking_forward,4
4.9,4.821889243,29,3,3,3,0,-7.77,1.06,-4.51,1.35,-0.31,-1.2,14.9375,8.25,5.9375,0.52777099609375,0.43524169921875,0.692138671875,-0.23016357421875,33.375,42.0625,66.0625,-9.12,1.38,-3.3,walking_forward,4
4.91,4.836846397,29,3,3,3,0,-7.44,1.09,-4.3,1.68,-0.28,-0.98,13.4375,6.6875,5.5,0.5269775390625,0.43634033203125,0.69195556640625,-0.23046875,32.6875,42.875,65.25,-9.12,1.38,-3.31,walking_forward,4
4.91,4.836846397,29,3,3,3,0,-7.13,1.04,-4.11,1.98,-0.34,-0.79,12.75,3.8125,4.875,0.52630615234375,0.43731689453125,0.69171142578125,-0.2308349609375,32.6875,42.875,65.25,-9.12,1.38,-3.32,walking_forward,4
4.92,4.851065676,29,3,3,3,0,-6.82,1.04,-3.92,2.28,-0.34,-0.59,12.1875,0.0625,4.1875,0.52593994140625,0.4381103515625,0.6912841796875,-0.23138427734375,32.6875,42.875,65.25,-9.11,1.38,-3.33,walking_forward,4
4.93,4.851065676,29,3,3,3,0,-6.4,1.2,-3.69,2.71,-0.17,-0.36,11.9375,-3.5625,3.3125,0.5257568359375,0.43878173828125,0.6907958984375,-0.2320556640625,32.6875,42.875,65.25,-9.12,1.38,-3.32,walking_forward,4
4.94,4.881259971,29,3,3,3,0,-6.32,1.27,-3.62,2.8,-0.09,-0.3,12.25,-7.25,2.3125,0.5257568359375,0.43939208984375,0.69012451171875,-0.23297119140625,32.6875,42.875,65.25,-9.12,1.37,-3.32,walking_forward,4
4.96,4.881259971,29,3,3,3,0,-6.35,1.23,-3.52,2.77,-0.13,-0.21,12.0625,-11.375,1.5,0.52593994140625,0.4398193359375,0.6893310546875,-0.23406982421875,32.6875,42.875,64.0625,-9.12,1.37,-3.3,walking_forward,4
4.97,4.896086753,29,3,3,3,0,-6.42,1.24,-3.41,2.71,-0.12,-0.13,12.125,-15.875,1.1875,0.5264892578125,0.44012451171875,0.68829345703125,-0.23529052734375,32.6875,42.875,64.0625,-9.13,1.36,-3.28,walking_forward,4
4.98,4.896086753,29,3,3,3,0,-6.71,1.18,-3.27,2.42,-0.17,-0.01,12.875,-20.3125,1.5,0.5272216796875,0.44036865234375,0.68707275390625,-0.23675537109375,32.6875,42.875,64.0625,-9.14,1.36,-3.25,walking_forward,4
4.99,4.911143516,29,3,3,3,0,-6.82,1.18,-3.36,2.33,-0.17,-0.14,13.0625,-24.1875,1.3125,0.52813720703125,0.44061279296875,0.68560791015625,-0.2384033203125,32.6875,42.875,64.0625,-9.16,1.35,-3.22,walking_forward,4
5.0,4.911143516,29,3,3,3,0,-6.92,1.21,-3.56,2.25,-0.13,-0.38,12.5625,-27.1875,0.9375,0.529296875,0.440673828125,0.68408203125,-0.24017333984375,32.6875,42.875,64.0625,-9.17,1.35,-3.18,walking_forward,4
5.0,4.940687746,29,3,3,3,0,-7.24,1.32,-4.07,1.94,-0.02,-0.93,11.9375,-28.75,0.75,0.530517578125,0.440673828125,0.6824951171875,-0.241943359375,34.1875,42.875,62.5,-9.19,1.34,-3.13,walking_forward,4
5.01,4.940687746,29,3,3,3,0,-7.55,1.32,-4.32,1.65,-0.01,-1.22,11.5,-28.75,0.75,0.53179931640625,0.440673828125,0.680908203125,-0.24365234375,34.1875,42.875,62.5,-9.2,1.34,-3.09,walking_forward,4
5.02,4.956166465,29,3,3,3,0,-7.94,1.31,-4.48,1.27,-0.01,-1.42,11.25,-27.625,0.6875,0.53302001953125,0.440673828125,0.67938232421875,-0.245361328125,34.1875,42.875,62.5,-9.22,1.33,-3.05,walking_forward,4
5.03,4.956166465,29,3,3,3,0,-8.34,1.33,-4.84,0.89,0.0,-1.82,10.5,-25.8125,0.5625,0.53411865234375,0.44061279296875,0.67791748046875,-0.2469482421875,34.1875,42.875,62.5,-9.23,1.33,-3.01,walking_forward,4
5.05,4.971560752,29,3,3,3,0,-9.02,1.46,-5.89,0.22,0.13,-2.9,8.5625,-23.0625,0.3125,0.53509521484375,0.4405517578125,0.67669677734375,-0.248291015625,34.1875,42.875,62.5,-9.24,1.32,-2.98,walking_forward,4
5.06,4.971560752,29,3,3,3,0,-9.37,1.51,-5.99,-0.11,0.19,-3.04,6.375,-19.875,0.5625,0.5360107421875,0.44049072265625,0.67559814453125,-0.2493896484375,33.0,43.875,62.1875,-9.25,1.32,-2.95,walking_forward,4
5.07,5.015705975,29,3,3,3,0,-9.56,1.5,-5.97,-0.3,0.18,-3.04,6.4375,-13.5,0.6875,0.53656005859375,0.4405517578125,0.6748046875,-0.250244140625,33.0,43.875,62.1875,-9.26,1.32,-2.93,walking_forward,4
5.08,5.015705975,29,3,3,3,0,-9.66,1.55,-6.08,-0.4,0.23,-3.15,6.75,-5.3125,0.0625,0.53662109375,0.44073486328125,0.6744384765625,-0.2508544921875,33.0,43.875,62.1875,-9.26,1.32,-2.92,walking_forward,4
5.08,5.021304852,29,3,3,3,0,-9.65,1.5,-6.13,-0.39,0.19,-3.2,3.0625,-0.4375,-2.1875,0.536376953125,0.4407958984375,0.67449951171875,-0.2510986328125,33.0,43.875,62.1875,-9.26,1.31,-2.92,walking_forward,4
5.09,5.021304852,29,3,3,3,0,-9.9,1.6,-5.9,-0.64,0.29,-2.97,-3.3125,1.5,-4.625,0.53631591796875,0.4404296875,0.6748046875,-0.25103759765625,33.0,43.875,62.1875,-9.26,1.3,-2.92,walking_forward,4
5.1,5.03132361,29,3,3,3,0,-10.3,1.73,-6.03,-1.03,0.43,-3.09,-7.5,3.75,-6.875,0.53619384765625,0.43975830078125,0.67547607421875,-0.250732421875,33.75,43.875,62.0625,-9.26,1.3,-2.93,walking_forward,4
5.11,5.03132361,29,3,3,3,0,-10.65,1.73,-6.2,-1.39,0.44,-3.26,-11.1875,5.1875,-9.8125,0.53607177734375,0.43878173828125,0.67633056640625,-0.25030517578125,33.75,43.875,62.0625,-9.26,1.29,-2.94,walking_forward,4
5.12,5.061088829,29,3,3,3,0,-11.1,1.69,-6.71,-1.83,0.41,-3.77,-15.75,4.9375,-13.5625,0.5360107421875,0.4373779296875,0.677490234375,-0.24981689453125,33.75,43.875,62.0625,-9.26,1.27,-2.94,walking_forward,4
5.14,5.061088829,29,3,3,3,0,-11.2,1.68,-6.85,-1.94,0.42,-3.9,-20.0625,5.6875,-17.9375,0.5360107421875,0.435546875,0.67889404296875,-0.249267578125,33.75,43.875,62.0625,-9.26,1.26,-2.95,walking_forward,4
5.15,5.07674577,29,3,3,3,0,-11.25,1.61,-6.85,-1.99,0.38,-3.89,-22.4375,8.6875,-22.4375,0.53582763671875,0.433349609375,0.6806640625,-0.24859619140625,33.75,43.875,62.0625,-9.26,1.23,-2.96,walking_forward,4
5.16,5.07674577,29,3,3,3,0,-11.18,1.61,-6.82,-1.91,0.41,-3.84,-24.125,12.3125,-26.125,0.535400390625,0.43096923828125,0.6827392578125,-0.2479248046875,33.75,43.25,60.0625,-9.26,1.2,-2.97,walking_forward,4
5.16,5.091259849,29,3,3,3,0,-10.88,1.95,-6.75,-1.62,0.78,-3.75,-26.75,15.875,-28.6875,0.5347900390625,0.4283447265625,0.6851806640625,-0.24700927734375,33.75,43.25,60.0625,-9.26,1.17,-3.0,walking_forward,4
5.17,5.091259849,29,3,3,3,0,-10.95,2.07,-6.59,-1.69,0.93,-3.56,-30.3125,18.6875,-30.125,0.53411865234375,0.425537109375,0.6878662109375,-0.245849609375,33.75,43.25,60.0625,-9.25,1.14,-3.02,walking_forward,4
5.18,5.121635541,29,3,3,3,0,-11.05,2.13,-6.4,-1.8,1.02,-3.35,-33.0625,20.25,-30.75,0.533447265625,0.422607421875,0.690673828125,-0.24456787109375,33.75,43.25,60.0625,-9.25,1.1,-3.05,walking_forward,4
5.19,5.121635541,29,3,3,3,0,-11.27,2.51,-6.16,-2.03,1.43,-3.08,-34.875,19.5625,-30.5,0.5328369140625,0.41961669921875,0.6934814453125,-0.24310302734375,33.75,43.25,60.0625,-9.24,1.07,-3.07,walking_forward,4
5.2,5.136080813,29,3,3,3,0,-11.27,2.49,-6.03,-2.02,1.44,-2.93,-36.4375,17.0625,-29.8125,0.532470703125,0.41650390625,0.6961669921875,-0.24163818359375,32.0,43.25,61.5,-9.24,1.04,-3.1,walking_forward,4
5.22,5.136080813,29,3,3,3,0,-11.1,2.44,-5.72,-1.86,1.42,-2.6,-35.875,16.8125,-28.75,0.53204345703125,0.4134521484375,0.69879150390625,-0.2401123046875,32.0,43.25,61.5,-9.23,1.02,-3.12,walking_forward,4
5.23,5.152171796,29,3,3,3,0,-10.98,2.63,-5.28,-1.75,1.64,-2.13,-31.25,22.0,-25.8125,0.53125,0.410888671875,0.701416015625,-0.23858642578125,32.0,43.25,61.5,-9.23,0.99,-3.15,walking_forward,4
5.24,5.152171796,29,3,3,3,0,-11.38,3.18,-4.1,-2.16,2.2,-0.9,-24.125,28.6875,-20.9375,0.5299072265625,0.40911865234375,0.70404052734375,-0.23699951171875,32.0,43.25,61.5,-9.21,0.97,-3.19,walking_forward,4
5.25,5.182110964,29,3,3,3,0,-11.46,3.17,-3.6,-2.26,2.2,-0.35,-19.375,32.5,-16.125,0.5281982421875,0.407958984375,0.70654296875,-0.23541259765625,32.0,43.25,61.5,-9.2,0.96,-3.24,walking_forward,4
5.25,5.182110964,29,3,3,3,0,-11.3,2.94,-3.19,-2.11,1.99,0.11,-18.625,36.3125,-11.875,0.52630615234375,0.4071044921875,0.70904541015625,-0.23345947265625,32.0,42.0625,62.25,-9.18,0.95,-3.3,walking_forward,4
5.26,5.196041587,29,3,3,3,0,-10.83,2.44,-2.98,-1.67,1.48,0.38,-20.8125,40.5625,-8.0,0.52435302734375,0.406494140625,0.71160888671875,-0.2310791015625,32.0,42.0625,62.25,-9.16,0.95,-3.36,walking_forward,4
5.27,5.196041587,29,3,3,3,0,-9.75,1.19,-2.67,-0.61,0.23,0.75,-23.5625,42.4375,-4.25,0.52239990234375,0.40606689453125,0.7142333984375,-0.228271484375,32.0,42.0625,62.25,-9.13,0.96,-3.43,walking_forward,4
5.28,5.210846275,29,3,3,3,0,-9.42,0.72,-2.34,-0.3,-0.25,1.14,-23.3125,42.125,-1.375,0.52056884765625,0.40576171875,0.7166748046875,-0.225341796875,32.0,42.0625,62.25,-9.11,0.97,-3.49,walking_forward,4
5.3,5.210846275,29,3,3,3,0,-9.21,0.26,-1.89,-0.12,-0.72,1.65,-19.125,39.8125,0.4375,0.51873779296875,0.40570068359375,0.7188720703125,-0.22265625,32.0,42.0625,62.25,-9.08,0.98,-3.55,walking_forward,4
5.31,5.24130294,29,3,3,3,0,-9.04,-0.25,-1.39,0.01,-1.25,2.21,-12.75,36.625,1.625,0.516845703125,0.40594482421875,0.720703125,-0.220458984375,30.75,42.0625,63.0625,-9.06,0.99,-3.61,walking_forward,4
5.32,5.24130294,29,3,3,3,0,-9.27,-1.16,-0.88,-0.23,-2.17,2.77,-5.4375,32.4375,1.5625,0.5150146484375,0.40643310546875,0.7222900390625,-0.2188720703125,30.75,42.0625,63.0625,-9.04,1.0,-3.66,walking_forward,4
5.33,5.255961224,29,3,3,3,0,-9.26,-1.53,-0.8,-0.23,-2.54,2.9,0.1875,26.5,0.875,0.5133056640625,0.40704345703125,0.72344970703125,-0.2178955078125,30.75,42.0625,63.0625,-9.02,1.0,-3.7,walking_forward,4
5.33,5.255961224,29,3,3,3,0,-9.02,-1.82,-0.79,-0.01,-2.83,2.94,3.5,19.375,0.0,0.511962890625,0.4075927734375,0.7242431640625,-0.2174072265625,30.75,42.0625,63.0625,-9.0,1.0,-3.73,walking_forward,4
5.34,5.286499595,29,3,3,3,0,-8.62,-1.74,-0.81,0.38,-2.74,2.93,3.0625,9.1875,-1.75,0.51116943359375,0.40777587890625,0.72467041015625,-0.21728515625,30.75,42.0625,63.0625,-9.0,0.99,-3.75,walking_forward,4
5.36,5.286499595,29,3,3,3,0,-8.54,-1.51,-0.81,0.46,-2.5,2.94,-0.4375,-2.5,-4.1875,0.51123046875,0.407470703125,0.7247314453125,-0.21759033203125,30.75,41.0625,62.6875,-9.0,0.99,-3.75,walking_forward,4
5.37,5.300934043,29,3,3,3,0,-8.69,-1.25,-0.78,0.32,-2.24,2.94,-4.875,-12.9375,-6.25,0.5120849609375,0.4066162109375,0.7244873046875,-0.21795654296875,30.75,41.0625,62.6875,-9.01,0.98,-3.73,walking_forward,4
5.38,5.300934043,29,3,3,3,0,-8.86,-0.88,-0.92,0.15,-1.86,2.77,-8.875,-19.0,-8.0,0.513427734375,0.4053955078125,0.72412109375,-0.21844482421875,30.75,41.0625,62.6875,-9.02,0.97,-3.7,walking_forward,4
5.39,5.316558148,29,3,3,3,0,-9.09,0.02,-1.66,-0.04,-0.95,1.99,-15.3125,-24.875,-9.125,0.515380859375,0.40362548828125,0.7236328125,-0.21875,30.75,41.0625,62.6875,-9.04,0.97,-3.65,walking_forward,4
5.4,5.316558148,29,3,3,3,0,-9.22,0.48,-2.19,-0.15,-0.48,1.41,-23.0625,-31.4375,-9.5625,0.5179443359375,0.40142822265625,0.72296142578125,-0.21881103515625,30.75,41.0625,62.6875,-9.06,0.97,-3.6,walking_forward,4
5.41,5.33104643,29,3,3,3,0,-9.26,0.89,-2.94,-0.17,-0.08,0.6,-31.625,-34.4375,-8.875,0.52105712890625,0.39874267578125,0.72235107421875,-0.21844482421875,30.5,41.0625,62.25,-9.09,0.98,-3.54,walking_forward,4
5.41,5.33104643,29,3,3,3,0,-9.31,1.11,-3.76,-0.2,0.12,-0.27,-38.5,-32.5,-7.625,0.5242919921875,0.39593505859375,0.72186279296875,-0.21746826171875,30.5,41.0625,62.25,-9.11,0.99,-3.48,walking_forward,4
5.42,5.361078778,29,3,3,3,0,-9.25,1.14,-4.4,-0.12,0.13,-0.96,-41.75,-25.4375,-4.9375,0.5272216796875,0.3931884765625,0.7216796875,-0.2159423828125,30.5,41.0625,62.25,-9.12,1.0,-3.44,walking_forward,4
5.43,5.361078778,29,3,3,3,0,-9.14,1.18,-4.21,0.0,0.15,-0.8,-38.6875,-17.8125,-1.8125,0.52960205078125,0.3909912109375,0.7216796875,-0.21417236328125,30.5,41.0625,62.25,-9.13,1.02,-3.4,walking_forward,4
5.44,5.366898358,29,3,3,3,0,-9.14,1.18,-4.21,0.0,0.15,-0.8,-38.6875,-17.8125,-1.8125,0.52960205078125,0.3909912109375,0.7216796875,-0.21417236328125,30.5,41.0625,62.25,-9.13,1.02,-3.4,walking_forward,4
5.45,5.366898358,29,3,3,3,0,-8.92,1.18,-3.91,0.21,0.13,-0.53,-34.125,-11.75,1.375,0.531494140625,0.3892822265625,0.7216796875,-0.21234130859375,30.5,41.0625,62.25,-9.14,1.05,-3.38,walking_forward,4
5.46,5.392694216,29,3,3,3,0,-8.65,1.17,-3.65,0.49,0.09,-0.29,-30.4375,-6.875,4.0,0.53302001953125,0.38800048828125,0.7218017578125,-0.21051025390625,31.1875,39.5625,62.6875,-9.14,1.07,-3.36,walking_forward,4
5.47,5.392694216,29,3,3,3,0,-8.16,1.11,-3.58,0.98,0.01,-0.22,-27.1875,-2.625,6.0,0.53424072265625,0.3870849609375,0.72198486328125,-0.20855712890625,31.1875,39.5625,62.6875,-9.14,1.1,-3.35,walking_forward,4
5.48,5.407306846,29,3,3,3,0,-8.03,1.1,-3.5,1.11,-0.02,-0.15,-24.5,0.5,7.5625,0.53515625,0.38641357421875,0.72222900390625,-0.2066650390625,31.1875,39.5625,62.6875,-9.14,1.12,-3.35,walking_forward,4
5.49,5.407306846,29,3,3,3,0,-7.85,1.03,-3.41,1.28,-0.11,-0.05,-20.75,2.9375,8.75,0.53582763671875,0.38604736328125,0.722412109375,-0.204833984375,31.1875,39.5625,62.6875,-9.14,1.15,-3.35,walking_forward,4
5.5,5.420721723,29,3,3,3,0,-7.76,0.94,-3.28,1.37,-0.23,0.07,-16.5,4.75,9.5625,0.5362548828125,0.385986328125,0.72265625,-0.20318603515625,31.1875,39.5625,62.6875,-9.13,1.17,-3.35,walking_forward,4
5.5,5.420721723,29,3,3,3,0,-7.45,0.73,-3.05,1.67,-0.46,0.31,-13.1875,4.1875,9.75,0.53656005859375,0.38604736328125,0.72271728515625,-0.20172119140625,32.25,38.0625,63.5,-9.13,1.2,-3.36,walking_forward,4
5.51,5.453206464,29,3,3,3,0,-7.27,0.69,-3.01,1.85,-0.53,0.35,-11.75,2.4375,10.0625,0.5369873046875,0.38616943359375,0.72271728515625,-0.200439453125,32.25,38.0625,63.5,-9.12,1.22,-3.36,walking_forward,4
5.52,5.453206464,29,3,3,3,0,-7.15,0.6,-3.04,1.97,-0.63,0.31,-11.875,0.125,9.5625,0.53753662109375,0.38623046875,0.72265625,-0.19921875,32.25,38.0625,63.5,-9.12,1.24,-3.36,walking_forward,4
5.54,5.466687584,29,3,3,3,0,-7.02,0.5,-3.14,2.1,-0.76,0.21,-12.8125,-2.4375,9.5,0.53826904296875,0.38623046875,0.722412109375,-0.19805908203125,32.25,38.0625,63.5,-9.12,1.27,-3.35,walking_forward,4
5.55,5.466687584,29,3,3,3,0,-7.04,0.48,-3.2,2.07,-0.8,0.14,-14.3125,-5.0,9.0,0.5391845703125,0.38604736328125,0.72216796875,-0.1968994140625,32.25,38.0625,63.5,-9.12,1.29,-3.34,walking_forward,4
5.56,5.481972658,29,3,3,3,0,-7.16,0.48,-3.27,1.96,-0.82,0.05,-16.1875,-7.8125,8.6875,0.54034423828125,0.38568115234375,0.7218017578125,-0.19573974609375,33.75,37.75,61.5,-9.13,1.31,-3.32,walking_forward,4
5.57,5.481972658,29,3,3,3,0,-7.28,0.55,-3.36,1.84,-0.78,-0.05,-18.4375,-10.375,8.0,0.541748046875,0.3851318359375,0.7213134765625,-0.19451904296875,33.75,37.75,61.5,-9.13,1.34,-3.3,walking_forward,4
5.58,5.512241132,29,3,3,3,0,-7.63,0.62,-3.67,1.5,-0.73,-0.39,-21.25,-11.875,6.8125,0.5433349609375,0.38433837890625,0.72088623046875,-0.1932373046875,33.75,37.75,61.5,-9.13,1.36,-3.28,walking_forward,4
5.58,5.512241132,29,3,3,3,0,-7.78,0.66,-3.86,1.36,-0.72,-0.6,-24.5625,-13.0625,5.25,0.5450439453125,0.38330078125,0.72052001953125,-0.19189453125,33.75,37.75,61.5,-9.14,1.38,-3.25,walking_forward,4
5.59,5.525870201,29,3,3,3,0,-7.9,0.64,-3.98,1.24,-0.75,-0.74,-27.125,-12.875,3.5,0.54681396484375,0.38201904296875,0.72027587890625,-0.1904296875,33.75,37.75,61.5,-9.15,1.4,-3.23,walking_forward,4
5.6,5.525870201,29,3,3,3,0,-8.06,0.71,-4.0,1.09,-0.71,-0.8,-28.3125,-11.1875,1.8125,0.5484619140625,0.380615234375,0.72015380859375,-0.18896484375,33.5,35.5,61.1875,-9.15,1.42,-3.2,walking_forward,4
5.62,5.54114372,29,3,3,3,0,-8.21,0.7,-4.03,0.94,-0.74,-0.84,-28.1875,-8.25,0.0,0.54986572265625,0.379150390625,0.72021484375,-0.18743896484375,33.5,35.5,61.1875,-9.16,1.44,-3.18,walking_forward,4
5.63,5.54114372,29,3,3,3,0,-8.31,0.74,-4.05,0.85,-0.7,-0.87,-27.1875,-4.875,-1.375,0.551025390625,0.377685546875,0.72052001953125,-0.18597412109375,33.5,35.5,61.1875,-9.16,1.45,-3.17,walking_forward,4
5.64,5.570837079,29,3,3,3,0,-8.37,0.84,-3.98,0.79,-0.61,-0.81,-25.3125,-1.25,-2.375,0.5518798828125,0.37628173828125,0.720947265625,-0.18450927734375,33.5,35.5,61.1875,-9.16,1.46,-3.16,walking_forward,4
5.65,5.570837079,29,3,3,3,0,-8.4,0.93,-3.85,0.76,-0.54,-0.69,-23.25,2.25,-3.25,0.55242919921875,0.375,0.7215576171875,-0.18310546875,33.5,35.5,61.1875,-9.16,1.47,-3.16,walking_forward,4
5.66,5.586276166,29,3,3,3,0,-8.47,1.18,-3.86,0.68,-0.28,-0.69,-21.5,5.5625,-3.8125,0.552734375,0.373779296875,0.7222900390625,-0.1817626953125,34.5625,34.75,60.375,-9.16,1.47,-3.16,walking_forward,4
5.66,5.586276166,29,3,3,3,0,-8.52,1.34,-3.92,0.62,-0.13,-0.74,-19.9375,8.9375,-4.25,0.552734375,0.37274169921875,0.72320556640625,-0.180419921875,34.5625,34.75,60.375,-9.15,1.48,-3.17,walking_forward,4
5.67,5.602056846,29,3,3,3,0,-8.65,1.53,-4.02,0.49,0.04,-0.83,-18.3125,13.3125,-4.5,0.5523681640625,0.37176513671875,0.72430419921875,-0.17901611328125,34.5625,34.75,60.375,-9.15,1.48,-3.19,walking_forward,4
5.68,5.602056846,29,3,3,3,0,-8.92,1.79,-4.11,0.22,0.3,-0.89,-17.75,18.0625,-4.25,0.55169677734375,0.37091064453125,0.7255859375,-0.17755126953125,34.5625,34.75,60.375,-9.14,1.48,-3.21,walking_forward,4
5.7,5.63154525,29,3,3,3,0,-9.08,1.76,-4.19,0.04,0.27,-0.94,-18.5625,20.9375,-4.125,0.5509033203125,0.3701171875,0.72705078125,-0.1759033203125,34.5625,34.75,60.375,-9.13,1.49,-3.24,walking_forward,4
5.71,5.63154525,29,3,3,3,0,-9.15,1.74,-4.29,-0.03,0.25,-1.01,-20.3125,21.4375,-3.6875,0.55010986328125,0.36920166015625,0.728515625,-0.174072265625,34.875,33.6875,61.1875,-9.12,1.49,-3.27,walking_forward,4
5.72,5.64622217,29,3,3,3,0,-9.34,1.61,-4.33,-0.23,0.11,-1.02,-21.125,19.1875,-3.0,0.54949951171875,0.3682861328125,0.7298583984375,-0.1722412109375,34.875,33.6875,61.1875,-9.11,1.5,-3.3,walking_forward,4
5.72,5.64622217,29,3,3,3,0,-9.34,1.61,-4.33,-0.23,0.11,-1.02,-21.125,19.1875,-3.0,0.54949951171875,0.3682861328125,0.7298583984375,-0.1722412109375,34.875,33.6875,61.1875,-9.11,1.5,-3.3,walking_forward,4
5.73,5.661342491,29,3,3,3,0,-10.16,1.12,-4.32,-1.06,-0.38,-1.0,-20.625,17.1875,-1.9375,0.54901123046875,0.367431640625,0.7310791015625,-0.17047119140625,34.875,33.6875,61.1875,-9.1,1.51,-3.32,walking_forward,4
5.74,5.661342491,29,3,3,3,0,-10.47,0.82,-4.45,-1.38,-0.69,-1.11,-19.5625,15.75,-1.0,0.548583984375,0.36669921875,0.732177734375,-0.16876220703125,34.875,33.6875,61.1875,-9.09,1.52,-3.34,walking_forward,4
5.75,5.67622331,29,3,3,3,0,-10.8,0.63,-4.69,-1.72,-0.89,-1.33,-17.1875,13.625,0.5625,0.54827880859375,0.3660888671875,0.73309326171875,-0.16717529296875,34.875,33.6875,61.1875,-9.08,1.53,-3.36,walking_forward,4
5.76,5.67622331,29,3,3,3,0,-10.97,0.4,-5.01,-1.89,-1.14,-1.63,-12.9375,12.0,2.5625,0.54791259765625,0.3658447265625,0.7337646484375,-0.16583251953125,35.25,32.5625,60.0625,-9.07,1.54,-3.37,walking_forward,4
5.77,5.690685997,29,3,3,3,0,-11.12,0.1,-5.45,-2.06,-1.44,-2.05,-9.0,12.5625,4.0625,0.54742431640625,0.3658447265625,0.734375,-0.1646728515625,35.25,32.5625,60.0625,-9.06,1.55,-3.39,walking_forward,4
5.78,5.690685997,29,3,3,3,0,-11.15,0.06,-5.65,-2.1,-1.49,-2.23,-4.5625,15.5,5.0,0.546630859375,0.3662109375,0.73504638671875,-0.16363525390625,35.25,32.5625,60.0625,-9.05,1.56,-3.42,walking_forward,4
5.79,5.720893028,29,3,3,3,0,-11.31,0.19,-5.71,-2.26,-1.37,-2.26,-1.625,20.5625,6.0,0.54541015625,0.3668212890625,0.73590087890625,-0.16259765625,35.25,32.5625,60.0625,-9.04,1.57,-3.45,walking_forward,4
5.8,5.720893028,29,3,3,3,0,-11.68,0.56,-5.53,-2.66,-1.02,-2.03,1.0,27.625,6.4375,0.543701171875,0.36767578125,0.73699951171875,-0.16143798828125,35.25,32.5625,60.0625,-9.02,1.58,-3.49,walking_forward,4
5.81,5.737335696,29,3,3,3,0,-12.31,1.75,-5.13,-3.31,0.16,-1.58,5.75,34.3125,6.5625,0.54132080078125,0.36883544921875,0.73834228515625,-0.160400390625,34.875,30.6875,61.1875,-9.0,1.59,-3.55,walking_forward,4
5.82,5.737335696,29,3,3,3,0,-12.16,2.28,-5.15,-3.19,0.68,-1.53,8.25,39.75,6.5625,0.53857421875,0.3702392578125,0.73992919921875,-0.15936279296875,34.875,30.6875,61.1875,-8.97,1.59,-3.61,walking_forward,4
5.83,5.751963463,29,3,3,3,0,-11.81,2.56,-5.24,-2.87,0.96,-1.55,6.4375,46.1875,6.8125,0.53546142578125,0.37158203125,0.7418212890625,-0.157958984375,34.875,30.6875,61.1875,-8.94,1.6,-3.69,walking_forward,4
5.83,5.751963463,29,3,3,3,0,-11.49,2.65,-5.08,-2.59,1.04,-1.29,3.875,56.625,6.75,0.53173828125,0.37298583984375,0.74420166015625,-0.15606689453125,34.875,30.6875,61.1875,-8.9,1.61,-3.78,walking_forward,4
5.85,5.784213381,29,3,3,3,0,-10.75,2.72,-4.17,-1.9,1.1,-0.28,4.75,67.125,5.8125,0.5272216796875,0.37451171875,0.7470703125,-0.1539306640625,34.875,30.6875,61.1875,-8.85,1.61,-3.88,walking_forward,4
5.86,5.784213381,29,3,3,3,0,-10.27,2.67,-3.63,-1.47,1.06,0.37,7.6875,72.125,3.4375,0.52227783203125,0.37603759765625,0.7501220703125,-0.15191650390625,35.25,30.25,61.1875,-8.8,1.61,-4.0,walking_forward,4
5.87,5.795668175,29,3,3,3,0,-9.86,2.6,-3.04,-1.11,0.99,1.06,9.0,69.5,0.4375,0.51739501953125,0.37738037109375,0.753173828125,-0.15020751953125,35.25,30.25,61.1875,-8.75,1.61,-4.11,walking_forward,4
5.88,5.795668175,29,3,3,3,0,-9.59,2.89,-2.12,-0.88,1.29,2.08,8.5,61.6875,-1.8125,0.51300048828125,0.37847900390625,0.75592041015625,-0.1488037109375,35.25,30.25,61.1875,-8.71,1.6,-4.21,walking_forward,4
5.89,5.826747073,29,3,3,3,0,-9.37,3.05,-1.89,-0.7,1.46,2.39,7.1875,50.5,-2.9375,0.5093994140625,0.37921142578125,0.7581787109375,-0.14776611328125,35.25,30.25,61.1875,-8.67,1.59,-4.28,walking_forward,4
5.9,5.826747073,29,3,3,3,0,-9.17,3.21,-1.89,-0.53,1.63,2.45,5.5,38.5625,-2.9375,0.506591796875,0.3797607421875,0.75994873046875,-0.14697265625,35.25,30.25,61.1875,-8.64,1.58,-4.34,walking_forward,4
5.91,5.841263837,29,3,3,3,0,-9.12,3.37,-1.86,-0.49,1.79,2.52,5.3125,26.5625,-1.3125,0.504638671875,0.3802490234375,0.7611083984375,-0.146484375,34.25,29.0625,60.875,-8.62,1.57,-4.39,walking_forward,4
5.91,5.841263837,29,3,3,3,0,-9.3,3.76,-1.73,-0.68,2.19,2.67,7.9375,13.5625,0.9375,0.50347900390625,0.380859375,0.7615966796875,-0.14654541015625,34.25,29.0625,60.875,-8.61,1.57,-4.41,walking_forward,4
5.92,5.856841514,29,3,3,3,0,-9.53,3.84,-1.56,-0.92,2.27,2.85,12.0,2.25,3.25,0.5029296875,0.38165283203125,0.76141357421875,-0.1470947265625,34.25,29.0625,60.875,-8.61,1.56,-4.42,walking_forward,4
5.94,5.856841514,29,3,3,3,0,-9.72,3.79,-1.33,-1.11,2.23,3.08,15.25,-7.0,5.5,0.50299072265625,0.382568359375,0.7607421875,-0.14813232421875,34.25,29.0625,60.875,-8.61,1.56,-4.41,walking_forward,4
5.95,5.886311933,29,3,3,3,0,-9.8,3.66,-1.31,-1.17,2.1,3.08,17.125,-13.9375,7.0,0.50341796875,0.38360595703125,0.7596435546875,-0.1494140625,34.25,29.0625,60.875,-8.62,1.56,-4.39,walking_forward,4
5.96,5.886311933,29,3,3,3,0,-9.97,3.31,-1.7,-1.33,1.75,2.66,16.3125,-21.875,8.5,0.50439453125,0.3846435546875,0.7581787109375,-0.15081787109375,33.5,29.0625,61.1875,-8.63,1.56,-4.36,walking_forward,4
5.97,5.905226524,29,3,3,3,0,-10.07,3.02,-2.18,-1.41,1.46,2.14,12.9375,-30.875,9.9375,0.50616455078125,0.38543701171875,0.75634765625,-0.15228271484375,33.5,29.0625,61.1875,-8.65,1.56,-4.32,walking_forward,4
5.98,5.905226524,29,3,3,3,0,-10.0,2.61,-3.08,-1.31,1.03,1.18,7.375,-37.875,10.3125,0.508544921875,0.385986328125,0.75421142578125,-0.153564453125,33.5,29.0625,61.1875,-8.68,1.57,-4.27,walking_forward,4
5.99,5.91589193,29,3,3,3,0,-9.96,2.21,-4.19,-1.24,0.62,0.0,4.125,-47.0,10.4375,0.51165771484375,0.38623046875,0.751708984375,-0.15496826171875,33.5,29.0625,61.1875,-8.71,1.59,-4.2,walking_forward,4
6.0,5.91589193,29,3,3,3,0,-9.87,1.59,-5.37,-1.12,0.0,-1.25,7.125,-52.875,10.5,0.5150146484375,0.386474609375,0.74884033203125,-0.15673828125,33.5,29.0625,61.1875,-8.75,1.6,-4.12,walking_forward,4
6.0,5.930714846,29,3,3,3,0,-9.93,1.28,-5.21,-1.15,-0.32,-1.15,17.1875,-43.1875,10.4375,0.51739501953125,0.3873291015625,0.746337890625,-0.15887451171875,35.5,29.0625,60.0625,-8.78,1.6,-4.06,walking_forward,4
6.01,5.930714846,29,3,3,3,0,-9.93,1.28,-5.21,-1.15,-0.32,-1.15,17.1875,-43.1875,10.4375,0.51739501953125,0.3873291015625,0.746337890625,-0.15887451171875,35.5,29.0625,60.0625,-8.78,1.6,-4.06,walking_forward,4
6.02,5.945678307,29,3,3,3,0,-9.75,0.97,-4.69,-0.96,-0.62,-0.66,26.625,-24.4375,9.625,0.51824951171875,0.38885498046875,0.7445068359375,-0.16094970703125,35.5,29.0625,60.0625,-8.79,1.6,-4.03,walking_forward,4
6.03,5.945678307,29,3,3,3,0,-9.26,0.71,-3.57,-0.46,-0.87,0.45,29.125,-8.0,8.125,0.51788330078125,0.39056396484375,0.74346923828125,-0.16278076171875,35.5,29.0625,60.0625,-8.79,1.59,-4.02,walking_forward,4
6.04,5.976106163,29,3,3,3,0,-8.84,0.78,-3.27,-0.04,-0.8,0.76,26.1875,-0.8125,6.625,0.51715087890625,0.3922119140625,0.7427978515625,-0.1641845703125,35.5,29.0625,60.0625,-8.79,1.58,-4.03,walking_forward,4
6.05,5.976106163,29,3,3,3,0,-8.32,0.85,-3.2,0.46,-0.72,0.82,21.1875,0.9375,5.4375,0.5164794921875,0.39349365234375,0.74237060546875,-0.165283203125,35.5,29.0625,60.0625,-8.79,1.57,-4.03,walking_forward,4
6.06,5.99144678,29,3,3,3,0,-7.87,0.93,-3.27,0.91,-0.64,0.77,15.9375,3.0625,4.75,0.51580810546875,0.39459228515625,0.74212646484375,-0.16595458984375,35.875,28.375,58.0625,-8.79,1.57,-4.04,walking_forward,4
6.07,5.99144678,29,3,3,3,0,-6.99,1.18,-3.43,1.78,-0.38,0.62,12.875,5.5,4.3125,0.51507568359375,0.3955078125,0.74200439453125,-0.16644287109375,35.875,28.375,58.0625,-8.78,1.57,-4.06,walking_forward,4
6.08,6.015354291,29,3,3,3,0,-6.48,1.27,-3.38,2.29,-0.29,0.69,12.625,9.0625,4.375,0.51409912109375,0.396484375,0.7420654296875,-0.166748046875,35.875,28.375,58.0625,-8.77,1.57,-4.07,walking_forward,4
6.08,6.015354291,29,3,3,3,0,-5.98,1.35,-3.15,2.78,-0.21,0.94,13.3125,11.5,4.6875,0.512939453125,0.3975830078125,0.74224853515625,-0.1669921875,35.875,28.375,58.0625,-8.76,1.56,-4.09,walking_forward,4
6.1,6.036940432,29,3,3,3,0,-5.56,1.42,-2.77,3.19,-0.13,1.34,12.9375,11.625,4.75,0.5118408203125,0.39862060546875,0.742431640625,-0.16717529296875,35.875,28.375,58.0625,-8.76,1.56,-4.12,walking_forward,4
6.11,6.036940432,29,3,3,3,0,-5.03,1.74,-2.37,3.71,0.17,1.76,12.6875,9.75,4.875,0.51080322265625,0.399658203125,0.74249267578125,-0.16748046875,37.5625,27.0,58.5,-8.75,1.56,-4.13,walking_forward,4
6.12,6.051307091,29,3,3,3,0,-4.97,1.86,-2.2,3.76,0.29,1.94,12.3125,7.125,4.8125,0.510009765625,0.400634765625,0.742431640625,-0.16778564453125,37.5625,27.0,58.5,-8.74,1.56,-4.15,walking_forward,4
6.13,6.051307091,29,3,3,3,0,-4.92,1.96,-2.09,3.81,0.4,2.06,11.875,4.6875,4.3125,0.50933837890625,0.4014892578125,0.7423095703125,-0.168212890625,37.5625,27.0,58.5,-8.74,1.56,-4.16,walking_forward,4
6.14,6.066085981,29,3,3,3,0,-5.03,1.94,-1.99,3.69,0.37,2.17,11.4375,1.0,4.625,0.50897216796875,0.40234375,0.74200439453125,-0.168701171875,37.5625,27.0,58.5,-8.73,1.56,-4.16,walking_forward,4
6.15,6.066085981,29,3,3,3,0,-5.24,1.8,-1.97,3.49,0.23,2.18,10.4375,-4.25,5.375,0.50897216796875,0.403076171875,0.74151611328125,-0.16925048828125,37.5625,27.0,58.5,-8.74,1.56,-4.16,walking_forward,4
6.16,6.080922447,29,3,3,3,0,-5.26,1.83,-2.07,3.47,0.27,2.07,8.5625,-10.4375,6.0,0.50946044921875,0.40374755859375,0.74066162109375,-0.169921875,37.1875,27.5625,59.1875,-8.74,1.56,-4.15,walking_forward,4
6.17,6.080922447,29,3,3,3,0,-5.47,1.82,-2.22,3.27,0.25,1.9,6.75,-17.875,6.8125,0.51043701171875,0.4041748046875,0.73956298828125,-0.17071533203125,37.1875,27.5625,59.1875,-8.75,1.57,-4.12,walking_forward,4
6.18,6.111100629,29,3,3,3,0,-5.89,1.82,-2.42,2.87,0.24,1.65,5.75,-25.6875,7.5625,0.51202392578125,0.404541015625,0.738037109375,-0.171630859375,37.1875,27.5625,59.1875,-8.77,1.57,-4.08,walking_forward,4
6.19,6.111100629,29,3,3,3,0,-6.76,1.79,-3.09,2.02,0.21,0.94,5.5625,-32.0625,7.6875,0.5140380859375,0.40484619140625,0.73626708984375,-0.17279052734375,37.1875,27.5625,59.1875,-8.79,1.58,-4.03,walking_forward,4
6.2,6.125599734,29,3,3,3,0,-7.04,1.83,-3.53,1.76,0.23,0.45,5.4375,-33.3125,7.125,0.51605224609375,0.405029296875,0.734375,-0.1739501953125,37.1875,27.5625,59.1875,-8.81,1.59,-3.98,walking_forward,4
6.21,6.125599734,29,3,3,3,0,-7.32,1.87,-4.05,1.51,0.27,-0.11,5.4375,-32.125,7.0625,0.51806640625,0.4052734375,0.73260498046875,-0.17510986328125,37.5625,27.0,57.0625,-8.83,1.6,-3.94,walking_forward,4
6.22,6.1561095,29,3,3,3,0,-7.85,2.04,-5.13,1.0,0.43,-1.24,7.125,-31.8125,6.75,0.51995849609375,0.405517578125,0.7308349609375,-0.1763916015625,37.5625,27.0,57.0625,-8.85,1.6,-3.89,walking_forward,4
6.23,6.1561095,29,3,3,3,0,-8.16,2.08,-5.61,0.71,0.47,-1.76,10.875,-31.375,6.0,0.52166748046875,0.40594482421875,0.72900390625,-0.17791748046875,37.5625,27.0,57.0625,-8.87,1.6,-3.84,walking_forward,4
6.24,6.171492475,29,3,3,3,0,-8.58,2.16,-5.85,0.31,0.55,-2.04,16.4375,-27.9375,5.75,0.52294921875,0.4066162109375,0.72723388671875,-0.1796875,37.5625,27.0,57.0625,-8.89,1.6,-3.8,walking_forward,4
6.25,6.171492475,29,3,3,3,0,-9.0,2.18,-5.87,-0.09,0.58,-2.08,21.25,-19.875,5.4375,0.5235595703125,0.40765380859375,0.725830078125,-0.18145751953125,37.5625,27.0,57.0625,-8.9,1.6,-3.78,walking_forward,4
6.26,6.202474042,29,3,3,3,0,-9.46,2.18,-5.91,-0.55,0.58,-2.14,24.25,-10.9375,4.6875,0.5234375,0.40887451171875,0.7247314453125,-0.18316650390625,39.0,26.1875,57.5625,-8.9,1.59,-3.77,walking_forward,4
6.27,6.202474042,29,3,3,3,0,-9.59,2.16,-5.97,-0.68,0.57,-2.19,25.75,-3.4375,2.8125,0.5228271484375,0.41015625,0.72406005859375,-0.184814453125,39.0,26.1875,57.5625,-8.91,1.58,-3.77,walking_forward,4
6.28,6.207403648,29,3,3,3,0,-9.7,2.17,-6.03,-0.79,0.6,-2.25,25.875,2.6875,0.75,0.521728515625,0.41143798828125,0.7237548828125,-0.186279296875,39.0,26.1875,57.5625,-8.9,1.56,-3.78,walking_forward,4
6.29,6.207403648,29,3,3,3,0,-9.7,2.17,-6.03,-0.79,0.6,-2.25,25.875,2.6875,0.75,0.521728515625,0.41143798828125,0.7237548828125,-0.186279296875,39.0,26.1875,57.5625,-8.9,1.56,-3.78,walking_forward,4
6.29,6.215808881,29,3,3,3,0,-9.91,2.2,-5.93,-1.0,0.65,-2.13,25.875,6.8125,-0.5625,0.52032470703125,0.4127197265625,0.72369384765625,-0.18768310546875,39.0,26.1875,57.5625,-8.9,1.54,-3.8,walking_forward,4
6.3,6.215808881,29,3,3,3,0,-10.44,2.46,-5.62,-1.54,0.93,-1.8,25.4375,9.1875,-1.25,0.518798828125,0.4139404296875,0.72369384765625,-0.18902587890625,39.0,26.1875,57.5625,-8.89,1.52,-3.82,walking_forward,4
6.31,6.248671308,29,3,3,3,0,-10.72,2.61,-5.51,-1.83,1.1,-1.67,22.875,8.75,-1.375,0.51739501953125,0.4150390625,0.7237548828125,-0.190185546875,40.0625,24.75,56.375,-8.89,1.51,-3.84,walking_forward,4
6.32,6.248671308,29,3,3,3,0,-10.94,2.88,-5.54,-2.05,1.38,-1.68,17.8125,5.9375,-0.3125,0.516357421875,0.41595458984375,0.7237548828125,-0.1910400390625,40.0625,24.75,56.375,-8.88,1.5,-3.86,walking_forward,4
6.33,6.261243777,29,3,3,3,0,-11.27,3.2,-5.77,-2.39,1.7,-1.9,11.625,2.75,0.375,0.5157470703125,0.41656494140625,0.72369384765625,-0.19171142578125,40.0625,24.75,56.375,-8.88,1.49,-3.86,walking_forward,4
6.34,6.261243777,29,3,3,3,0,-11.81,3.53,-6.25,-2.93,2.04,-2.38,5.125,2.625,0.6875,0.51544189453125,0.4168701171875,0.72369384765625,-0.19183349609375,40.0625,24.75,56.375,-8.88,1.49,-3.87,walking_forward,4
6.35,6.277650678,29,3,3,3,0,-12.11,3.49,-6.46,-3.23,2.0,-2.57,1.3125,7.6875,0.5625,0.514892578125,0.4171142578125,0.7239990234375,-0.191650390625,40.0625,24.75,56.375,-8.87,1.49,-3.88,walking_forward,4
6.36,6.277650678,29,3,3,3,0,-12.37,3.26,-6.44,-3.51,1.77,-2.53,2.375,15.25,0.0,0.51385498046875,0.41748046875,0.72467041015625,-0.19122314453125,40.0625,26.1875,56.0,-8.86,1.49,-3.91,walking_forward,4
6.37,6.307110639,29,3,3,3,0,-12.68,2.51,-6.08,-3.82,1.03,-2.14,6.6875,21.4375,-1.5,0.51220703125,0.4180908203125,0.72552490234375,-0.19091796875,40.0625,26.1875,56.0,-8.85,1.48,-3.94,walking_forward,4
6.38,6.307110639,29,3,3,3,0,-12.56,2.13,-5.89,-3.72,0.66,-1.91,12.375,23.375,-3.875,0.51019287109375,0.41876220703125,0.72650146484375,-0.19097900390625,40.0625,26.1875,56.0,-8.83,1.46,-3.98,walking_forward,4
6.39,6.321086306,29,3,3,3,0,-12.36,1.72,-5.73,-3.54,0.27,-1.7,17.625,23.125,-6.9375,0.50799560546875,0.41949462890625,0.7275390625,-0.1915283203125,40.0625,26.1875,56.0,-8.82,1.44,-4.02,walking_forward,4
6.4,6.321086306,29,3,3,3,0,-12.05,1.3,-5.51,-3.24,-0.11,-1.44,22.625,24.9375,-9.3125,0.50537109375,0.42034912109375,0.72857666015625,-0.19244384765625,40.0625,26.1875,56.0,-8.8,1.41,-4.07,walking_forward,4
6.41,6.336632734,29,3,3,3,0,-11.55,0.69,-4.52,-2.76,-0.69,-0.4,26.5625,29.4375,-10.375,0.50238037109375,0.42138671875,0.72979736328125,-0.1934814453125,38.5625,26.1875,56.75,-8.79,1.38,-4.12,walking_forward,4
6.42,6.336632734,29,3,3,3,0,-11.62,0.7,-3.76,-2.85,-0.64,0.4,28.75,32.75,-10.375,0.4990234375,0.42254638671875,0.73114013671875,-0.194580078125,38.5625,26.1875,56.75,-8.76,1.34,-4.17,walking_forward,4
6.43,6.367177371,29,3,3,3,0,-11.46,0.66,-3.2,-2.71,-0.64,1.03,28.0625,34.25,-10.0,0.49560546875,0.4237060546875,0.7325439453125,-0.19549560546875,38.5625,26.1875,56.75,-8.74,1.3,-4.23,walking_forward,4
6.44,6.367177371,29,3,3,3,0,-11.17,0.66,-2.8,-2.45,-0.61,1.49,23.6875,36.375,-9.1875,0.49224853515625,0.42474365234375,0.7340087890625,-0.196044921875,38.5625,26.1875,56.75,-8.72,1.27,-4.29,walking_forward,4
6.45,6.381737999,29,3,3,3,0,-10.63,0.22,-2.48,-1.94,-1.03,1.88,17.6875,38.8125,-7.5625,0.489013671875,0.42572021484375,0.73565673828125,-0.196044921875,38.5625,26.1875,56.75,-8.69,1.25,-4.36,walking_forward,4
6.46,6.381737999,29,3,3,3,0,-10.21,-0.07,-2.39,-1.55,-1.3,2.03,12.125,40.0,-5.875,0.48590087890625,0.426513671875,0.73736572265625,-0.19561767578125,39.375,26.1875,58.75,-8.66,1.23,-4.42,walking_forward,4
6.47,6.397279991,29,3,3,3,0,-9.62,-0.39,-2.35,-0.98,-1.61,2.13,7.375,38.6875,-4.9375,0.4830322265625,0.42718505859375,0.73907470703125,-0.19482421875,39.375,26.1875,58.75,-8.63,1.22,-4.48,walking_forward,4
6.48,6.397279991,29,3,3,3,0,-9.1,-0.67,-2.43,-0.5,-1.88,2.1,1.625,34.0,-4.6875,0.480712890625,0.42755126953125,0.74066162109375,-0.19384765625,39.375,26.1875,58.75,-8.6,1.21,-4.53,walking_forward,4
6.49,6.426663821,29,3,3,3,0,-7.94,-1.02,-2.16,0.64,-2.23,2.41,-5.0,27.3125,-5.25,0.47900390625,0.42742919921875,0.7420654296875,-0.1927490234375,39.375,26.1875,58.75,-8.58,1.21,-4.57,walking_forward,4
6.5,6.426663821,29,3,3,3,0,-7.67,-1.06,-1.95,0.89,-2.27,2.64,-11.3125,21.9375,-5.625,0.4779052734375,0.427001953125,0.743408203125,-0.19140625,39.375,26.1875,58.75,-8.57,1.21,-4.6,walking_forward,4
6.51,6.441435021,29,3,3,3,0,-7.47,-1.0,-1.7,1.08,-2.22,2.92,-17.6875,16.6875,-6.9375,0.4774169921875,0.42608642578125,0.74462890625,-0.18994140625,37.5625,27.0,60.0,-8.55,1.21,-4.62,walking_forward,4
6.52,6.441435021,29,3,3,3,0,-7.47,-0.87,-1.49,1.07,-2.09,3.14,-24.5,11.4375,-8.75,0.4774169921875,0.4246826171875,0.745849609375,-0.18829345703125,37.5625,27.0,60.0,-8.55,1.22,-4.64,walking_forward,4
6.53,6.456615318,29,3,3,3,0,-7.72,-0.26,-1.41,0.81,-1.49,3.22,-30.375,6.75,-9.9375,0.47796630859375,0.4228515625,0.74700927734375,-0.18646240234375,37.5625,27.0,60.0,-8.54,1.23,-4.64,walking_forward,4
6.54,6.456615318,29,3,3,3,0,-7.77,0.0,-1.73,0.77,-1.23,2.9,-36.0625,1.375,-10.5,0.47900390625,0.420654296875,0.74798583984375,-0.18450927734375,37.5625,27.0,60.0,-8.55,1.24,-4.63,walking_forward,4
6.55,6.471456708,29,3,3,3,0,-7.79,0.23,-2.2,0.76,-1.02,2.41,-42.8125,-6.625,-11.0,0.4808349609375,0.41802978515625,0.74884033203125,-0.18243408203125,37.5625,27.0,60.0,-8.55,1.26,-4.61,walking_forward,4
6.56,6.471456708,29,3,3,3,0,-7.8,0.85,-3.55,0.77,-0.43,1.03,-48.375,-15.375,-10.6875,0.48345947265625,0.4150390625,0.74932861328125,-0.1802978515625,36.75,25.75,60.75,-8.57,1.28,-4.58,walking_forward,4
6.56,6.486555707,29,3,3,3,0,-7.8,0.85,-3.55,0.77,-0.43,1.03,-48.375,-15.375,-10.6875,0.48345947265625,0.4150390625,0.74932861328125,-0.1802978515625,36.75,25.75,60.75,-8.57,1.28,-4.58,walking_forward,4
6.57,6.486555707,29,3,3,3,0,-7.8,1.19,-4.0,0.78,-0.11,0.53,-50.75,-20.1875,-9.5625,0.4864501953125,0.4119873046875,0.74957275390625,-0.1781005859375,36.75,25.75,60.75,-8.59,1.31,-4.54,walking_forward,4
6.58,6.516273888,29,3,3,3,0,-7.76,1.52,-4.25,0.84,0.18,0.24,-49.4375,-18.9375,-7.9375,0.4893798828125,0.4090576171875,0.74981689453125,-0.1759033203125,36.75,25.75,60.75,-8.6,1.33,-4.5,walking_forward,4
6.59,6.516273888,29,3,3,3,0,-7.81,1.76,-4.28,0.8,0.4,0.18,-45.625,-15.8125,-5.875,0.491943359375,0.40643310546875,0.75006103515625,-0.17376708984375,36.75,25.75,60.75,-8.62,1.36,-4.46,walking_forward,4
6.6,6.532255048,29,3,3,3,0,-7.85,2.12,-4.05,0.77,0.73,0.38,-42.0,-12.8125,-4.375,0.49420166015625,0.4041748046875,0.75030517578125,-0.171630859375,36.75,25.75,60.75,-8.63,1.39,-4.43,walking_forward,4
6.61,6.532255048,29,3,3,3,0,-7.82,2.19,-3.98,0.82,0.78,0.43,-38.875,-9.875,-2.625,0.4962158203125,0.40216064453125,0.75054931640625,-0.1695556640625,36.6875,24.0625,62.5625,-8.64,1.41,-4.41,walking_forward,4
6.62,6.546437177,29,3,3,3,0,-7.69,2.18,-3.92,0.95,0.74,0.47,-36.875,-6.75,-2.0,0.4979248046875,0.40032958984375,0.7508544921875,-0.16748046875,36.6875,24.0625,62.5625,-8.64,1.44,-4.39,walking_forward,4
6.63,6.546437177,29,3,3,3,0,-7.48,2.13,-3.8,1.17,0.67,0.56,-35.0,-4.375,-1.75,0.49945068359375,0.39862060546875,0.751220703125,-0.16546630859375,36.6875,24.0625,62.5625,-8.65,1.46,-4.37,walking_forward,4
6.64,6.561154178,29,3,3,3,0,-6.97,2.01,-3.83,1.67,0.52,0.52,-32.125,-3.5625,-1.75,0.500732421875,0.39703369140625,0.7515869140625,-0.16351318359375,36.6875,24.0625,62.5625,-8.65,1.48,-4.36,walking_forward,4
6.65,6.561154178,29,3,3,3,0,-6.79,1.94,-3.77,1.86,0.43,0.57,-28.375,-5.125,-2.125,0.5020751953125,0.39556884765625,0.7518310546875,-0.16192626953125,36.6875,24.0625,62.5625,-8.65,1.5,-4.34,walking_forward,4
6.66,6.593448855,29,3,3,3,0,-6.59,1.84,-3.64,2.07,0.31,0.68,-23.6875,-8.1875,-2.6875,0.50341796875,0.39422607421875,0.75189208984375,-0.16082763671875,37.5,23.0625,62.1875,-8.66,1.52,-4.32,walking_forward,4
6.67,6.593448855,29,3,3,3,0,-6.48,1.78,-3.5,2.19,0.25,0.8,-18.75,-12.0,-3.25,0.5047607421875,0.39300537109375,0.751708984375,-0.16015625,37.5,23.0625,62.1875,-8.67,1.52,-4.3,walking_forward,4
6.68,6.605748579,29,3,3,3,0,-6.25,1.73,-3.32,2.43,0.2,0.94,-14.3125,-16.5,-3.875,0.50634765625,0.39190673828125,0.7513427734375,-0.159912109375,37.5,23.0625,62.1875,-8.69,1.53,-4.27,walking_forward,4
6.69,6.605748579,29,3,3,3,0,-6.28,1.69,-3.25,2.42,0.16,0.98,-10.6875,-21.5625,-4.375,0.508056640625,0.39080810546875,0.75067138671875,-0.16015625,37.5,23.0625,62.1875,-8.7,1.53,-4.24,walking_forward,4
6.7,6.621501264,29,3,3,3,0,-6.38,1.6,-3.29,2.34,0.06,0.9,-8.125,-26.0625,-4.25,0.510009765625,0.38983154296875,0.749755859375,-0.16070556640625,37.5,23.0625,62.1875,-8.72,1.53,-4.19,walking_forward,4
6.71,6.621501264,29,3,3,3,0,-6.7,1.41,-3.54,2.04,-0.12,0.6,-6.0625,-30.4375,-3.4375,0.51214599609375,0.38885498046875,0.74859619140625,-0.1614990234375,37.5,22.25,61.0,-8.75,1.53,-4.15,walking_forward,4
6.72,6.652532718,29,3,3,3,0,-6.91,1.28,-3.66,1.85,-0.24,0.43,-3.6875,-33.0,-2.3125,0.514404296875,0.3880615234375,0.74725341796875,-0.1624755859375,37.5,22.25,61.0,-8.77,1.53,-4.09,walking_forward,4
