timestamp,android_nano_timestamp,temperature,calib_mag,calib_accel,calib_gyro,calib_sys,acc_x,acc_y,acc_z,lacc_x,lacc_y,lacc_z,gyro_x,gyro_y,gyro_z,quat_w,quat_x,quat_y,quat_z,mag_x,mag_y,mag_z,gravity_x,gravity_y,gravity_z,label,person
1.44,1.398560588,24,3,3,3,3,-240.0,8.85,-0.46,0.22,-0.58,-0.03,-0.88,1.8125,6.8125,680.125,0.6148681640625,0.37939453125,0.19195556640625,0.029,-30.5,-17.5,-16.375,9.43,-0.43,climb_up,6
1.45,1.398560588,24,3,3,3,3,-240.0,8.72,-0.51,0.21,-0.72,-0.09,-1.04,1.1875,6.6875,680.3125,0.61468505859375,0.3790283203125,0.192626953125,0.029,-30.875,-17.5,-16.3125,9.44,-0.42,climb_up,6
1.46,1.401619833,24,3,3,3,3,-244.0,8.68,-0.49,0.16,-0.75,-0.08,-1.23,2.375,6.4375,680.5625,0.61444091796875,0.378662109375,0.19342041015625,0.029,-30.875,-17.5,-16.25,9.44,-0.4,climb_up,6
1.47,1.401619833,24,3,3,3,3,-252.0,8.78,-0.41,0.06,-0.66,-0.01,-1.48,4.125,6.0625,680.8125,0.614013671875,0.37841796875,0.19427490234375,0.029,-30.875,-17.5,-16.1875,9.44,-0.39,climb_up,6
1.48,1.41329594,24,3,3,3,3,-268.0,9.46,-0.2,-0.1,0.01,0.18,-1.71,4.125,5.4375,681.1875,0.61346435546875,0.378173828125,0.1951904296875,0.029,-30.875,-17.5,-16.125,9.45,-0.38,climb_up,6
1.49,1.41329594,24,3,3,3,3,-278.0,9.73,-0.15,-0.2,0.28,0.2,-1.87,2.6875,4.625,681.625,0.6129150390625,0.3779296875,0.19598388671875,0.029,-30.875,-17.5,-16.0625,9.45,-0.36,climb_up,6
1.5,1.443704713,24,3,3,3,3,-282.0,9.98,-0.21,-0.25,0.52,0.12,-1.78,-0.5,3.6875,682.1875,0.61236572265625,0.37750244140625,0.196533203125,0.0276,-31.5625,-16.75,-16.0625,9.45,-0.34,climb_up,6
1.51,1.443704713,24,3,3,3,3,-275.0,10.13,-0.39,-0.18,0.67,-0.07,-1.59,-5.4375,2.75,682.875,0.61199951171875,0.37689208984375,0.19677734375,0.0276,-31.5625,-16.75,-16.0,9.45,-0.32,climb_up,6
1.52,1.457911134,24,3,3,3,3,-234.0,10.68,-0.64,0.22,1.22,-0.34,-1.45,-10.0,2.625,683.6875,0.6116943359375,0.3759765625,0.1966552734375,0.0276,-31.5625,-16.75,-16.0,9.46,-0.3,climb_up,6
1.53,1.457911134,24,3,3,3,3,-206.0,10.89,-0.72,0.49,1.43,-0.43,-1.42,-14.6875,3.0,684.5625,0.611572265625,0.37481689453125,0.19635009765625,0.0276,-31.5625,-16.75,-15.9375,9.46,-0.28,climb_up,6
1.54,1.488295086,24,3,3,3,3,-183.0,10.92,-0.8,0.71,1.45,-0.54,-1.25,-19.25,3.5625,685.625,0.611572265625,0.3734130859375,0.19580078125,0.0276,-31.5625,-16.75,-15.9375,9.46,-0.26,climb_up,6
1.55,1.488295086,24,3,3,3,3,-160.0,10.84,-0.86,0.94,1.37,-0.62,-0.75,-23.1875,4.9375,686.5625,0.61181640625,0.3717041015625,0.19500732421875,0.0283,-30.5,-16.75,-15.875,9.46,-0.24,climb_up,6
1.56,1.502925335,24,3,3,3,3,-108.0,10.42,-0.75,1.45,0.95,-0.52,-0.21,-25.9375,6.125,687.375,0.61236572265625,0.36981201171875,0.19403076171875,0.0283,-30.5,-16.75,-15.8125,9.46,-0.23,climb_up,6
1.57,1.502925335,24,3,3,3,3,-73.0,10.29,-0.64,1.79,0.82,-0.42,0.26,-29.625,7.4375,688.125,0.61322021484375,0.36767578125,0.19281005859375,0.0283,-30.5,-16.75,-15.75,9.47,-0.22,climb_up,6
1.58,1.518597169,24,3,3,3,3,-46.0,10.2,-0.58,2.04,0.72,-0.37,0.68,-34.125,8.0,688.875,0.61431884765625,0.3653564453125,0.1912841796875,0.0283,-30.5,-16.75,-15.6875,9.47,-0.21,climb_up,6
1.59,1.518597169,24,3,3,3,3,-11.0,10.0,-0.54,2.39,0.52,-0.33,0.89,-36.4375,7.5625,689.625,0.615478515625,0.3629150390625,0.18963623046875,0.0283,-30.5,-16.75,-15.625,9.47,-0.2,climb_up,6
1.6,1.548932415,24,3,3,3,3,-13.0,10.09,-0.56,2.36,0.61,-0.36,0.8,-34.5,6.625,690.3125,0.6165771484375,0.360595703125,0.18798828125,0.0276,-32.0,-17.5,-15.5625,9.48,-0.19,climb_up,6
1.61,1.548932415,24,3,3,3,3,-12.0,10.08,-0.54,2.36,0.59,-0.35,0.24,-31.1875,5.8125,691.125,0.61737060546875,0.35845947265625,0.1866455078125,0.0276,-32.0,-17.5,-15.5,9.48,-0.18,climb_up,6
1.62,1.563198406,24,3,3,3,3,-23.0,10.35,-0.46,2.23,0.86,-0.29,-0.35,-28.625,5.3125,692.125,0.61785888671875,0.3564453125,0.18548583984375,0.0276,-32.0,-17.5,-15.4375,9.48,-0.17,climb_up,6
1.63,1.563198406,24,3,3,3,3,-48.0,10.51,-0.4,1.98,1.02,-0.25,-0.73,-26.9375,5.1875,693.125,0.6181640625,0.3544921875,0.18450927734375,0.0276,-32.0,-17.5,-15.375,9.48,-0.15,climb_up,6
1.64,1.578572511,24,3,3,3,3,-80.0,10.56,-0.49,1.65,1.07,-0.36,-0.82,-26.1875,5.25,694.125,0.61846923828125,0.3525390625,0.18353271484375,0.0276,-32.0,-17.5,-15.375,9.49,-0.13,climb_up,6
1.65,1.578572511,24,3,3,3,3,-114.0,10.62,-0.62,1.3,1.12,-0.51,-0.85,-25.125,5.3125,695.125,0.61871337890625,0.3507080078125,0.18267822265625,0.0266,-30.5,-18.6875,-15.3125,9.49,-0.11,climb_up,6
1.66,1.60827352,24,3,3,3,3,-138.0,10.53,-0.78,1.05,1.03,-0.69,-0.96,-23.9375,5.0,696.125,0.618896484375,0.348876953125,0.181884765625,0.0266,-30.5,-18.6875,-15.25,9.49,-0.09,climb_up,6
1.67,1.60827352,24,3,3,3,3,-185.0,10.2,-1.12,0.58,0.7,-1.05,-1.07,-23.75,4.6875,697.125,0.61907958984375,0.34710693359375,0.18109130859375,0.0266,-30.5,-18.6875,-15.1875,9.49,-0.07,climb_up,6
1.68,1.623137696,24,3,3,3,3,-198.0,10.02,-1.22,0.44,0.52,-1.16,-0.97,-25.25,4.125,698.1875,0.61920166015625,0.34527587890625,0.18017578125,0.0266,-30.5,-18.6875,-15.125,9.5,-0.05,climb_up,6
1.69,1.623137696,24,3,3,3,3,-200.0,9.85,-1.26,0.42,0.35,-1.23,-0.5,-28.5,3.875,699.1875,0.61962890625,0.34332275390625,0.178955078125,0.0266,-30.5,-18.6875,-15.125,9.5,-0.03,climb_up,6
1.7,1.638536378,24,3,3,3,3,-191.0,9.59,-1.28,0.49,0.09,-1.25,0.15,-32.4375,3.8125,700.0625,0.62030029296875,0.3411865234375,0.17742919921875,0.0276,-31.1875,-19.0625,-15.0625,9.5,-0.02,climb_up,6
1.71,1.638536378,24,3,3,3,3,-156.0,9.12,-1.19,0.84,-0.38,-1.18,0.77,-34.8125,3.625,700.75,0.62127685546875,0.33892822265625,0.1756591796875,0.0276,-31.1875,-19.0625,-15.0,9.5,-0.01,climb_up,6
1.72,1.66801937,24,3,3,3,3,-138.0,8.84,-1.05,1.02,-0.66,-1.04,1.15,-34.5625,2.9375,701.3125,0.622314453125,0.3367919921875,0.17376708984375,0.0276,-31.1875,-19.0625,-15.0,9.5,-0.01,climb_up,6
1.73,1.66801937,24,3,3,3,3,-125.0,8.62,-0.92,1.14,-0.88,-0.9,1.34,-34.1875,2.25,701.875,0.6234130859375,0.33477783203125,0.17181396484375,0.0276,-31.1875,-19.0625,-14.9375,9.5,-0.01,climb_up,6
1.74,1.683227215,24,3,3,3,3,-110.0,8.48,-0.77,1.29,-1.02,-0.75,1.34,-34.75,1.1875,702.375,0.62451171875,0.332763671875,0.16973876953125,0.0276,-31.1875,-19.0625,-14.9375,9.5,-0.01,climb_up,6
1.75,1.683227215,24,3,3,3,3,-106.0,8.66,-0.66,1.33,-0.84,-0.65,1.17,-35.25,0.0,703.0,0.62542724609375,0.330810546875,0.167724609375,0.0272,-32.0,-19.5,-14.9375,9.5,-0.01,climb_up,6
1.76,1.698395997,24,3,3,3,3,-111.0,8.9,-0.65,1.27,-0.6,-0.64,0.92,-37.0,-1.1875,703.75,0.62628173828125,0.3287353515625,0.16546630859375,0.0272,-32.0,-19.5,-14.9375,9.5,0.0,climb_up,6
1.77,1.698395997,24,3,3,3,3,-117.0,8.89,-0.68,1.22,-0.61,-0.68,0.67,-37.125,-1.875,704.625,0.62701416015625,0.32666015625,0.1632080078125,0.0272,-32.0,-19.5,-15.0,9.5,0.0,climb_up,6
1.78,1.729276938,24,3,3,3,3,-153.0,8.95,-0.59,0.87,-0.55,-0.6,0.51,-34.25,-2.625,705.4375,0.62762451171875,0.3248291015625,0.1611328125,0.0272,-32.0,-19.5,-15.0,9.5,0.01,climb_up,6
1.79,1.729276938,24,3,3,3,3,-171.0,8.81,-0.52,0.69,-0.69,-0.54,0.31,-31.0625,-2.9375,706.25,0.62811279296875,0.3231201171875,0.1591796875,0.0272,-32.0,-19.5,-15.0,9.5,0.02,climb_up,6
1.8,1.743240154,24,3,3,3,3,-191.0,8.77,-0.44,0.49,-0.73,-0.48,0.21,-29.125,-4.0,707.5,0.6292724609375,0.320068359375,0.1556396484375,0.0244,-31.1875,-21.375,-15.0625,9.5,0.03,climb_up,6
1.81,1.743240154,24,3,3,3,3,-205.0,8.82,-0.37,0.37,-0.68,-0.41,0.15,-29.25,-5.25,708.3125,0.629638671875,0.318603515625,0.15374755859375,0.0244,-31.1875,-21.375,-15.125,9.5,0.04,climb_up,6
1.82,1.757775636,24,3,3,3,3,-223.0,9.03,-0.28,0.2,-0.46,-0.33,0.2,-29.875,-6.75,709.1875,0.62994384765625,0.317138671875,0.15167236328125,0.0244,-31.1875,-21.375,-15.1875,9.49,0.05,climb_up,6
1.83,1.757775636,24,3,3,3,3,-225.0,9.21,-0.27,0.18,-0.27,-0.33,0.4,-31.4375,-7.875,710.0,0.63031005859375,0.31573486328125,0.14935302734375,0.0244,-31.1875,-21.375,-15.25,9.49,0.06,climb_up,6
1.84,1.788194215,24,3,3,3,3,-234.0,9.39,-0.36,0.11,-0.1,-0.43,0.54,-32.3125,-8.875,710.8125,0.63067626953125,0.31427001953125,0.14697265625,0.0244,-31.1875,-21.375,-15.375,9.49,0.06,climb_up,6
1.85,1.788194215,24,3,3,3,3,-240.0,9.52,-0.45,0.07,0.03,-0.53,0.32,-31.0625,-10.125,711.75,0.631103515625,0.31268310546875,0.144287109375,0.0251,-32.25,-21.75,-15.4375,9.48,0.07,climb_up,6
1.86,1.803035524,24,3,3,3,3,-247.0,9.62,-0.62,0.01,0.13,-0.71,-0.02,-28.0,-11.0,712.6875,0.63116455078125,0.31158447265625,0.14208984375,0.0251,-32.25,-21.75,-15.5625,9.48,0.08,climb_up,6
1.87,1.803035524,24,3,3,3,3,-244.0,9.53,-0.73,0.07,0.06,-0.83,-0.27,-25.1875,-11.4375,713.625,0.63104248046875,0.3106689453125,0.14007568359375,0.0251,-32.25,-21.75,-15.6875,9.47,0.1,climb_up,6
1.88,1.817770875,24,3,3,3,3,-243.0,9.53,-0.8,0.09,0.06,-0.92,-0.16,-23.1875,-12.375,714.4375,0.6309814453125,0.3099365234375,0.1380615234375,0.0251,-32.25,-21.75,-15.8125,9.47,0.11,climb_up,6
1.89,1.817770875,24,3,3,3,3,-251.0,9.49,-0.86,0.03,0.02,-0.98,0.28,-22.125,-12.875,715.0625,0.6309814453125,0.30926513671875,0.13604736328125,0.0251,-32.25,-21.75,-15.9375,9.46,0.12,climb_up,6
1.9,1.848536419,24,3,3,3,3,-257.0,9.52,-0.81,0.0,0.05,-0.94,0.67,-19.5,-13.625,715.625,0.63128662109375,0.30859375,0.1336669921875,0.0244,-32.0,-22.1875,-16.0625,9.46,0.12,climb_up,6
1.91,1.848536419,24,3,3,3,3,-262.0,9.51,-0.76,-0.02,0.05,-0.88,0.74,-16.0,-14.4375,715.9375,0.63140869140625,0.30841064453125,0.13177490234375,0.0244,-32.0,-22.1875,-16.1875,9.45,0.12,climb_up,6
1.92,1.863202027,24,3,3,3,3,-267.0,9.42,-0.68,-0.04,-0.01,-0.8,0.49,-12.5,-15.4375,716.25,0.63134765625,0.30853271484375,0.13006591796875,0.0244,-32.0,-22.1875,-16.375,9.44,0.12,climb_up,6
1.93,1.863202027,24,3,3,3,3,-255.0,9.15,-0.7,0.09,-0.28,-0.8,-0.01,-10.9375,-16.0625,715.8125,0.63189697265625,0.30914306640625,0.12835693359375,0.0244,-32.0,-22.1875,-16.5,9.44,0.1,climb_up,6
1.94,1.877589072,24,3,3,3,3,-242.0,9.07,-0.78,0.25,-0.35,-0.89,-0.57,-11.4375,-16.5625,716.5,0.63134765625,0.309326171875,0.1268310546875,0.0244,-32.0,-22.1875,-16.6875,9.43,0.11,climb_up,6
1.95,1.877589072,24,3,3,3,3,-221.0,9.16,-0.89,0.48,-0.26,-1.02,-0.97,-12.625,-16.8125,717.3125,0.6304931640625,0.30975341796875,0.125732421875,0.0259,-30.875,-22.1875,-16.875,9.42,0.12,climb_up,6
1.96,1.908687745,24,3,3,3,3,-200.0,9.24,-1.02,0.72,-0.17,-1.17,-1.24,-13.0,-17.1875,718.3125,0.62969970703125,0.309814453125,0.12420654296875,0.0259,-30.875,-22.1875,-17.0,9.41,0.14,climb_up,6
1.97,1.908687745,24,3,3,3,3,-175.0,9.63,-1.31,1.0,0.22,-1.47,-1.37,-11.8125,-17.25,719.25,0.62890625,0.3099365234375,0.12274169921875,0.0259,-30.875,-22.1875,-17.1875,9.4,0.16,climb_up,6
1.98,1.92266618,24,3,3,3,3,-177.0,9.98,-1.4,1.01,0.58,-1.59,-1.45,-9.1875,-16.875,720.1875,0.62799072265625,0.31024169921875,0.12139892578125,0.0259,-30.875,-22.1875,-17.375,9.4,0.18,climb_up,6
1.99,1.92266618,24,3,3,3,3,-184.0,10.35,-1.48,0.96,0.96,-1.68,-1.51,-5.375,-16.75,721.0625,0.62701416015625,0.3106689453125,0.120361328125,0.0259,-30.875,-22.1875,-17.5625,9.39,0.2,climb_up,6
2.0,1.937746705,24,3,3,3,3,-199.0,10.78,-1.51,0.84,1.4,-1.73,-1.46,-1.75,-16.75,721.75,0.62603759765625,0.3114013671875,0.1195068359375,0.0247,-30.875,-22.1875,-17.6875,9.38,0.21,climb_up,6
2.01,1.937746705,24,3,3,3,3,-236.0,11.66,-1.58,0.5,2.28,-1.81,-1.3,0.3125,-16.5625,722.375,0.6251220703125,0.31219482421875,0.11871337890625,0.0247,-30.875,-22.1875,-17.875,9.37,0.23,climb_up,6
2.02,1.953007529,24,3,3,3,3,-247.0,11.9,-1.65,0.41,2.54,-1.89,-0.96,1.3125,-16.875,722.8125,0.62432861328125,0.31317138671875,0.117919921875,0.0247,-30.875,-22.1875,-18.0625,9.36,0.23,climb_up,6
2.03,1.953007529,24,3,3,3,3,-256.0,12.15,-1.79,0.35,2.79,-2.03,-0.35,0.5,-16.875,723.125,0.62371826171875,0.31402587890625,0.116943359375,0.0247,-30.875,-22.1875,-18.1875,9.35,0.24,climb_up,6
2.04,1.983817547,24,3,3,3,3,-255.0,12.6,-1.8,0.39,3.25,-2.04,0.41,-0.6875,-16.875,723.125,0.62347412109375,0.31494140625,0.11578369140625,0.0247,-30.875,-22.1875,-18.375,9.35,0.23,climb_up,6
2.05,1.983817547,24,3,3,3,3,-219.0,13.09,-1.7,0.77,3.75,-1.93,0.86,0.8125,-17.4375,722.8125,0.62298583984375,0.31671142578125,0.11541748046875,0.028,-30.875,-24.0625,-18.5625,9.34,0.22,climb_up,6
2.06,1.998906577,24,3,3,3,3,-202.0,12.92,-1.68,0.98,3.59,-1.9,1.3,2.3125,-18.875,722.5,0.62298583984375,0.31793212890625,0.11419677734375,0.028,-30.875,-24.0625,-18.75,9.33,0.21,climb_up,6
2.07,1.998906577,24,3,3,3,3,-193.0,12.6,-1.73,1.1,3.28,-1.92,1.9,3.25,-21.3125,721.875,0.62310791015625,0.31939697265625,0.11273193359375,0.028,-30.875,-24.0625,-18.9375,9.32,0.19,climb_up,6
2.08,2.02926408,24,3,3,3,3,-214.0,12.13,-1.33,0.93,2.82,-1.49,2.58,5.3125,-24.375,721.0625,0.6234130859375,0.32122802734375,0.111083984375,0.028,-30.875,-24.0625,-19.1875,9.3,0.16,climb_up,6
2.09,2.02926408,24,3,3,3,3,-236.0,12.17,-0.97,0.75,2.88,-1.09,3.09,6.5625,-27.125,720.0625,0.623779296875,0.32330322265625,0.1092529296875,0.028,-30.875,-24.0625,-19.5,9.29,0.12,climb_up,6
2.1,2.043769003,24,3,3,3,3,-263.0,12.29,-0.54,0.53,3.01,-0.63,3.3,6.5,-29.75,718.75,0.62353515625,0.3267822265625,0.108642578125,0.0276,-30.5,-22.1875,-19.75,9.27,0.08,climb_up,6
2.11,2.043769003,24,3,3,3,3,-300.0,12.71,-0.11,0.22,3.45,-0.16,3.24,8.0,-32.0625,717.625,0.623779296875,0.32916259765625,0.1065673828125,0.0276,-30.5,-22.1875,-20.125,9.26,0.04,climb_up,6
2.12,2.058667889,24,3,3,3,3,-366.0,12.47,0.45,-0.38,3.22,0.44,3.15,12.25,-33.5625,716.4375,0.62396240234375,0.3319091796875,0.1046142578125,0.0276,-30.5,-22.1875,-20.4375,9.24,0.0,climb_up,6
2.13,2.058667889,24,3,3,3,3,-406.0,11.62,0.53,-0.73,2.39,0.56,3.19,16.75,-33.25,715.125,0.62408447265625,0.3349609375,0.1029052734375,0.0276,-30.5,-22.1875,-20.75,9.22,-0.03,climb_up,6
2.14,2.087904664,24,3,3,3,3,-449.0,11.64,0.84,-1.12,2.43,0.91,3.2,17.75,-32.0625,713.75,0.624267578125,0.33795166015625,0.10137939453125,0.0276,-30.5,-22.1875,-21.0625,9.2,-0.07,climb_up,6
2.15,2.087904664,24,3,3,3,3,-459.0,12.04,1.4,-1.16,2.85,1.51,3.1,14.0,-31.375,712.1875,0.62335205078125,0.3426513671875,0.10186767578125,0.0298,-29.75,-22.5,-21.375,9.18,-0.11,climb_up,6
2.16,2.090952679,24,3,3,3,3,-459.0,12.04,1.4,-1.16,2.85,1.51,3.1,14.0,-31.375,712.1875,0.62335205078125,0.3426513671875,0.10186767578125,0.0298,-29.75,-22.5,-21.375,9.18,-0.11,climb_up,6
2.16,2.090952679,24,3,3,3,3,-423.0,11.7,1.68,-0.76,2.53,1.84,3.71,8.5,-29.0625,710.875,0.62384033203125,0.34490966796875,0.09991455078125,0.0298,-29.75,-22.5,-21.6875,9.16,-0.15,climb_up,6
2.17,2.102896974,24,3,3,3,3,-423.0,11.05,1.52,-0.72,1.9,1.72,4.21,7.5,-24.9375,709.375,0.6246337890625,0.346923828125,0.0980224609375,0.0298,-29.75,-22.5,-21.9375,9.15,-0.2,climb_up,6
2.18,2.102896974,24,3,3,3,3,-429.0,10.02,1.42,-0.75,0.88,1.68,3.93,15.5,-21.5,707.625,0.6253662109375,0.3492431640625,0.0968017578125,0.0298,-29.75,-22.5,-22.125,9.13,-0.25,climb_up,6
2.19,2.133814088,24,3,3,3,3,-460.0,9.06,1.4,-1.02,-0.06,1.7,2.56,27.75,-19.875,706.0625,0.62548828125,0.3521728515625,0.0966796875,0.0298,-29.75,-22.5,-22.3125,9.12,-0.29,climb_up,6
2.2,2.133814088,24,3,3,3,3,-586.0,8.66,1.95,-2.25,-0.44,2.28,-0.15,39.8125,-21.0,704.8125,0.623779296875,0.35687255859375,0.0989990234375,0.0311,-30.1875,-22.1875,-22.5,9.11,-0.32,climb_up,6
2.21,2.14955062,24,3,3,3,3,-669.0,8.72,2.39,-3.05,-0.37,2.72,-2.99,51.8125,-22.875,704.375,0.62152099609375,0.361083984375,0.10101318359375,0.0311,-30.1875,-22.1875,-22.6875,9.1,-0.32,climb_up,6
2.22,2.14955062,24,3,3,3,3,-722.0,8.22,2.45,-3.55,-0.85,2.77,-4.85,58.6875,-23.375,704.3125,0.61846923828125,0.3656005859375,0.103759765625,0.0311,-30.1875,-22.1875,-22.9375,9.08,-0.31,climb_up,6
2.23,2.177617067,24,3,3,3,3,-817.0,7.33,1.67,-4.46,-1.74,1.97,-5.53,60.375,-22.875,704.4375,0.6151123046875,0.3701171875,0.10675048828125,0.0311,-30.1875,-22.1875,-23.125,9.07,-0.3,climb_up,6
2.24,2.177617067,24,3,3,3,3,-870.0,7.4,0.75,-4.96,-1.65,1.03,-4.97,49.5,-22.5,704.75,0.612060546875,0.37396240234375,0.10906982421875,0.0311,-30.1875,-22.1875,-23.3125,9.06,-0.28,climb_up,6
2.25,2.193073935,24,3,3,3,3,-742.0,7.76,0.55,-3.65,-1.28,0.83,-1.92,21.25,-18.875,704.875,0.61053466796875,0.37615966796875,0.1094970703125,0.0329,-29.75,-21.375,-23.5,9.04,-0.27,climb_up,6
2.26,2.193073935,24,3,3,3,3,-624.0,8.24,0.85,-2.44,-0.79,1.12,-1.83,12.875,-17.5,705.1875,0.609130859375,0.37774658203125,0.1094970703125,0.0329,-29.75,-21.375,-23.6875,9.03,-0.26,climb_up,6
2.27,2.208441245,24,3,3,3,3,-485.0,8.56,0.75,-1.03,-0.46,1.01,-1.86,10.8125,-18.75,705.625,0.60772705078125,0.3792724609375,0.10931396484375,0.0329,-29.75,-21.375,-23.875,9.02,-0.25,climb_up,6
2.28,2.208441245,24,3,3,3,3,-432.0,8.79,0.34,-0.47,-0.22,0.58,-1.59,7.5625,-18.5,706.125,0.6064453125,0.380615234375,0.10894775390625,0.0329,-29.75,-21.375,-24.0625,9.01,-0.24,climb_up,6
2.29,2.237752483,24,3,3,3,3,-407.0,8.85,-0.21,-0.19,-0.14,0.03,-1.14,8.8125,-15.4375,706.375,0.60540771484375,0.38189697265625,0.10870361328125,0.0329,-29.75,-21.375,-24.1875,9.0,-0.24,climb_up,6
2.3,2.237752483,24,3,3,3,3,-396.0,8.94,-0.52,-0.07,-0.05,-0.28,-0.74,14.625,-13.1875,706.25,0.60455322265625,0.3834228515625,0.10882568359375,0.0349,-29.0625,-19.5,-24.3125,8.99,-0.24,climb_up,6
2.31,2.253806886,24,3,3,3,3,-411.0,8.6,-0.94,-0.2,-0.38,-0.7,-1.43,18.6875,-10.1875,706.1875,0.603515625,0.385009765625,0.1094970703125,0.0349,-29.0625,-19.5,-24.4375,8.98,-0.24,climb_up,6
2.32,2.253806886,24,3,3,3,3,-426.0,8.17,-1.0,-0.34,-0.81,-0.76,-2.07,24.5,-6.5625,706.0625,0.60223388671875,0.38671875,0.11083984375,0.0349,-29.0625,-19.5,-24.5,8.98,-0.24,climb_up,6
2.33,2.26785132,24,3,3,3,3,-446.0,7.98,-0.96,-0.53,-0.99,-0.72,-1.87,30.125,-3.6875,705.6875,0.60113525390625,0.38861083984375,0.11260986328125,0.0349,-29.0625,-19.5,-24.5,8.98,-0.24,climb_up,6
2.34,2.26785132,24,3,3,3,3,-448.0,7.94,-0.9,-0.55,-1.03,-0.65,-1.33,32.3125,-2.4375,705.0625,0.6002197265625,0.390625,0.11444091796875,0.0349,-29.0625,-19.5,-24.5,8.98,-0.25,climb_up,6
2.35,2.299119427,24,3,3,3,3,-382.0,7.2,-0.77,0.09,-1.77,-0.5,-0.94,34.125,-1.5,704.1875,0.5994873046875,0.3927001953125,0.1163330078125,0.036,-27.6875,-20.5625,-24.5,8.98,-0.26,climb_up,6
2.36,2.299119427,24,3,3,3,3,-356.0,6.89,-0.61,0.36,-2.08,-0.33,-0.97,36.3125,-0.625,703.25,0.59869384765625,0.39483642578125,0.118408203125,0.036,-27.6875,-20.5625,-24.5,8.98,-0.28,climb_up,6
2.37,2.314249798,24,3,3,3,3,-343.0,6.67,-0.29,0.49,-2.3,0.0,-1.14,38.625,-0.1875,702.25,0.597900390625,0.3970947265625,0.12066650390625,0.036,-27.6875,-20.5625,-24.5,8.98,-0.29,climb_up,6
2.38,2.314249798,24,3,3,3,3,-346.0,6.61,0.38,0.45,-2.36,0.69,-1.4,39.3125,0.5,701.3125,0.596923828125,0.39935302734375,0.12298583984375,0.036,-27.6875,-20.5625,-24.5,8.98,-0.31,climb_up,6
2.39,2.328702516,24,3,3,3,3,-343.0,6.56,0.36,0.48,-2.42,0.68,-1.88,36.1875,2.375,700.625,0.595947265625,0.4012451171875,0.12542724609375,0.036,-27.6875,-20.5625,-24.4375,8.98,-0.31,climb_up,6
2.4,2.328702516,24,3,3,3,3,-323.0,6.6,0.19,0.67,-2.38,0.5,-2.58,32.875,3.3125,700.25,0.5947265625,0.40289306640625,0.1279296875,0.036,-28.0625,-19.0,-24.4375,8.98,-0.31,climb_up,6
2.41,2.357908611,24,3,3,3,3,-306.0,6.63,-0.06,0.83,-2.35,0.24,-3.05,29.875,4.875,700.125,0.59344482421875,0.40423583984375,0.13043212890625,0.036,-28.0625,-19.0,-24.375,8.99,-0.3,climb_up,6
2.42,2.357908611,24,3,3,3,3,-291.0,6.71,-0.49,0.98,-2.27,-0.2,-3.17,28.875,5.75,700.0625,0.59210205078125,0.4053955078125,0.1329345703125,0.036,-28.0625,-19.0,-24.3125,8.99,-0.29,climb_up,6
2.43,2.373189861,24,3,3,3,3,-286.0,6.51,-0.5,1.01,-2.48,-0.22,-3.31,29.875,6.5625,700.0,0.59075927734375,0.4066162109375,0.1356201171875,0.036,-28.0625,-19.0,-24.25,9.0,-0.28,climb_up,6
2.44,2.373189861,24,3,3,3,3,-287.0,6.37,-0.52,0.99,-2.63,-0.25,-3.42,29.5625,7.0625,699.9375,0.58941650390625,0.40777587890625,0.1383056640625,0.036,-28.0625,-19.0,-24.125,9.0,-0.26,climb_up,6
2.45,2.388193035,24,3,3,3,3,-287.0,6.24,-0.4,0.97,-2.76,-0.15,-3.51,27.6875,6.5625,700.0,0.58795166015625,0.4088134765625,0.14093017578125,0.0367,-28.375,-17.75,-24.0625,9.01,-0.25,climb_up,6
2.46,2.388193035,24,3,3,3,3,-270.0,6.3,-0.09,1.14,-2.71,0.13,-3.65,24.125,6.3125,700.25,0.5865478515625,0.40966796875,0.143310546875,0.0367,-28.375,-17.75,-24.0,9.01,-0.23,climb_up,6
2.47,2.419524863,24,3,3,3,3,-264.0,6.24,0.0,1.18,-2.78,0.21,-3.55,20.125,7.0625,700.5625,0.585205078125,0.41021728515625,0.14556884765625,0.0367,-28.375,-17.75,-23.9375,9.02,-0.21,climb_up,6
2.48,2.419524863,24,3,3,3,3,-264.0,6.24,0.18,1.17,-2.78,0.37,-3.19,16.0,7.1875,700.9375,0.5841064453125,0.41058349609375,0.14752197265625,0.0367,-28.375,-17.75,-23.875,9.02,-0.19,climb_up,6
2.49,2.433047772,24,3,3,3,3,-259.0,6.33,0.38,1.21,-2.7,0.55,-2.74,10.75,7.5625,701.3125,0.58319091796875,0.41058349609375,0.149169921875,0.0367,-28.375,-17.75,-23.75,9.03,-0.17,climb_up,6
2.5,2.433047772,24,3,3,3,3,-257.0,6.7,0.49,1.22,-2.33,0.64,-2.3,5.4375,8.0,701.75,0.58251953125,0.41033935546875,0.15045166015625,0.0378,-28.75,-16.5625,-23.6875,9.04,-0.15,climb_up,6
2.51,2.448292238,24,3,3,3,3,-257.0,6.7,0.49,1.22,-2.33,0.64,-2.3,5.4375,8.0,701.75,0.58251953125,0.41033935546875,0.15045166015625,0.0378,-28.75,-16.5625,-23.6875,9.04,-0.15,climb_up,6
2.51,2.448292238,24,3,3,3,3,-275.0,7.01,0.35,1.02,-2.03,0.48,-2.14,1.0,8.25,702.3125,0.58203125,0.4097900390625,0.15142822265625,0.0378,-28.75,-16.5625,-23.625,9.04,-0.13,climb_up,6
2.52,2.463516562,24,3,3,3,3,-298.0,7.49,0.16,0.78,-1.55,0.27,-2.31,-1.0,8.1875,702.9375,0.58148193359375,0.40911865234375,0.15240478515625,0.0378,-28.75,-16.5625,-23.5625,9.05,-0.1,climb_up,6
2.53,2.463516562,24,3,3,3,3,-323.0,7.8,0.0,0.52,-1.25,0.08,-2.61,-2.625,8.0625,703.8125,0.580810546875,0.40838623046875,0.1533203125,0.0378,-28.75,-16.5625,-23.4375,9.05,-0.08,climb_up,6
2.54,2.479125815,24,3,3,3,3,-362.0,8.17,-0.4,0.11,-0.88,-0.35,-2.9,-5.625,8.5625,704.8125,0.580078125,0.4073486328125,0.15423583984375,0.0378,-28.75,-16.5625,-23.375,9.06,-0.04,climb_up,6
2.55,2.479125815,24,3,3,3,3,-372.0,8.27,-0.58,0.0,-0.79,-0.57,-2.95,-8.0,9.0625,705.9375,0.57940673828125,0.4061279296875,0.15496826171875,0.0385,-28.75,-18.5625,-23.3125,9.06,-0.01,climb_up,6
2.56,2.508646079,24,3,3,3,3,-382.0,8.3,-0.88,-0.1,-0.76,-0.9,-3.03,-8.0,9.0625,707.125,0.5787353515625,0.40496826171875,0.15582275390625,0.0385,-28.75,-18.5625,-23.1875,9.07,0.02,climb_up,6
2.57,2.508646079,24,3,3,3,3,-405.0,8.4,-1.58,-0.35,-0.67,-1.64,-3.56,-5.0,8.5625,708.3125,0.5777587890625,0.4039306640625,0.1568603515625,0.0385,-28.75,-18.5625,-23.125,9.08,0.05,climb_up,6
2.58,2.523269614,24,3,3,3,3,-421.0,8.89,-1.74,-0.52,-0.18,-1.84,-4.29,-1.375,9.0,709.625,0.57647705078125,0.40301513671875,0.15826416015625,0.0385,-28.75,-18.5625,-23.0,9.08,0.1,climb_up,6
2.59,2.523269614,24,3,3,3,3,-433.0,9.58,-1.83,-0.65,0.49,-1.98,-4.56,-0.75,9.5625,710.9375,0.5750732421875,0.402099609375,0.1597900390625,0.0385,-28.75,-18.5625,-22.9375,9.09,0.14,climb_up,6
2.6,2.537720298,24,3,3,3,3,-436.0,10.15,-1.83,-0.7,1.05,-2.02,-3.79,0.125,10.125,712.0,0.57403564453125,0.4012451171875,0.1612548828125,0.0381,-28.75,-19.5,-22.8125,9.09,0.18,climb_up,6
2.61,2.537720298,24,3,3,3,3,-478.0,10.66,-1.53,-1.14,1.56,-1.74,-2.35,4.5625,12.125,712.4375,0.573486328125,0.4007568359375,0.1627197265625,0.0381,-28.75,-19.5,-22.6875,9.1,0.2,climb_up,6
2.62,2.568258139,24,3,3,3,3,-505.0,10.77,-1.16,-1.43,1.66,-1.37,-1.17,9.8125,14.4375,712.25,0.57342529296875,0.4005126953125,0.16436767578125,0.0381,-28.75,-19.5,-22.5625,9.11,0.21,climb_up,6
2.63,2.568258139,24,3,3,3,3,-522.0,10.88,-0.55,-1.63,1.75,-0.76,-0.68,14.125,16.4375,711.6875,0.57354736328125,0.4005126953125,0.16619873046875,0.0381,-28.75,-19.5,-22.375,9.12,0.2,climb_up,6
2.64,2.583748333,24,3,3,3,3,-538.0,11.02,0.09,-1.82,1.89,-0.1,-0.66,16.3125,16.5625,711.0625,0.5736083984375,0.400634765625,0.16815185546875,0.0381,-28.75,-19.5,-22.25,9.13,0.2,climb_up,6
2.65,2.583748333,24,3,3,3,3,-576.0,11.69,0.86,-2.22,2.55,0.66,-0.57,16.1875,15.25,709.6875,0.57196044921875,0.4031982421875,0.1729736328125,0.0388,-28.375,-20.1875,-22.125,9.14,0.2,climb_up,6
2.66,2.598994752,24,3,3,3,3,-581.0,11.94,0.82,-2.29,2.79,0.62,-0.42,15.1875,15.3125,709.0,0.5721435546875,0.40338134765625,0.17474365234375,0.0388,-28.375,-20.1875,-21.9375,9.15,0.19,climb_up,6
2.67,2.598994752,24,3,3,3,3,-574.0,12.34,0.64,-2.25,3.18,0.45,-0.5,14.875,15.75,708.375,0.572265625,0.4034423828125,0.176513671875,0.0388,-28.375,-20.1875,-21.8125,9.16,0.19,climb_up,6
2.68,2.628757285,24,3,3,3,3,-552.0,12.92,0.32,-2.05,3.75,0.13,-0.76,13.1875,14.6875,707.9375,0.57232666015625,0.4034423828125,0.17822265625,0.0388,-28.375,-20.1875,-21.625,9.17,0.19,climb_up,6
2.69,2.628757285,24,3,3,3,3,-497.0,14.32,-0.16,-1.52,5.14,-0.35,-0.64,8.9375,13.0,707.625,0.5723876953125,0.40325927734375,0.17962646484375,0.0388,-28.375,-20.1875,-21.5,9.17,0.19,climb_up,6
2.7,2.644085247,25,3,3,3,3,-462.0,14.6,0.05,-1.19,5.42,-0.13,0.16,4.0625,11.5625,706.4375,0.57110595703125,0.40533447265625,0.18328857421875,0.0378,-29.875,-18.6875,-21.4375,9.18,0.18,climb_up,6
2.71,2.644085247,25,3,3,3,3,-435.0,13.45,0.44,-0.94,4.25,0.27,2.14,-1.8125,12.375,705.625,0.5723876953125,0.40484619140625,0.1834716796875,0.0378,-29.875,-18.6875,-21.3125,9.19,0.16,climb_up,6
2.72,2.658695233,25,3,3,3,3,-442.0,11.82,1.41,-1.04,2.62,1.29,5.04,-8.3125,14.6875,704.0625,0.574951171875,0.40411376953125,0.18280029296875,0.0378,-29.875,-18.6875,-21.125,9.2,0.12,climb_up,6
2.73,2.658695233,25,3,3,3,3,-450.0,12.29,2.02,-1.14,3.08,1.96,7.04,-13.875,16.1875,702.0,0.578369140625,0.40313720703125,0.1815185546875,0.0378,-29.875,-18.6875,-21.0,9.21,0.05,climb_up,6
2.74,2.688233074,25,3,3,3,3,-425.0,12.43,2.38,-0.91,3.21,2.38,7.49,-17.875,15.875,699.9375,0.58203125,0.40203857421875,0.179931640625,0.0378,-29.875,-18.6875,-20.8125,9.22,0.0,climb_up,6
2.75,2.688233074,25,3,3,3,3,-365.0,12.13,2.58,-0.34,2.9,2.64,6.99,-24.5625,14.3125,697.8125,0.58441162109375,0.40216064453125,0.17987060546875,0.0378,-31.25,-19.0625,-20.6875,9.22,-0.06,climb_up,6
2.76,2.703147707,25,3,3,3,3,-197.0,11.01,2.43,1.31,1.78,2.54,6.48,-33.75,12.3125,696.6875,0.5877685546875,0.400146484375,0.177490234375,0.0378,-31.25,-19.0625,-20.5625,9.23,-0.1,climb_up,6
2.77,2.703147707,25,3,3,3,3,-122.0,10.45,2.12,2.05,1.21,2.27,6.41,-44.1875,10.9375,696.0,0.5911865234375,0.3975830078125,0.1744384765625,0.0378,-31.25,-19.0625,-20.4375,9.24,-0.14,climb_up,6
2.78,2.717867352,25,3,3,3,3,-60.0,9.96,1.79,2.66,0.71,1.97,5.99,-51.3125,10.1875,695.6875,0.59454345703125,0.39459228515625,0.17108154296875,0.0378,-31.25,-19.0625,-20.375,9.24,-0.17,climb_up,6
2.79,2.717867352,25,3,3,3,3,-60.0,9.96,1.79,2.66,0.71,1.97,5.99,-51.3125,10.1875,695.6875,0.59454345703125,0.39459228515625,0.17108154296875,0.0378,-31.25,-19.0625,-20.375,9.24,-0.17,climb_up,6
2.79,2.733279787,25,3,3,3,3,-24.0,9.73,1.49,3.0,0.48,1.69,4.74,-51.0625,9.5625,695.75,0.597412109375,0.3914794921875,0.16796875,0.0378,-31.25,-19.0625,-20.25,9.25,-0.19,climb_up,6
2.8,2.733279787,25,3,3,3,3,-19.0,8.85,1.25,3.04,-0.4,1.45,2.58,-43.5,9.1875,695.8125,0.59832763671875,0.39013671875,0.16741943359375,0.0374,-32.0625,-18.6875,-20.1875,9.25,-0.2,climb_up,6
2.81,2.748607017,25,3,3,3,3,-56.0,8.51,1.3,2.65,-0.75,1.49,0.42,-32.4375,8.5,696.6875,0.5992431640625,0.3878173828125,0.1661376953125,0.0374,-32.0625,-18.6875,-20.125,9.26,-0.18,climb_up,6
2.82,2.748607017,25,3,3,3,3,-105.0,9.0,1.4,2.15,-0.26,1.56,-1.19,-24.6875,8.6875,697.8125,0.59942626953125,0.38580322265625,0.1656494140625,0.0374,-32.0625,-18.6875,-20.0,9.26,-0.15,climb_up,6
2.83,2.81154533,25,3,3,3,3,-138.0,9.51,1.55,1.8,0.24,1.67,-1.96,-26.625,10.6875,699.25,0.59942626953125,0.38348388671875,0.165283203125,0.0374,-32.0625,-18.6875,-19.9375,9.27,-0.12,climb_up,6
2.84,2.81154533,25,3,3,3,3,-159.0,10.4,1.34,1.57,1.12,1.43,-1.47,-36.4375,13.5,700.8125,0.599853515625,0.38043212890625,0.16455078125,0.0374,-32.0625,-18.6875,-19.8125,9.27,-0.08,climb_up,6
2.85,2.814698162,25,3,3,3,3,-165.0,10.96,1.12,1.48,1.67,1.18,-0.39,-47.3125,16.9375,701.8125,0.59991455078125,0.37835693359375,0.16510009765625,0.0356,-32.75,-18.25,-19.625,9.28,-0.05,climb_up,6
2.86,2.814698162,25,3,3,3,3,-170.0,11.34,0.76,1.41,2.05,0.8,0.72,-52.0625,18.5625,703.0625,0.60150146484375,0.37432861328125,0.163330078125,0.0356,-32.75,-18.25,-19.4375,9.29,-0.03,climb_up,6
2.87,2.817747642,25,3,3,3,3,-201.0,11.25,-0.04,1.06,1.94,-0.02,1.04,-50.6875,18.8125,704.125,0.60321044921875,0.370361328125,0.16162109375,0.0356,-32.75,-18.25,-19.25,9.3,-0.02,climb_up,6
2.88,2.817747642,25,3,3,3,3,-229.0,10.64,-0.46,0.75,1.32,-0.46,0.5,-43.4375,18.5625,705.125,0.6046142578125,0.3668212890625,0.16033935546875,0.0356,-32.75,-18.25,-19.0625,9.31,0.0,climb_up,6
2.89,2.839085125,25,3,3,3,3,-262.0,9.67,-0.78,0.39,0.34,-0.79,-0.34,-32.9375,18.5,706.0625,0.60552978515625,0.36383056640625,0.1597900390625,0.0356,-32.75,-18.25,-18.875,9.32,0.01,climb_up,6
2.9,2.839085125,25,3,3,3,3,-310.0,9.03,-0.89,-0.1,-0.3,-0.92,-0.91,-21.25,17.3125,706.625,0.605712890625,0.36212158203125,0.16058349609375,0.0342,-33.875,-19.75,-18.6875,9.33,0.03,climb_up,6
2.91,2.852661134,25,3,3,3,3,-364.0,7.25,-0.48,-0.67,-2.09,-0.55,-1.77,-11.875,14.8125,707.4375,0.60565185546875,0.3604736328125,0.1612548828125,0.0342,-33.875,-19.75,-18.5,9.34,0.06,climb_up,6
2.92,2.852661134,25,3,3,3,3,-379.0,6.89,-0.25,-0.84,-2.45,-0.34,-2.66,-9.4375,11.375,708.4375,0.60516357421875,0.35906982421875,0.1619873046875,0.0342,-33.875,-19.75,-18.375,9.35,0.09,climb_up,6
2.93,2.882439251,25,3,3,3,3,-377.0,6.73,0.06,-0.83,-2.62,-0.06,-2.8,-13.75,7.375,709.75,0.6044921875,0.3575439453125,0.1622314453125,0.0342,-33.875,-19.75,-18.3125,9.35,0.13,climb_up,6
2.94,2.882439251,25,3,3,3,3,-341.0,6.53,0.19,-0.48,-2.82,0.02,-2.58,-23.4375,5.125,711.3125,0.60400390625,0.35565185546875,0.16180419921875,0.0342,-33.875,-19.75,-18.25,9.35,0.17,climb_up,6
2.95,2.897753704,25,3,3,3,3,-278.0,6.42,0.12,0.13,-2.93,-0.08,-2.04,-30.25,1.8125,712.3125,0.60247802734375,0.35565185546875,0.16326904296875,0.0345,-33.875,-20.5625,-18.25,9.35,0.2,climb_up,6
2.96,2.897753704,25,3,3,3,3,-248.0,6.24,0.08,0.43,-3.11,-0.15,-1.05,-29.9375,-1.75,713.6875,0.6024169921875,0.35382080078125,0.16180419921875,0.0345,-33.875,-20.5625,-18.25,9.35,0.23,climb_up,6
2.97,2.912970216,25,3,3,3,3,-216.0,6.07,-0.04,0.76,-3.28,-0.29,-0.31,-29.875,-4.8125,714.8125,0.60260009765625,0.35223388671875,0.15997314453125,0.0345,-33.875,-20.5625,-18.3125,9.35,0.25,climb_up,6
2.98,2.912970216,25,3,3,3,3,-189.0,5.9,-0.09,1.04,-3.44,-0.36,0.13,-30.6875,-7.25,715.8125,0.60284423828125,0.35076904296875,0.15789794921875,0.0345,-33.875,-20.5625,-18.375,9.35,0.26,climb_up,6
2.99,2.927798708,25,3,3,3,3,-156.0,5.83,-0.27,1.39,-3.51,-0.55,0.32,-29.875,-9.0625,716.75,0.60308837890625,0.34942626953125,0.15570068359375,0.0345,-33.875,-20.5625,-18.4375,9.34,0.27,climb_up,6
3.0,2.927798708,25,3,3,3,3,-150.0,5.96,-0.44,1.46,-3.37,-0.73,0.05,-28.5625,-10.5,717.25,0.6019287109375,0.350341796875,0.15606689453125,0.0345,-34.25,-21.75,-18.5625,9.34,0.29,climb_up,6
3.01,2.957933229,25,3,3,3,3,-154.0,6.08,-0.54,1.44,-3.25,-0.85,-0.14,-25.875,-11.125,718.25,0.60186767578125,0.34930419921875,0.154052734375,0.0345,-34.25,-21.75,-18.625,9.33,0.3,climb_up,6
3.02,2.957933229,25,3,3,3,3,-185.0,6.2,-0.66,1.15,-3.12,-0.99,-0.21,-22.25,-11.0,719.1875,0.60174560546875,0.3485107421875,0.1522216796875,0.0345,-34.25,-21.75,-18.75,9.32,0.32,climb_up,6
3.03,2.972506838,25,3,3,3,3,-195.0,6.25,-0.62,1.06,-3.06,-0.95,-0.04,-18.0625,-10.8125,719.875,0.6016845703125,0.34796142578125,0.150634765625,0.0345,-34.25,-21.75,-18.875,9.32,0.33,climb_up,6
3.04,2.972506838,25,3,3,3,3,-190.0,6.3,-0.54,1.12,-3.01,-0.88,0.48,-14.9375,-11.0,720.375,0.6016845703125,0.34765625,0.14910888671875,0.0345,-34.25,-21.75,-18.9375,9.31,0.33,climb_up,6
3.05,2.98940499,25,3,3,3,3,-176.0,6.24,-0.57,1.29,-3.06,-0.9,1.28,-15.4375,-10.375,720.25,0.60150146484375,0.348388671875,0.14862060546875,0.0334,-34.5625,-22.875,-19.0625,9.31,0.33,climb_up,6
3.06,2.98940499,25,3,3,3,3,-150.0,6.49,-0.73,1.56,-2.81,-1.05,2.45,-18.1875,-9.25,720.125,0.60235595703125,0.34796142578125,0.14666748046875,0.0334,-34.5625,-22.875,-19.125,9.3,0.31,climb_up,6
3.07,3.004259767,25,3,3,3,3,-160.0,7.11,-0.69,1.47,-2.18,-0.98,3.49,-20.875,-7.8125,719.6875,0.603759765625,0.34735107421875,0.1444091796875,0.0334,-34.5625,-22.875,-19.1875,9.3,0.29,climb_up,6
3.08,3.004259767,25,3,3,3,3,-160.0,7.11,-0.69,1.47,-2.18,-0.98,3.49,-20.875,-7.8125,719.6875,0.603759765625,0.34735107421875,0.1444091796875,0.0334,-34.5625,-22.875,-19.1875,9.3,0.29,climb_up,6
3.09,3.018072389,25,3,3,3,3,-181.0,7.75,-0.5,1.27,-1.55,-0.76,4.26,-20.1875,-6.5,719.0,0.60540771484375,0.3468017578125,0.14215087890625,0.0334,-34.5625,-22.875,-19.25,9.3,0.25,climb_up,6
3.09,3.018072389,25,3,3,3,3,-200.0,8.24,-0.27,1.09,-1.06,-0.49,4.35,-15.75,-5.375,718.0625,0.60711669921875,0.346435546875,0.14019775390625,0.0334,-34.5625,-22.875,-19.3125,9.3,0.22,climb_up,6
3.1,3.04853235,25,3,3,3,3,-251.0,8.96,-0.01,0.58,-0.33,-0.2,3.88,-10.8125,-4.875,716.5,0.6070556640625,0.34906005859375,0.14166259765625,0.0345,-34.25,-22.0625,-19.375,9.3,0.18,climb_up,6
3.11,3.04853235,25,3,3,3,3,-289.0,9.55,0.12,0.21,0.25,-0.03,3.42,-7.4375,-4.1875,715.625,0.60833740234375,0.34906005859375,0.140380859375,0.0345,-34.25,-22.0625,-19.375,9.29,0.15,climb_up,6
3.12,3.064540895,25,3,3,3,3,-325.0,10.08,0.2,-0.13,0.78,0.06,2.81,-4.3125,-4.8125,714.8125,0.60931396484375,0.3492431640625,0.13934326171875,0.0345,-34.25,-22.0625,-19.4375,9.29,0.13,climb_up,6
3.13,3.064540895,25,3,3,3,3,-353.0,10.32,0.26,-0.4,1.03,0.15,1.64,-0.25,-6.4375,714.375,0.6097412109375,0.3497314453125,0.13861083984375,0.0345,-34.25,-22.0625,-19.5,9.29,0.11,climb_up,6
3.14,3.078516196,25,3,3,3,3,-380.0,9.8,0.22,-0.66,0.51,0.11,0.31,5.625,-8.125,714.1875,0.60955810546875,0.35052490234375,0.13836669921875,0.0345,-34.25,-22.0625,-19.625,9.28,0.1,climb_up,6
3.15,3.078516196,25,3,3,3,3,-391.0,9.65,0.11,-0.75,0.37,0.0,-0.87,9.8125,-9.4375,713.8125,0.607666015625,0.35357666015625,0.14080810546875,0.0345,-34.875,-22.75,-19.6875,9.28,0.11,climb_up,6
3.16,3.107792889,25,3,3,3,3,-388.0,9.85,0.07,-0.71,0.57,-0.05,-2.22,9.4375,-10.5,714.375,0.60638427734375,0.35455322265625,0.14111328125,0.0345,-34.875,-22.75,-19.8125,9.27,0.12,climb_up,6
3.17,3.107792889,25,3,3,3,3,-368.0,10.05,0.0,-0.48,0.78,-0.17,-3.5,5.75,-11.375,715.5625,0.6046142578125,0.355224609375,0.14141845703125,0.0345,-34.875,-22.75,-19.9375,9.27,0.16,climb_up,6
3.18,3.123160728,25,3,3,3,3,-302.0,11.07,-0.46,0.18,1.8,-0.66,-3.94,1.75,-11.5,716.9375,0.60272216796875,0.3555908203125,0.14154052734375,0.0345,-34.875,-22.75,-20.0,9.26,0.2,climb_up,6
3.19,3.123160728,25,3,3,3,3,-255.0,11.8,-0.85,0.67,2.54,-1.08,-3.54,-0.6875,-11.5,718.3125,0.60101318359375,0.35589599609375,0.14154052734375,0.0345,-34.875,-22.75,-20.125,9.25,0.23,climb_up,6
3.2,3.138406415,25,3,3,3,3,-217.0,12.42,-1.25,1.07,3.17,-1.51,-2.17,-2.25,-10.6875,718.5625,0.5982666015625,0.35894775390625,0.14447021484375,0.0349,-34.875,-20.875,-20.25,9.25,0.26,climb_up,6
3.21,3.138406415,25,3,3,3,3,-169.0,13.75,-1.77,1.56,4.5,-2.04,-0.7,-1.3125,-9.5625,718.9375,0.59771728515625,0.35931396484375,0.1439208984375,0.0349,-34.875,-20.875,-20.375,9.24,0.26,climb_up,6
3.22,3.168383587,25,3,3,3,3,-174.0,14.02,-1.99,1.52,4.78,-2.26,0.39,0.0,-8.375,718.9375,0.59759521484375,0.3597412109375,0.14337158203125,0.0349,-34.875,-20.875,-20.4375,9.24,0.26,climb_up,6
3.23,3.168383587,25,3,3,3,3,-195.0,13.88,-2.06,1.33,4.65,-2.31,1.63,3.8125,-8.0,718.375,0.597900390625,0.36053466796875,0.14276123046875,0.0349,-34.875,-20.875,-20.5,9.23,0.24,climb_up,6
3.24,3.184833254,25,3,3,3,3,-233.0,13.56,-1.86,0.96,4.33,-2.06,3.3,9.75,-8.5,717.0625,0.59881591796875,0.36181640625,0.14208984375,0.0349,-34.875,-20.875,-20.625,9.23,0.2,climb_up,6
3.25,3.184833254,25,3,3,3,3,-303.0,12.84,-0.87,0.28,3.61,-1.02,4.99,13.75,-9.625,714.5,0.598876953125,0.36578369140625,0.14385986328125,0.0356,-33.875,-22.375,-20.6875,9.22,0.14,climb_up,6
3.26,3.198246909,25,3,3,3,3,-299.0,12.42,-0.47,0.33,3.2,-0.55,5.71,15.4375,-12.25,712.1875,0.60052490234375,0.3677978515625,0.142822265625,0.0356,-33.875,-22.375,-20.8125,9.22,0.08,climb_up,6
3.28,3.198246909,25,3,3,3,3,-315.0,12.66,-0.24,0.2,3.45,-0.26,5.24,17.6875,-16.1875,710.0625,0.60174560546875,0.3701171875,0.1417236328125,0.0356,-33.875,-22.375,-21.0,9.21,0.01,climb_up,6
3.28,3.229201458,25,3,3,3,3,-318.0,12.81,-0.25,0.21,3.61,-0.22,4.42,17.1875,-20.375,708.25,0.60260009765625,0.37255859375,0.1405029296875,0.0356,-33.875,-22.375,-21.1875,9.2,-0.03,climb_up,6
3.29,3.229201458,25,3,3,3,3,-325.0,11.5,-0.57,0.17,2.31,-0.48,4.22,15.6875,-23.875,706.5625,0.60321044921875,0.37506103515625,0.1390380859375,0.0356,-33.875,-22.375,-21.4375,9.18,-0.08,climb_up,6
3.3,3.24379586,25,3,3,3,3,-331.0,11.27,-0.36,0.16,2.1,-0.22,4.3,14.1875,-26.25,704.5625,0.6026611328125,0.37945556640625,0.139404296875,0.036,-34.5625,-22.0625,-21.6875,9.17,-0.14,climb_up,6
3.31,3.24379586,25,3,3,3,3,-337.0,11.84,0.12,0.13,2.69,0.31,4.53,10.4375,-25.4375,702.9375,0.60345458984375,0.3817138671875,0.13751220703125,0.036,-34.5625,-22.0625,-21.9375,9.15,-0.19,climb_up,6
3.32,3.257875694,25,3,3,3,3,-334.0,12.14,0.76,0.2,3.0,1.0,4.95,6.625,-22.3125,701.3125,0.6044921875,0.3836669921875,0.135498046875,0.036,-34.5625,-22.0625,-22.125,9.13,-0.24,climb_up,6
3.33,3.257875694,25,3,3,3,3,-334.0,12.14,0.76,0.2,3.0,1.0,4.95,6.625,-22.3125,701.3125,0.6044921875,0.3836669921875,0.135498046875,0.036,-34.5625,-22.0625,-22.125,9.13,-0.24,climb_up,6
3.34,3.273410321,25,3,3,3,3,-372.0,11.33,1.44,-0.14,2.2,1.75,5.7,7.875,-18.4375,699.3125,0.60589599609375,0.385498046875,0.13360595703125,0.036,-34.5625,-22.0625,-22.3125,9.12,-0.3,climb_up,6
3.35,3.273410321,25,3,3,3,3,-425.0,10.64,1.7,-0.65,1.53,2.09,6.16,15.9375,-15.0,696.875,0.6075439453125,0.3876953125,0.13232421875,0.036,-34.5625,-22.0625,-22.4375,9.11,-0.38,climb_up,6
3.36,3.288685305,25,3,3,3,3,-476.0,9.54,1.9,-1.15,0.44,2.35,5.05,29.125,-12.9375,693.75,0.6070556640625,0.39288330078125,0.13470458984375,0.0374,-34.875,-19.6875,-22.5625,9.1,-0.44,climb_up,6
3.36,3.288685305,25,3,3,3,3,-582.0,8.09,2.06,-2.19,-0.99,2.56,2.61,41.0,-13.0,691.5625,0.60711669921875,0.39617919921875,0.1356201171875,0.0374,-34.875,-19.6875,-22.6875,9.09,-0.5,climb_up,6
3.37,3.317692018,25,3,3,3,3,-622.0,7.69,2.03,-2.57,-1.38,2.56,-0.23,49.4375,-14.8125,690.0625,0.60595703125,0.39984130859375,0.13739013671875,0.0374,-34.875,-19.6875,-22.8125,9.08,-0.53,climb_up,6
3.38,3.317692018,25,3,3,3,3,-663.0,7.48,1.65,-2.95,-1.59,2.2,-2.11,53.25,-16.25,689.0625,0.60394287109375,0.40362548828125,0.13970947265625,0.0374,-34.875,-19.6875,-22.9375,9.07,-0.54,climb_up,6
3.39,3.333298098,25,3,3,3,3,-763.0,6.67,0.66,-3.94,-2.39,1.22,-2.2,52.6875,-15.5,688.0625,0.6019287109375,0.4073486328125,0.14208984375,0.0374,-34.875,-19.6875,-23.0625,9.06,-0.55,climb_up,6
3.4,3.333298098,25,3,3,3,3,-665.0,5.9,0.81,-2.95,-3.15,1.4,0.71,37.625,-12.375,686.0625,0.599853515625,0.41241455078125,0.14556884765625,0.0385,-34.875,-18.5625,-23.125,9.06,-0.58,climb_up,6
3.41,3.348686932,25,3,3,3,3,-618.0,6.1,1.21,-2.46,-2.94,1.83,1.66,29.3125,-10.625,684.5625,0.5997314453125,0.414794921875,0.1461181640625,0.0385,-34.875,-18.5625,-23.25,9.05,-0.62,climb_up,6
3.42,3.348686932,25,3,3,3,3,-581.0,6.33,1.17,-2.08,-2.7,1.82,1.6,26.0,-11.1875,683.25,0.59954833984375,0.4169921875,0.146484375,0.0385,-34.875,-18.5625,-23.3125,9.04,-0.65,climb_up,6
3.44,3.379009198,25,3,3,3,3,-543.0,6.55,0.95,-1.68,-2.47,1.62,0.89,20.5,-11.25,682.3125,0.59918212890625,0.41888427734375,0.14666748046875,0.0385,-34.875,-18.5625,-23.4375,9.03,-0.67,climb_up,6
3.44,3.379009198,25,3,3,3,3,-489.0,7.45,0.48,-1.12,-1.57,1.18,0.64,20.125,-10.1875,681.5,0.59881591796875,0.42059326171875,0.14697265625,0.0385,-34.875,-18.5625,-23.5,9.02,-0.69,climb_up,6
3.45,3.393799888,25,3,3,3,3,-465.0,7.91,0.25,-0.88,-1.11,0.97,1.23,22.0,-7.1875,679.875,0.5972900390625,0.42431640625,0.14959716796875,0.0388,-35.25,-15.875,-23.5625,9.02,-0.72,climb_up,6
3.46,3.393799888,25,3,3,3,3,-445.0,8.22,-0.04,-0.67,-0.79,0.69,1.19,20.0625,-4.75,678.75,0.5972900390625,0.42578125,0.15008544921875,0.0388,-35.25,-15.875,-23.5625,9.01,-0.74,climb_up,6
3.47,3.408327598,25,3,3,3,3,-395.0,8.29,-0.41,-0.17,-0.72,0.35,0.86,15.375,-2.9375,677.9375,0.5972900390625,0.42694091796875,0.1505126953125,0.0388,-35.25,-15.875,-23.625,9.01,-0.76,climb_up,6
3.48,3.408327598,25,3,3,3,3,-316.0,8.59,-1.32,0.61,-0.42,-0.54,0.54,9.3125,-0.75,677.4375,0.59735107421875,0.42755126953125,0.15081787109375,0.0388,-35.25,-15.875,-23.625,9.01,-0.77,climb_up,6
3.49,3.438953127,25,3,3,3,3,-308.0,8.85,-1.58,0.69,-0.15,-0.8,-0.49,6.3125,-0.625,677.375,0.5970458984375,0.42791748046875,0.1512451171875,0.0388,-35.25,-15.875,-23.625,9.01,-0.77,climb_up,6
3.51,3.438953127,25,3,3,3,3,-294.0,8.8,-1.83,0.83,-0.21,-1.07,-2.03,9.125,-1.8125,677.0625,0.59429931640625,0.43084716796875,0.15484619140625,0.0402,-34.875,-14.375,-23.625,9.01,-0.76,climb_up,6
3.52,3.453047853,25,3,3,3,3,-316.0,8.0,-2.38,0.61,-1.01,-1.64,-3.12,16.875,-2.375,677.5,0.59283447265625,0.43170166015625,0.15631103515625,0.0402,-34.875,-14.375,-23.625,9.01,-0.74,climb_up,6
3.53,3.453047853,25,3,3,3,3,-386.0,7.58,-1.88,-0.07,-1.43,-1.15,-3.41,28.75,-1.9375,677.5625,0.59112548828125,0.43316650390625,0.15850830078125,0.0402,-34.875,-14.375,-23.625,9.01,-0.72,climb_up,6
3.53,3.467573203,25,3,3,3,3,-431.0,7.04,-1.34,-0.53,-1.96,-0.63,-3.65,37.4375,-2.25,677.3125,0.5892333984375,0.43511962890625,0.1611328125,0.0402,-34.875,-14.375,-23.625,9.01,-0.71,climb_up,6
3.54,3.467573203,25,3,3,3,3,-433.0,6.73,-0.98,-0.55,-2.28,-0.27,-3.25,38.1875,-2.625,676.9375,0.58740234375,0.43719482421875,0.16375732421875,0.0402,-34.875,-14.375,-23.625,9.02,-0.7,climb_up,6
3.55,3.498429201,25,3,3,3,3,-357.0,6.25,-0.59,0.2,-2.76,0.1,-2.51,35.0,-2.25,676.0,0.584716796875,0.44061279296875,0.167724609375,0.0406,-33.875,-15.5,-23.625,9.02,-0.7,climb_up,6
3.56,3.498429201,25,3,3,3,3,-322.0,6.18,-0.31,0.55,-2.83,0.39,-2.08,34.25,-1.125,675.375,0.58343505859375,0.44244384765625,0.169921875,0.0406,-33.875,-15.5,-23.5625,9.02,-0.7,climb_up,6
3.57,3.514691856,25,3,3,3,3,-296.0,6.15,-0.09,0.81,-2.86,0.61,-1.97,34.125,0.0625,674.625,0.58221435546875,0.44427490234375,0.172119140625,0.0406,-33.875,-15.5,-23.5625,9.02,-0.71,climb_up,6
3.59,3.514691856,25,3,3,3,3,-281.0,6.17,-0.01,0.95,-2.85,0.69,-2.35,31.5625,1.1875,674.125,0.5809326171875,0.44580078125,0.17437744140625,0.0406,-33.875,-15.5,-23.5,9.02,-0.7,climb_up,6
3.6,3.52857536,25,3,3,3,3,-275.0,6.5,0.0,1.01,-2.52,0.69,-2.79,27.375,2.4375,673.9375,0.57958984375,0.44696044921875,0.17657470703125,0.0406,-33.875,-15.5,-23.5,9.02,-0.7,climb_up,6
3.61,3.52857536,25,3,3,3,3,-268.0,6.57,-0.08,1.06,-2.45,0.6,-3.06,22.0,3.75,673.625,0.577392578125,0.44891357421875,0.179931640625,0.0409,-34.25,-14.6875,-23.4375,9.03,-0.68,climb_up,6
3.61,3.557612062,25,3,3,3,3,-258.0,6.41,-0.55,1.15,-2.62,0.1,-3.3,17.0,5.375,673.9375,0.576171875,0.44927978515625,0.181884765625,0.0409,-34.25,-14.6875,-23.375,9.03,-0.66,climb_up,6
3.62,3.557612062,25,3,3,3,3,-258.0,6.41,-0.55,1.15,-2.62,0.1,-3.3,17.0,5.375,673.9375,0.576171875,0.44927978515625,0.181884765625,0.0409,-34.25,-14.6875,-23.375,9.03,-0.66,climb_up,6
3.63,3.560730349,25,3,3,3,3,-255.0,6.49,-0.74,1.17,-2.54,-0.1,-3.4,17.0625,6.3125,674.25,0.57489013671875,0.4495849609375,0.1839599609375,0.0409,-34.25,-14.6875,-23.3125,9.04,-0.64,climb_up,6
3.63,3.560730349,25,3,3,3,3,-290.0,6.75,-0.37,0.81,-2.29,0.23,-3.48,16.5,7.0,674.5625,0.57366943359375,0.4498291015625,0.18603515625,0.0409,-34.25,-14.6875,-23.1875,9.05,-0.61,climb_up,6
3.64,3.588921226,25,3,3,3,3,-294.0,6.9,-0.29,0.76,-2.15,0.29,-3.65,13.9375,7.125,675.0625,0.5723876953125,0.449951171875,0.18804931640625,0.0409,-34.25,-14.6875,-23.125,9.06,-0.58,climb_up,6
3.66,3.588921226,25,3,3,3,3,-294.0,6.95,-0.28,0.74,-2.11,0.27,-3.96,12.125,8.0,675.5,0.570556640625,0.45050048828125,0.19085693359375,0.0413,-34.5625,-14.25,-23.0625,9.06,-0.55,climb_up,6
3.67,3.602661908,25,3,3,3,3,-299.0,7.08,-0.25,0.68,-1.98,0.26,-3.9,10.5,8.8125,676.125,0.56927490234375,0.45025634765625,0.19287109375,0.0413,-34.5625,-14.25,-22.9375,9.07,-0.52,climb_up,6
3.68,3.602661908,25,3,3,3,3,-328.0,7.34,-0.11,0.37,-1.74,0.37,-3.37,7.125,9.4375,676.75,0.56829833984375,0.4498291015625,0.194580078125,0.0413,-34.5625,-14.25,-22.875,9.08,-0.49,climb_up,6
3.69,3.618176231,25,3,3,3,3,-344.0,7.61,-0.07,0.2,-1.47,0.39,-3.14,1.875,9.375,677.5625,0.5675048828125,0.44915771484375,0.19598388671875,0.0413,-34.5625,-14.25,-22.75,9.09,-0.46,climb_up,6
3.69,3.618176231,25,3,3,3,3,-351.0,7.89,-0.12,0.12,-1.2,0.3,-3.21,-4.875,8.9375,678.625,0.5667724609375,0.44805908203125,0.197021484375,0.0413,-34.5625,-14.25,-22.6875,9.09,-0.43,climb_up,6
3.7,3.648352093,25,3,3,3,3,-380.0,8.36,-0.44,-0.18,-0.73,-0.04,-3.42,-9.375,8.3125,679.75,0.565673828125,0.44720458984375,0.1983642578125,0.0409,-34.875,-14.25,-22.625,9.1,-0.39,climb_up,6
3.71,3.648352093,25,3,3,3,3,-398.0,8.59,-0.53,-0.37,-0.51,-0.17,-3.52,-8.6875,8.0,681.0625,0.56488037109375,0.4459228515625,0.19927978515625,0.0409,-34.875,-14.25,-22.5,9.11,-0.35,climb_up,6
3.72,3.663698692,25,3,3,3,3,-415.0,8.75,-0.61,-0.55,-0.35,-0.3,-3.61,-7.4375,7.9375,682.375,0.56396484375,0.4447021484375,0.20025634765625,0.0409,-34.875,-14.25,-22.4375,9.11,-0.31,climb_up,6
3.74,3.663698692,25,3,3,3,3,-426.0,8.98,-0.69,-0.67,-0.13,-0.43,-3.96,-7.75,7.25,683.8125,0.56298828125,0.44342041015625,0.20123291015625,0.0409,-34.875,-14.25,-22.375,9.12,-0.26,climb_up,6
3.75,3.67888078,25,3,3,3,3,-445.0,9.64,-0.79,-0.87,0.52,-0.58,-4.52,-9.375,6.25,685.5,0.56170654296875,0.44207763671875,0.20220947265625,0.0409,-34.875,-14.25,-22.3125,9.12,-0.21,climb_up,6
3.76,3.67888078,25,3,3,3,3,-455.0,10.09,-0.85,-0.98,0.96,-0.69,-5.03,-11.5625,5.5625,687.3125,0.56005859375,0.44085693359375,0.20355224609375,0.0402,-35.25,-14.6875,-22.25,9.13,-0.15,climb_up,6
3.77,3.70810661,25,3,3,3,3,-466.0,10.43,-0.94,-1.1,1.3,-0.84,-5.23,-12.375,5.5625,689.375,0.55859375,0.4393310546875,0.20452880859375,0.0402,-35.25,-14.6875,-22.1875,9.13,-0.09,climb_up,6
3.78,3.70810661,25,3,3,3,3,-490.0,10.85,-1.22,-1.35,1.71,-1.18,-5.11,-10.75,5.8125,691.25,0.55712890625,0.43780517578125,0.20556640625,0.0402,-35.25,-14.6875,-22.1875,9.14,-0.04,climb_up,6
3.78,3.7232841,25,3,3,3,3,-537.0,11.47,-1.98,-1.83,2.32,-1.99,-5.1,-4.8125,6.3125,692.9375,0.5555419921875,0.4366455078125,0.2069091796875,0.0402,-35.25,-14.6875,-22.125,9.14,0.01,climb_up,6
3.79,3.7232841,25,3,3,3,3,-560.0,11.7,-2.28,-2.07,2.55,-2.34,-4.91,2.0,7.1875,694.25,0.553955078125,0.43585205078125,0.20855712890625,0.0402,-35.25,-14.6875,-22.0,9.14,0.06,climb_up,6
3.8,3.737773236,25,3,3,3,3,-576.0,11.92,-2.49,-2.24,2.77,-2.59,-3.39,4.25,8.6875,694.875,0.5528564453125,0.43548583984375,0.21026611328125,0.0399,-34.875,-16.1875,-21.9375,9.15,0.09,climb_up,6
3.82,3.737773236,25,3,3,3,3,-578.0,12.01,-2.46,-2.28,2.85,-2.55,-0.78,5.75,10.0,694.6875,0.5528564453125,0.43524169921875,0.2113037109375,0.0399,-34.875,-16.1875,-21.875,9.16,0.09,climb_up,6
3.83,3.769713422,25,3,3,3,3,-553.0,11.78,-1.38,-2.05,2.61,-1.46,1.63,10.0,11.1875,693.625,0.55364990234375,0.43548583984375,0.21209716796875,0.0399,-34.875,-16.1875,-21.75,9.16,0.07,climb_up,6
3.84,3.769713422,25,3,3,3,3,-552.0,11.54,-0.82,-2.05,2.37,-0.86,2.85,13.375,11.5,692.0,0.554931640625,0.43609619140625,0.21270751953125,0.0399,-34.875,-16.1875,-21.625,9.17,0.03,climb_up,6
3.85,3.784415977,25,3,3,3,3,-564.0,11.55,-0.34,-2.19,2.37,-0.34,3.25,12.875,10.75,690.25,0.5562744140625,0.43670654296875,0.21319580078125,0.0399,-34.875,-16.1875,-21.5,9.18,0.0,climb_up,6
3.86,3.784415977,25,3,3,3,3,-609.0,13.88,0.77,-2.66,4.69,0.81,3.64,9.25,8.625,688.625,0.55780029296875,0.437255859375,0.2132568359375,0.0385,-34.875,-17.0625,-21.4375,9.18,-0.04,climb_up,6
3.86,3.79780355,25,3,3,3,3,-617.0,14.5,1.1,-2.74,5.31,1.19,4.14,2.625,6.25,687.0625,0.55950927734375,0.4376220703125,0.2127685546875,0.0385,-34.875,-17.0625,-21.375,9.18,-0.08,climb_up,6
3.87,3.79780355,25,3,3,3,3,-602.0,14.1,1.32,-2.6,4.91,1.46,4.66,-3.1875,6.0625,685.625,0.56146240234375,0.43768310546875,0.21185302734375,0.0385,-34.875,-17.0625,-21.3125,9.19,-0.13,climb_up,6
3.88,3.812805096,25,3,3,3,3,-579.0,13.5,1.7,-2.38,4.3,1.88,4.97,-4.3125,7.875,684.0625,0.56365966796875,0.4376220703125,0.21087646484375,0.0385,-34.875,-17.0625,-21.25,9.19,-0.18,climb_up,6
3.89,3.812805096,25,3,3,3,3,-579.0,13.5,1.7,-2.38,4.3,1.88,4.97,-4.3125,7.875,684.0625,0.56365966796875,0.4376220703125,0.21087646484375,0.0385,-34.875,-17.0625,-21.25,9.19,-0.18,climb_up,6
3.9,3.828110476,25,3,3,3,3,-489.0,13.57,2.74,-1.5,4.37,2.97,4.99,-6.25,9.4375,682.5625,0.56597900390625,0.4373779296875,0.20989990234375,0.0385,-34.875,-17.0625,-21.125,9.19,-0.22,climb_up,6
3.91,3.828110476,25,3,3,3,3,-391.0,12.32,2.62,-0.53,3.12,2.88,4.49,-13.625,9.25,681.375,0.56793212890625,0.43701171875,0.2091064453125,0.0396,-36.0625,-15.875,-21.0625,9.2,-0.26,climb_up,6
3.92,3.858428103,25,3,3,3,3,-290.0,11.39,2.42,0.45,2.18,2.71,4.46,-23.4375,9.0,680.75,0.5703125,0.4356689453125,0.2073974609375,0.0396,-36.0625,-15.875,-21.0,9.2,-0.29,climb_up,6
3.93,3.858428103,25,3,3,3,3,-188.0,10.76,2.31,1.47,1.55,2.64,4.62,-32.8125,7.8125,680.375,0.5728759765625,0.43389892578125,0.205078125,0.0396,-36.0625,-15.875,-20.9375,9.21,-0.32,climb_up,6
3.94,3.873881431,25,3,3,3,3,-20.0,10.0,1.57,3.13,0.79,1.92,5.19,-41.1875,7.0,680.1875,0.57574462890625,0.4317626953125,0.20220947265625,0.0396,-36.0625,-15.875,-20.875,9.21,-0.35,climb_up,6
3.94,3.873881431,25,3,3,3,3,41.0,10.11,1.13,3.75,0.9,1.5,5.49,-48.0,6.8125,680.1875,0.57879638671875,0.42926025390625,0.1988525390625,0.0396,-36.0625,-15.875,-20.8125,9.21,-0.37,climb_up,6
3.95,3.888057904,25,3,3,3,3,92.0,10.08,0.7,4.24,0.86,1.09,4.68,-50.625,7.1875,680.4375,0.58154296875,0.42657470703125,0.19580078125,0.0381,-37.0625,-14.6875,-20.75,9.21,-0.39,climb_up,6
3.97,3.888057904,25,3,3,3,3,128.0,9.73,0.43,4.6,0.51,0.83,3.83,-48.3125,8.625,680.875,0.58404541015625,0.42376708984375,0.19293212890625,0.0381,-37.0625,-14.6875,-20.6875,9.22,-0.4,climb_up,6
3.98,3.919586998,25,3,3,3,3,98.0,9.32,0.21,4.28,0.09,0.62,3.56,-42.75,11.3125,681.125,0.58648681640625,0.42108154296875,0.19061279296875,0.0381,-37.0625,-14.6875,-20.625,9.22,-0.41,climb_up,6
3.99,3.919586998,25,3,3,3,3,40.0,9.2,0.36,3.68,-0.02,0.79,3.53,-32.875,14.0625,680.9375,0.58880615234375,0.41876220703125,0.18896484375,0.0381,-37.0625,-14.6875,-20.5,9.23,-0.43,climb_up,6
4.0,3.932733807,25,3,3,3,3,-27.0,9.03,0.5,2.98,-0.2,0.96,3.46,-20.75,16.75,680.3125,0.59100341796875,0.41705322265625,0.18804931640625,0.0381,-37.0625,-14.6875,-20.3125,9.23,-0.45,climb_up,6
4.01,3.932733807,25,3,3,3,3,-188.0,8.81,0.75,1.33,-0.43,1.23,2.91,-11.5625,18.875,679.5,0.59295654296875,0.41571044921875,0.18792724609375,0.036,-37.0625,-14.6875,-20.125,9.24,-0.47,climb_up,6
4.02,3.948793622,25,3,3,3,3,-260.0,8.62,0.8,0.58,-0.63,1.29,1.68,-6.75,19.9375,678.8125,0.5943603515625,0.4144287109375,0.1883544921875,0.036,-37.0625,-14.6875,-19.9375,9.25,-0.49,climb_up,6
4.03,3.948793622,25,3,3,3,3,-322.0,8.54,0.82,-0.06,-0.72,1.32,0.32,-5.3125,20.1875,678.625,0.59527587890625,0.4130859375,0.189208984375,0.036,-37.0625,-14.6875,-19.75,9.27,-0.49,climb_up,6
4.03,3.994671063,25,3,3,3,3,-378.0,8.53,0.77,-0.65,-0.74,1.24,-1.05,-7.875,19.3125,678.9375,0.59576416015625,0.4114990234375,0.190185546875,0.036,-37.0625,-14.6875,-19.5,9.28,-0.47,climb_up,6
4.05,3.994671063,25,3,3,3,3,-441.0,8.34,0.33,-1.31,-0.94,0.77,-2.37,-13.0,16.625,679.9375,0.595703125,0.40966796875,0.19097900390625,0.036,-37.0625,-14.6875,-19.375,9.29,-0.44,climb_up,6
4.06,3.998667401,25,3,3,3,3,-434.0,8.16,-0.01,-1.25,-1.13,0.38,-3.39,-20.25,13.4375,681.5625,0.59527587890625,0.4073486328125,0.19146728515625,0.0352,-38.25,-15.5,-19.25,9.3,-0.39,climb_up,6
4.07,3.998667401,25,3,3,3,3,-428.0,7.81,-0.61,-1.21,-1.49,-0.27,-3.89,-29.375,10.25,683.75,0.5947265625,0.40472412109375,0.19140625,0.0352,-38.25,-15.5,-19.125,9.3,-0.34,climb_up,6
4.08,4.01363843,25,3,3,3,3,-362.0,7.8,-1.28,-0.57,-1.51,-0.99,-2.95,-42.375,8.0625,686.125,0.59466552734375,0.4014892578125,0.1903076171875,0.0352,-38.25,-15.5,-19.0625,9.31,-0.29,climb_up,6
4.09,4.01363843,25,3,3,3,3,-244.0,7.78,-1.0,0.6,-1.53,-0.74,-1.03,-48.0625,7.8125,688.0625,0.5953369140625,0.39813232421875,0.18853759765625,0.0352,-38.25,-15.5,-19.0,9.31,-0.25,climb_up,6
4.1,4.038350018,25,3,3,3,3,-220.0,7.58,-0.69,0.83,-1.73,-0.46,-0.25,-40.25,4.6875,689.5,0.5960693359375,0.3955078125,0.186767578125,0.0352,-38.25,-15.5,-19.0,9.32,-0.22,climb_up,6
4.11,4.038350018,25,3,3,3,3,-202.0,7.3,-0.52,1.0,-2.01,-0.31,0.12,-36.0625,2.4375,691.0,0.5972900390625,0.3924560546875,0.18408203125,0.0342,-38.5625,-17.375,-18.9375,9.32,-0.21,climb_up,6
4.11,4.052800051,25,3,3,3,3,-188.0,7.02,-0.42,1.15,-2.3,-0.22,-0.09,-34.6875,0.0,692.25,0.5977783203125,0.390380859375,0.18231201171875,0.0342,-38.5625,-17.375,-18.9375,9.32,-0.19,climb_up,6
4.13,4.052800051,25,3,3,3,3,-190.0,6.71,-0.17,1.13,-2.6,0.0,-0.29,-31.0625,-1.9375,693.4375,0.59814453125,0.38861083984375,0.1806640625,0.0342,-38.5625,-17.375,-19.0,9.32,-0.17,climb_up,6
4.14,4.083984337,25,3,3,3,3,-189.0,6.58,-0.1,1.14,-2.73,0.05,-0.44,-26.5625,-3.125,694.5625,0.5982666015625,0.38714599609375,0.17919921875,0.0342,-38.5625,-17.375,-19.0,9.31,-0.15,climb_up,6
4.15,4.083984337,25,3,3,3,3,-192.0,6.53,-0.1,1.12,-2.78,0.02,-0.69,-25.375,-4.0,695.75,0.5982666015625,0.38580322265625,0.17779541015625,0.0342,-38.5625,-17.375,-19.0625,9.31,-0.13,climb_up,6
4.16,4.098435753,25,3,3,3,3,-196.0,6.51,-0.15,1.09,-2.8,-0.05,-1.19,-25.6875,-4.5,697.5,0.598876953125,0.383056640625,0.1749267578125,0.0324,-38.5625,-18.5625,-19.125,9.31,-0.1,climb_up,6
4.17,4.098435753,25,3,3,3,3,-194.0,6.52,-0.42,1.12,-2.78,-0.34,-1.68,-25.8125,-5.375,699.0625,0.59844970703125,0.38165283203125,0.17364501953125,0.0324,-38.5625,-18.5625,-19.1875,9.31,-0.07,climb_up,6
4.18,4.113795412,25,3,3,3,3,-193.0,6.58,-0.53,1.14,-2.71,-0.48,-1.86,-25.625,-5.75,700.625,0.59796142578125,0.3802490234375,0.17236328125,0.0324,-38.5625,-18.5625,-19.25,9.3,-0.04,climb_up,6
4.19,4.113795412,25,3,3,3,3,-190.0,6.5,-0.59,1.18,-2.79,-0.58,-1.85,-24.0625,-5.4375,702.1875,0.59747314453125,0.37890625,0.171142578125,0.0324,-38.5625,-18.5625,-19.3125,9.3,-0.01,climb_up,6
4.2,4.143716229,25,3,3,3,3,-218.0,6.81,-0.5,0.91,-2.49,-0.52,-1.86,-20.375,-6.3125,703.5625,0.59686279296875,0.37786865234375,0.17010498046875,0.0324,-38.5625,-18.5625,-19.375,9.3,0.01,climb_up,6
4.21,4.143716229,25,3,3,3,3,-212.0,6.78,-0.43,0.98,-2.51,-0.47,-1.92,-17.5,-6.75,704.9375,0.59619140625,0.376953125,0.16912841796875,0.0317,-38.5625,-17.375,-19.4375,9.29,0.04,climb_up,6
4.22,4.158848798,25,3,3,3,3,-211.0,6.7,-0.33,1.0,-2.58,-0.41,-1.99,-15.875,-6.875,706.25,0.595458984375,0.37615966796875,0.1683349609375,0.0317,-38.5625,-17.375,-19.5,9.29,0.07,climb_up,6
4.23,4.158848798,25,3,3,3,3,-222.0,6.7,-0.31,0.91,-2.59,-0.42,-1.98,-13.875,-7.125,707.4375,0.59466552734375,0.37548828125,0.1676025390625,0.0317,-38.5625,-17.375,-19.5625,9.29,0.1,climb_up,6
4.24,4.172859499,25,3,3,3,3,-237.0,6.51,-0.62,0.77,-2.76,-0.75,-1.8,-12.0,-8.4375,708.625,0.5938720703125,0.375,0.16680908203125,0.0317,-38.5625,-17.375,-19.625,9.28,0.13,climb_up,6
4.25,4.172859499,25,3,3,3,3,-239.0,6.52,-0.83,0.76,-2.75,-0.98,-1.23,-12.8125,-9.125,709.5625,0.59326171875,0.3746337890625,0.16583251953125,0.0317,-38.5625,-17.375,-19.75,9.28,0.15,climb_up,6
4.26,4.188696413,25,3,3,3,3,-221.0,6.67,-0.97,0.95,-2.6,-1.13,-0.31,-15.5,-8.9375,710.375,0.59326171875,0.37384033203125,0.164306640625,0.0328,-38.875,-20.0625,-19.8125,9.27,0.16,climb_up,6
4.27,4.188696413,25,3,3,3,3,-221.0,6.67,-0.97,0.95,-2.6,-1.13,-0.31,-15.5,-8.9375,710.375,0.59326171875,0.37384033203125,0.164306640625,0.0328,-38.875,-20.0625,-19.8125,9.27,0.16,climb_up,6
4.27,4.202938316,25,3,3,3,3,-216.0,7.01,-0.97,1.01,-2.25,-1.13,0.7,-15.8125,-7.0625,710.8125,0.593505859375,0.373291015625,0.16290283203125,0.0328,-38.875,-20.0625,-19.875,9.27,0.16,climb_up,6
4.28,4.202938316,25,3,3,3,3,-225.0,7.95,-0.72,0.93,-1.31,-0.88,1.26,-12.0,-3.9375,710.8125,0.59405517578125,0.37286376953125,0.16180419921875,0.0328,-38.875,-20.0625,-19.9375,9.27,0.15,climb_up,6
4.29,4.233608767,25,3,3,3,3,-235.0,8.27,-0.59,0.83,-1.0,-0.74,1.34,-5.5625,-1.125,710.625,0.5946044921875,0.37274169921875,0.1611328125,0.0328,-38.875,-20.0625,-19.9375,9.27,0.14,climb_up,6
4.3,4.233608767,25,3,3,3,3,-244.0,8.62,-0.39,0.75,-0.65,-0.53,0.99,2.25,1.0625,710.1875,0.594970703125,0.37286376953125,0.1611328125,0.0328,-38.875,-20.0625,-19.9375,9.27,0.13,climb_up,6
4.31,4.264844729,25,3,3,3,3,-262.0,9.14,-0.21,0.55,-0.12,-0.34,0.36,7.9375,3.5625,709.6875,0.59503173828125,0.37335205078125,0.161865234375,0.0332,-38.25,-19.375,-19.875,9.27,0.12,climb_up,6
4.32,4.264844729,25,3,3,3,3,-311.0,10.25,0.15,0.06,0.97,0.03,-0.29,11.4375,4.8125,709.3125,0.59490966796875,0.373779296875,0.162841796875,0.0332,-38.25,-19.375,-19.8125,9.27,0.12,climb_up,6
4.33,4.26791553,25,3,3,3,3,-325.0,10.66,0.35,-0.09,1.38,0.22,-0.9,15.25,5.5625,709.0625,0.59454345703125,0.37432861328125,0.16412353515625,0.0332,-38.25,-19.375,-19.75,9.27,0.12,climb_up,6
4.34,4.26791553,25,3,3,3,3,-332.0,11.04,0.62,-0.16,1.76,0.49,-1.48,19.3125,5.625,708.8125,0.59393310546875,0.37506103515625,0.165771484375,0.0332,-38.25,-19.375,-19.75,9.28,0.12,climb_up,6
4.35,4.293219851,25,3,3,3,3,-333.0,12.24,0.64,-0.17,2.95,0.5,-2.03,18.6875,5.0,708.75,0.593017578125,0.375732421875,0.16748046875,0.0332,-38.25,-19.375,-19.6875,9.28,0.14,climb_up,6
4.36,4.293219851,25,3,3,3,3,-324.0,12.82,0.19,-0.09,3.53,0.03,-3.06,12.4375,3.375,709.375,0.5919189453125,0.3758544921875,0.16876220703125,0.0324,-38.875,-20.0625,-19.625,9.28,0.16,climb_up,6
4.37,4.308046023,25,3,3,3,3,-323.0,13.15,-0.47,-0.08,3.86,-0.68,-4.29,4.8125,0.75,710.625,0.59027099609375,0.37567138671875,0.16998291015625,0.0324,-38.875,-20.0625,-19.625,9.28,0.2,climb_up,6
4.38,4.308046023,25,3,3,3,3,-325.0,13.37,-1.12,-0.1,4.09,-1.37,-5.2,0.875,-2.8125,712.3125,0.58819580078125,0.3753662109375,0.1708984375,0.0324,-38.875,-20.0625,-19.6875,9.28,0.25,climb_up,6
4.39,4.323406415,25,3,3,3,3,-335.0,13.0,-1.79,-0.19,3.72,-2.1,-5.6,2.6875,-6.3125,714.1875,0.5858154296875,0.3753662109375,0.17181396484375,0.0324,-38.875,-20.0625,-19.75,9.27,0.31,climb_up,6
4.4,4.323406415,25,3,3,3,3,-358.0,12.74,-2.0,-0.4,3.47,-2.36,-4.9,5.25,-9.25,715.75,0.58355712890625,0.37567138671875,0.17254638671875,0.0324,-38.875,-20.0625,-19.8125,9.27,0.35,climb_up,6
4.41,4.338213056,25,3,3,3,3,-376.0,12.7,-2.03,-0.57,3.44,-2.43,-3.49,4.8125,-12.6875,716.875,0.5816650390625,0.37640380859375,0.1728515625,0.0334,-38.875,-19.375,-19.9375,9.26,0.39,climb_up,6
4.42,4.338213056,25,3,3,3,3,-364.0,12.55,-1.58,-0.42,3.29,-1.98,-1.04,7.625,-14.9375,717.1875,0.5806884765625,0.37750244140625,0.17254638671875,0.0334,-38.875,-19.375,-20.125,9.25,0.39,climb_up,6
4.43,4.367692873,25,3,3,3,3,-342.0,13.33,-0.18,-0.17,4.09,-0.56,1.65,12.8125,-17.375,716.5,0.58056640625,0.37933349609375,0.17181396484375,0.0334,-38.875,-19.375,-20.25,9.24,0.37,climb_up,6
4.44,4.367692873,25,3,3,3,3,-354.0,13.96,0.56,-0.26,4.73,0.23,3.16,16.8125,-19.75,715.1875,0.58087158203125,0.38165283203125,0.1707763671875,0.0334,-38.875,-19.375,-20.5,9.23,0.33,climb_up,6
4.45,4.38265963,25,3,3,3,3,-390.0,13.93,1.05,-0.58,4.7,0.76,2.97,21.1875,-22.1875,713.8125,0.58099365234375,0.38433837890625,0.169921875,0.0334,-38.875,-19.375,-20.6875,9.22,0.28,climb_up,6
4.46,4.38265963,25,3,3,3,3,-424.0,13.49,1.09,-0.88,4.29,0.83,2.12,20.0625,-25.25,712.9375,0.58099365234375,0.386474609375,0.1683349609375,0.0321,-38.25,-20.875,-20.9375,9.2,0.25,climb_up,6
4.47,4.414443809,25,3,3,3,3,-512.0,13.46,1.16,-1.71,4.27,0.94,1.96,20.125,-27.5625,712.0,0.58050537109375,0.3892822265625,0.167236328125,0.0321,-38.25,-20.875,-21.25,9.19,0.22,climb_up,6
4.48,4.414443809,25,3,3,3,3,-499.0,13.65,1.56,-1.55,4.47,1.38,3.17,21.25,-26.0,710.625,0.58056640625,0.39215087890625,0.16607666015625,0.0321,-38.25,-20.875,-21.5,9.17,0.18,climb_up,6
4.49,4.428665977,25,3,3,3,3,-460.0,13.05,1.79,-1.12,3.89,1.66,4.77,17.8125,-21.5,708.75,0.58135986328125,0.394775390625,0.1646728515625,0.0321,-38.25,-20.875,-21.75,9.16,0.12,climb_up,6
4.5,4.428665977,25,3,3,3,3,-438.0,11.46,1.84,-0.87,2.3,1.79,6.2,15.1875,-17.0,706.4375,0.5828857421875,0.3970947265625,0.1630859375,0.0321,-38.25,-20.875,-21.875,9.15,0.05,climb_up,6
4.51,4.44315019,25,3,3,3,3,-421.0,10.36,1.9,-0.68,1.21,1.92,6.81,16.75,-13.6875,703.875,0.58489990234375,0.399169921875,0.161376953125,0.0328,-37.875,-19.375,-22.0625,9.14,-0.02,climb_up,6
4.52,4.44315019,25,3,3,3,3,-429.0,9.61,1.93,-0.74,0.46,2.04,6.85,22.0,-9.9375,701.0,0.5867919921875,0.401611328125,0.16046142578125,0.0328,-37.875,-19.375,-22.125,9.14,-0.11,climb_up,6
4.53,4.458370933,25,3,3,3,3,-439.0,8.98,2.0,-0.84,-0.15,2.19,6.22,28.5,-6.6875,698.0625,0.5885009765625,0.4041748046875,0.16015625,0.0328,-37.875,-19.375,-22.1875,9.13,-0.18,climb_up,6
4.53,4.458370933,25,3,3,3,3,-439.0,8.98,2.0,-0.84,-0.15,2.19,6.22,28.5,-6.6875,698.0625,0.5885009765625,0.4041748046875,0.16015625,0.0328,-37.875,-19.375,-22.1875,9.13,-0.18,climb_up,6
4.54,4.472762169,25,3,3,3,3,-502.0,8.17,2.42,-1.46,-0.96,2.68,5.1,34.375,-4.125,695.1875,0.58978271484375,0.4068603515625,0.1605224609375,0.0328,-37.875,-19.375,-22.25,9.13,-0.26,climb_up,6
4.55,4.472762169,25,3,3,3,3,-509.0,7.53,2.49,-1.53,-1.59,2.82,4.14,35.625,-1.5625,692.5,0.59075927734375,0.40936279296875,0.161376953125,0.0328,-37.875,-19.375,-22.25,9.13,-0.32,climb_up,6
4.56,4.487595095,25,3,3,3,3,-504.0,7.18,2.33,-1.48,-1.94,2.71,3.63,30.4375,0.3125,690.25,0.591796875,0.41131591796875,0.16192626953125,0.0339,-38.25,-17.75,-22.1875,9.13,-0.38,climb_up,6
4.57,4.487595095,25,3,3,3,3,-491.0,7.16,2.05,-1.35,-1.96,2.48,3.49,22.3125,1.875,688.25,0.59283447265625,0.41278076171875,0.16241455078125,0.0339,-38.25,-17.75,-22.1875,9.13,-0.42,climb_up,6
4.58,4.517630943,25,3,3,3,3,-456.0,7.14,1.18,-1.01,-1.98,1.65,3.14,18.9375,2.625,686.5,0.59381103515625,0.4140625,0.162841796875,0.0339,-38.25,-17.75,-22.125,9.13,-0.47,climb_up,6
4.59,4.517630943,25,3,3,3,3,-433.0,7.19,0.72,-0.79,-1.93,1.23,2.45,18.875,3.3125,684.9375,0.59454345703125,0.4151611328125,0.1634521484375,0.0339,-38.25,-17.75,-22.125,9.13,-0.5,climb_up,6
4.6,4.533038007,25,3,3,3,3,-406.0,7.37,0.35,-0.53,-1.76,0.88,1.6,19.5625,4.375,683.625,0.594970703125,0.416259765625,0.16436767578125,0.0339,-38.25,-17.75,-22.0625,9.13,-0.53,climb_up,6
4.61,4.533038007,25,3,3,3,3,-382.0,7.57,0.04,-0.3,-1.56,0.59,0.63,20.4375,6.0625,682.5625,0.59515380859375,0.4171142578125,0.1656494140625,0.0334,-38.875,-14.25,-22.0,9.13,-0.55,climb_up,6
4.62,4.548221235,25,3,3,3,3,-363.0,7.69,-0.44,-0.13,-1.44,0.11,-0.48,22.625,7.5625,681.8125,0.59490966796875,0.41802978515625,0.1673583984375,0.0334,-38.875,-14.25,-21.875,9.14,-0.56,climb_up,6
4.63,4.548221235,25,3,3,3,3,-369.0,7.64,-0.72,-0.2,-1.5,-0.16,-1.41,26.6875,8.6875,681.1875,0.59429931640625,0.4189453125,0.1695556640625,0.0334,-38.875,-14.25,-21.75,9.14,-0.56,climb_up,6
4.64,4.578223473,25,3,3,3,3,-377.0,7.45,-0.9,-0.3,-1.69,-0.34,-1.93,29.8125,9.5625,680.5625,0.593505859375,0.4200439453125,0.172119140625,0.0334,-38.875,-14.25,-21.6875,9.15,-0.56,climb_up,6
4.65,4.578223473,25,3,3,3,3,-399.0,6.98,-1.16,-0.54,-2.17,-0.6,-2.27,31.75,10.0625,679.9375,0.59259033203125,0.421142578125,0.17486572265625,0.0334,-38.875,-14.25,-21.5625,9.16,-0.55,climb_up,6
4.66,4.593439171,25,3,3,3,3,-429.0,7.06,-1.32,-0.86,-2.1,-0.76,-2.42,32.5,9.6875,679.4375,0.5916748046875,0.422119140625,0.177490234375,0.0342,-40.0625,-13.875,-21.4375,9.16,-0.55,climb_up,6
4.67,4.593439171,25,3,3,3,3,-383.0,7.36,-1.44,-0.42,-1.8,-0.88,-1.97,30.375,7.6875,678.8125,0.59075927734375,0.42327880859375,0.17999267578125,0.0342,-40.0625,-13.875,-21.3125,9.17,-0.55,climb_up,6
4.68,4.608456016,25,3,3,3,3,-317.0,7.15,-1.43,0.22,-2.01,-0.86,-0.64,27.375,6.4375,677.9375,0.59033203125,0.4244384765625,0.181884765625,0.0342,-40.0625,-13.875,-21.25,9.17,-0.56,climb_up,6
4.69,4.608456016,25,3,3,3,3,-301.0,6.9,-0.95,0.38,-2.27,-0.37,0.05,31.125,6.625,676.625,0.59002685546875,0.4259033203125,0.18389892578125,0.0342,-40.0625,-13.875,-21.1875,9.18,-0.57,climb_up,6
4.7,4.638124351,25,3,3,3,3,-316.0,6.63,-0.72,0.21,-2.55,-0.12,-0.18,39.1875,5.0625,675.125,0.58953857421875,0.42791748046875,0.18621826171875,0.0342,-40.0625,-13.875,-21.0625,9.18,-0.6,climb_up,6
4.71,4.638124351,25,3,3,3,3,-317.0,6.39,-0.45,0.19,-2.79,0.16,-0.7,43.5625,2.6875,674.1875,0.58984375,0.4285888671875,0.18701171875,0.0321,-39.25,-13.875,-21.0625,9.18,-0.61,climb_up,6
4.72,4.653310102,25,3,3,3,3,-306.0,6.24,-0.3,0.3,-2.94,0.32,-0.86,42.875,1.25,672.8125,0.5888671875,0.430908203125,0.18951416015625,0.0321,-39.25,-13.875,-21.0,9.18,-0.63,climb_up,6
4.73,4.653310102,25,3,3,3,3,-291.0,6.1,-0.35,0.43,-3.08,0.29,-0.52,39.4375,1.1875,671.4375,0.5880126953125,0.43304443359375,0.19171142578125,0.0321,-39.25,-13.875,-20.9375,9.19,-0.65,climb_up,6
4.74,4.683604332,25,3,3,3,3,-294.0,6.24,-0.35,0.4,-2.94,0.31,-0.44,36.25,1.0625,670.1875,0.5872802734375,0.43499755859375,0.1937255859375,0.0321,-39.25,-13.875,-20.9375,9.19,-0.66,climb_up,6
4.75,4.683604332,25,3,3,3,3,-284.0,6.44,-0.31,0.5,-2.75,0.36,-1.07,35.3125,0.9375,669.125,0.58636474609375,0.4368896484375,0.19586181640625,0.0321,-39.25,-13.875,-20.875,9.19,-0.67,climb_up,6
4.76,4.698759768,25,3,3,3,3,-272.0,6.59,-0.3,0.61,-2.6,0.37,-2.08,37.5625,1.625,668.3125,0.58502197265625,0.438720703125,0.1983642578125,0.0328,-40.0,-13.1875,-20.8125,9.19,-0.68,climb_up,6
4.77,4.698759768,25,3,3,3,3,-279.0,6.75,-0.38,0.53,-2.44,0.28,-3.2,40.8125,2.9375,667.6875,0.583251953125,0.4405517578125,0.20135498046875,0.0328,-40.0,-13.1875,-20.8125,9.19,-0.67,climb_up,6
4.78,4.713598635,25,3,3,3,3,-283.0,6.78,-0.41,0.48,-2.42,0.24,-4.24,43.5,3.75,667.3125,0.58111572265625,0.4423828125,0.204833984375,0.0328,-40.0,-13.1875,-20.6875,9.2,-0.65,climb_up,6
4.79,4.713598635,25,3,3,3,3,-279.0,6.88,-0.41,0.51,-2.32,0.21,-4.85,43.625,3.3125,667.125,0.5787353515625,0.444091796875,0.2083740234375,0.0328,-40.0,-13.1875,-20.625,9.2,-0.63,climb_up,6
4.8,4.744218712,25,3,3,3,3,-265.0,6.98,-0.41,0.64,-2.22,0.18,-5.01,41.0,2.8125,667.0625,0.5762939453125,0.44573974609375,0.2117919921875,0.0328,-40.0,-13.1875,-20.625,9.21,-0.6,climb_up,6
4.81,4.744218712,25,3,3,3,3,-245.0,7.08,-0.38,0.84,-2.13,0.19,-4.79,36.9375,2.4375,667.0625,0.573974609375,0.4471435546875,0.2149658203125,0.0332,-39.6875,-11.1875,-20.5625,9.21,-0.57,climb_up,6
4.82,4.758321129,25,3,3,3,3,-241.0,7.21,-0.41,0.87,-2.0,0.14,-4.29,31.4375,2.0,667.1875,0.57196044921875,0.4483642578125,0.21771240234375,0.0332,-39.6875,-11.1875,-20.5,9.22,-0.55,climb_up,6
4.83,4.758321129,25,3,3,3,3,-244.0,7.44,-0.45,0.83,-1.77,0.06,-3.73,25.3125,1.875,667.3125,0.5701904296875,0.44921875,0.219970703125,0.0332,-39.6875,-11.1875,-20.5,9.22,-0.52,climb_up,6
4.83,4.761332766,25,3,3,3,3,-244.0,7.44,-0.45,0.83,-1.77,0.06,-3.73,25.3125,1.875,667.3125,0.5701904296875,0.44921875,0.219970703125,0.0332,-39.6875,-11.1875,-20.5,9.22,-0.52,climb_up,6
4.84,4.761332766,25,3,3,3,3,-252.0,8.08,-0.49,0.75,-1.14,0.0,-3.33,19.375,1.875,667.5625,0.5687255859375,0.4498291015625,0.22186279296875,0.0332,-39.6875,-11.1875,-20.4375,9.22,-0.5,climb_up,6
4.85,4.78819621,25,3,3,3,3,-258.0,8.28,-0.52,0.68,-0.94,-0.03,-3.01,13.875,1.75,667.9375,0.56744384765625,0.4501953125,0.223388671875,0.0332,-39.6875,-11.1875,-20.4375,9.23,-0.48,climb_up,6
4.86,4.78819621,25,3,3,3,3,-266.0,8.52,-0.54,0.6,-0.7,-0.08,-3.0,10.3125,1.8125,668.4375,0.56622314453125,0.4503173828125,0.2247314453125,0.0332,-40.375,-12.375,-20.375,9.23,-0.45,climb_up,6
4.87,4.802807172,25,3,3,3,3,-278.0,8.72,-0.65,0.48,-0.51,-0.21,-3.21,8.0,1.875,669.0625,0.56500244140625,0.4503173828125,0.22601318359375,0.0332,-40.375,-12.375,-20.375,9.23,-0.43,climb_up,6
4.88,4.802807172,25,3,3,3,3,-310.0,9.01,-0.64,0.16,-0.22,-0.24,-3.36,7.125,1.8125,669.8125,0.563720703125,0.4501953125,0.227294921875,0.0332,-40.375,-12.375,-20.375,9.23,-0.4,climb_up,6
4.89,4.833065758,25,3,3,3,3,-320.0,9.21,-0.61,0.05,-0.02,-0.24,-3.59,6.25,1.875,670.6875,0.5623779296875,0.45001220703125,0.22857666015625,0.0332,-40.375,-12.375,-20.3125,9.24,-0.36,climb_up,6
4.9,4.833065758,25,3,3,3,3,-329.0,9.48,-0.65,-0.04,0.23,-0.32,-4.02,4.0625,1.75,671.75,0.5609130859375,0.44964599609375,0.2298583984375,0.0332,-40.375,-12.375,-20.3125,9.24,-0.32,climb_up,6
4.91,4.847572553,25,3,3,3,3,-336.0,9.7,-0.73,-0.1,0.45,-0.44,-4.53,0.375,1.5,673.125,0.559326171875,0.44903564453125,0.2310791015625,0.0339,-38.5625,-12.375,-20.3125,9.24,-0.28,climb_up,6
4.92,4.847572553,25,3,3,3,3,-360.0,10.21,-0.91,-0.35,0.97,-0.68,-4.8,-2.6875,1.25,674.75,0.5577392578125,0.44818115234375,0.232177734375,0.0339,-38.5625,-12.375,-20.3125,9.24,-0.23,climb_up,6
4.93,4.862879438,25,3,3,3,3,-379.0,10.53,-1.01,-0.53,1.28,-0.83,-4.65,-4.25,0.8125,676.3125,0.55615234375,0.44732666015625,0.233154296875,0.0339,-38.5625,-12.375,-20.3125,9.25,-0.18,climb_up,6
4.94,4.862879438,25,3,3,3,3,-397.0,10.75,-1.38,-0.72,1.5,-1.24,-4.35,-3.8125,1.0625,677.8125,0.5546875,0.44647216796875,0.23406982421875,0.0339,-38.5625,-12.375,-20.25,9.25,-0.13,climb_up,6
4.95,4.893768761,25,3,3,3,3,-384.0,10.71,-1.59,-0.6,1.45,-1.49,-4.28,-0.8125,2.875,679.125,0.55328369140625,0.44573974609375,0.23529052734375,0.0339,-38.5625,-12.375,-20.25,9.25,-0.09,climb_up,6
4.96,4.893768761,25,3,3,3,3,-401.0,11.65,-1.35,-0.77,2.39,-1.29,-3.49,1.375,4.1875,681.1875,0.55419921875,0.442626953125,0.23333740234375,0.0332,-39.25,-14.375,-20.1875,9.25,-0.06,climb_up,6
4.97,4.908837161,25,3,3,3,3,-423.0,12.25,-0.99,-1.0,3.0,-0.95,-1.76,0.75,5.3125,681.5625,0.5537109375,0.44219970703125,0.234130859375,0.0332,-39.25,-14.375,-20.1875,9.25,-0.04,climb_up,6
4.98,4.908837161,25,3,3,3,3,-462.0,12.84,-0.56,-1.4,3.58,-0.52,-0.04,2.1875,6.125,681.375,0.553955078125,0.44207763671875,0.23455810546875,0.0332,-39.25,-14.375,-20.125,9.26,-0.04,climb_up,6
4.99,4.923722252,25,3,3,3,3,-553.0,13.55,-0.31,-2.32,4.28,-0.25,1.15,4.625,6.75,680.6875,0.55450439453125,0.442138671875,0.23492431640625,0.0332,-39.25,-14.375,-20.0,9.26,-0.05,climb_up,6
5.0,4.923722252,25,3,3,3,3,-600.0,13.4,-0.6,-2.8,4.13,-0.52,1.57,3.8125,6.75,679.875,0.55523681640625,0.4422607421875,0.235107421875,0.0332,-39.25,-14.375,-19.9375,9.27,-0.07,climb_up,6
5.01,4.953078819,25,3,3,3,3,-618.0,13.26,-0.83,-2.99,3.98,-0.74,1.82,-0.625,6.6875,679.8125,0.557373046875,0.44061279296875,0.2332763671875,0.0334,-38.5625,-14.25,-19.875,9.27,-0.09,climb_up,6
5.02,4.953078819,25,3,3,3,3,-594.0,13.33,-0.78,-2.76,4.05,-0.66,2.59,-8.3125,7.8125,679.1875,0.55877685546875,0.44012451171875,0.232666015625,0.0334,-38.5625,-14.25,-19.8125,9.27,-0.11,climb_up,6
5.03,4.984118574,25,3,3,3,3,-388.0,12.85,-0.26,-0.72,3.57,-0.11,3.76,-19.75,9.375,678.625,0.5609130859375,0.43896484375,0.2313232421875,0.0334,-38.5625,-14.25,-19.75,9.28,-0.14,climb_up,6
5.04,4.984118574,25,3,3,3,3,-337.0,12.04,0.23,-0.23,2.76,0.4,4.95,-29.1875,11.75,677.9375,0.563720703125,0.4373779296875,0.2293701171875,0.0334,-38.5625,-14.25,-19.625,9.28,-0.17,climb_up,6
5.06,4.997721479,25,3,3,3,3,-312.0,11.99,1.49,-0.02,2.69,1.75,6.38,-42.5625,18.0,677.5625,0.57305908203125,0.429931640625,0.22113037109375,0.0321,-39.6875,-15.5,-19.3125,9.3,-0.25,climb_up,6
5.07,4.997721479,25,3,3,3,3,-262.0,12.02,1.44,0.44,2.71,1.73,6.26,-50.9375,19.625,677.125,0.5770263671875,0.4267578125,0.21826171875,0.0321,-39.6875,-15.5,-19.125,9.31,-0.29,climb_up,6
5.08,5.012997765,25,3,3,3,3,-235.0,11.45,1.3,0.67,2.14,1.63,5.91,-50.1875,19.125,676.75,0.580810546875,0.423583984375,0.2154541015625,0.0321,-39.6875,-15.5,-18.9375,9.31,-0.32,climb_up,6
5.09,5.012997765,25,3,3,3,3,-195.0,10.32,1.15,1.05,1.0,1.51,5.38,-44.625,17.3125,676.375,0.584228515625,0.4207763671875,0.21295166015625,0.0321,-39.6875,-15.5,-18.8125,9.32,-0.36,climb_up,6
5.1,5.028515424,25,3,3,3,3,-195.0,10.32,1.15,1.05,1.0,1.51,5.38,-44.625,17.3125,676.375,0.584228515625,0.4207763671875,0.21295166015625,0.0321,-39.6875,-15.5,-18.8125,9.32,-0.36,climb_up,6
5.1,5.028515424,25,3,3,3,3,-160.0,9.3,1.1,1.38,-0.03,1.49,4.87,-37.0,14.9375,675.875,0.58721923828125,0.41839599609375,0.2108154296875,0.0321,-39.6875,-15.5,-18.625,9.33,-0.39,climb_up,6
5.11,5.043769859,25,3,3,3,3,-112.0,8.48,1.4,1.84,-0.85,1.81,4.27,-35.0625,12.6875,676.5,0.5916748046875,0.4136962890625,0.20587158203125,0.03,-40.375,-13.875,-18.5625,9.33,-0.41,climb_up,6
5.12,5.043769859,25,3,3,3,3,-85.0,8.59,1.6,2.1,-0.74,2.04,3.48,-38.9375,10.125,676.5625,0.593994140625,0.41131591796875,0.20367431640625,0.03,-40.375,-13.875,-18.4375,9.34,-0.43,climb_up,6
5.13,5.073630862,25,3,3,3,3,-57.0,8.78,1.81,2.37,-0.55,2.25,3.09,-43.9375,7.9375,677.0,0.59613037109375,0.40869140625,0.201171875,0.03,-40.375,-13.875,-18.375,9.34,-0.43,climb_up,6
5.14,5.073630862,25,3,3,3,3,-32.0,9.64,1.82,2.61,0.29,2.27,3.51,-48.5625,5.5625,677.5,0.59844970703125,0.40594482421875,0.19818115234375,0.03,-40.375,-13.875,-18.375,9.34,-0.45,climb_up,6
5.15,5.088242556,25,3,3,3,3,-49.0,9.97,1.43,2.44,0.63,1.9,4.42,-51.4375,3.3125,677.875,0.60107421875,0.40325927734375,0.1947021484375,0.03,-40.375,-13.875,-18.375,9.34,-0.46,climb_up,6
5.16,5.088242556,25,3,3,3,3,-83.0,10.09,0.97,2.1,0.75,1.46,4.79,-48.4375,1.75,678.875,0.60546875,0.39813232421875,0.18817138671875,0.0285,-41.75,-13.875,-18.375,9.34,-0.49,climb_up,6
5.17,5.102891604,25,3,3,3,3,-120.0,10.25,0.58,1.73,0.91,1.09,3.87,-40.0625,0.625,678.9375,0.6075439453125,0.3961181640625,0.185302734375,0.0285,-41.75,-13.875,-18.375,9.34,-0.51,climb_up,6
5.18,5.102891604,25,3,3,3,3,-214.0,10.46,-0.17,0.79,1.12,0.34,2.05,-31.1875,-0.3125,679.375,0.6087646484375,0.39453125,0.1832275390625,0.0285,-41.75,-13.875,-18.375,9.33,-0.51,climb_up,6
5.19,5.133052534,25,3,3,3,3,-270.0,10.44,-0.56,0.24,1.11,-0.06,0.29,-23.1875,-1.125,680.125,0.60919189453125,0.39324951171875,0.18182373046875,0.0285,-41.75,-13.875,-18.4375,9.33,-0.5,climb_up,6
5.2,5.133052534,25,3,3,3,3,-340.0,10.28,-1.2,-0.45,0.94,-0.71,-0.74,-16.8125,-1.25,681.0,0.60919189453125,0.39227294921875,0.1810302734375,0.0285,-41.75,-13.875,-18.4375,9.33,-0.48,climb_up,6
5.21,5.147781619,25,3,3,3,3,-374.0,10.2,-1.59,-0.79,0.86,-1.11,0.0,-16.25,0.0,682.4375,0.61126708984375,0.388427734375,0.17706298828125,0.0279,-42.1875,-14.6875,-18.4375,9.33,-0.48,climb_up,6
5.22,5.147781619,25,3,3,3,3,-296.0,9.79,-1.13,-0.01,0.45,-0.65,1.76,-21.0625,3.625,682.5,0.6123046875,0.38720703125,0.17578125,0.0279,-42.1875,-14.6875,-18.4375,9.33,-0.48,climb_up,6
5.23,5.163196373,25,3,3,3,3,-285.0,9.38,-1.03,0.09,0.04,-0.54,1.19,-17.125,4.0,682.625,0.6131591796875,0.3861083984375,0.17486572265625,0.0279,-42.1875,-14.6875,-18.375,9.34,-0.49,climb_up,6
5.24,5.163196373,25,3,3,3,3,-273.0,8.91,-1.0,0.2,-0.43,-0.52,-0.11,-11.875,2.375,683.0625,0.6134033203125,0.38525390625,0.1744384765625,0.0279,-42.1875,-14.6875,-18.375,9.34,-0.48,climb_up,6
5.25,5.193047895,25,3,3,3,3,-268.0,8.56,-0.86,0.25,-0.78,-0.4,-1.6,-10.25,0.1875,683.9375,0.61297607421875,0.38446044921875,0.17425537109375,0.0279,-42.1875,-14.6875,-18.375,9.34,-0.46,climb_up,6
5.26,5.193047895,25,3,3,3,3,-280.0,8.15,-0.7,0.13,-1.19,-0.27,-2.51,-8.25,-2.375,685.125,0.612060546875,0.38385009765625,0.1741943359375,0.0271,-41.5,-14.375,-18.375,9.34,-0.43,climb_up,6
5.27,5.208483401,25,3,3,3,3,-278.0,7.94,-0.8,0.17,-1.39,-0.4,-2.51,-7.75,-4.375,686.3125,0.61114501953125,0.3834228515625,0.174072265625,0.0271,-41.5,-14.375,-18.4375,9.34,-0.4,climb_up,6
5.28,5.208483401,25,3,3,3,3,-277.0,7.62,-1.17,0.18,-1.71,-0.79,-2.19,-11.9375,-6.1875,687.625,0.61029052734375,0.3828125,0.17352294921875,0.0271,-41.5,-14.375,-18.5,9.34,-0.37,climb_up,6
5.29,5.222571251,25,3,3,3,3,-246.0,7.6,-1.53,0.51,-1.73,-1.18,-1.27,-20.8125,-7.3125,688.875,0.60992431640625,0.3818359375,0.1722412109375,0.0271,-41.5,-14.375,-18.5625,9.33,-0.34,climb_up,6
5.3,5.222571251,25,3,3,3,3,-175.0,7.5,-1.55,1.23,-1.82,-1.21,0.12,-26.1875,-7.4375,689.8125,0.610107421875,0.3807373046875,0.17041015625,0.0271,-41.5,-14.375,-18.6875,9.33,-0.33,climb_up,6
5.31,5.25265434,25,3,3,3,3,-164.0,7.2,-1.33,1.36,-2.12,-0.99,0.55,-21.375,-8.75,690.5,0.61029052734375,0.37994384765625,0.16864013671875,0.0261,-41.75,-15.5,-18.75,9.32,-0.33,climb_up,6
5.32,5.25265434,25,3,3,3,3,-153.0,6.9,-1.02,1.48,-2.41,-0.7,0.44,-16.25,-9.75,691.0625,0.61041259765625,0.37957763671875,0.1671142578125,0.0261,-41.75,-15.5,-18.875,9.32,-0.32,climb_up,6
5.33,5.267700849,25,3,3,3,3,-145.0,6.51,-0.5,1.58,-2.79,-0.18,-0.21,-13.5,-11.3125,691.75,0.61016845703125,0.37933349609375,0.165771484375,0.0261,-41.75,-15.5,-19.0,9.31,-0.31,climb_up,6
5.34,5.267700849,25,3,3,3,3,-145.0,6.35,-0.34,1.6,-2.96,-0.04,-0.76,-12.8125,-11.625,692.625,0.60968017578125,0.379150390625,0.16455078125,0.0261,-41.75,-15.5,-19.125,9.31,-0.3,climb_up,6
5.35,5.283210493,25,3,3,3,3,-142.0,6.21,-0.24,1.65,-3.09,0.04,-1.04,-12.5625,-10.875,693.5625,0.609130859375,0.37884521484375,0.1634521484375,0.0261,-41.75,-15.5,-19.1875,9.3,-0.28,climb_up,6
5.36,5.283210493,25,3,3,3,3,-135.0,6.11,-0.22,1.74,-3.18,0.04,-1.27,-13.8125,-9.6875,694.625,0.6085205078125,0.37841796875,0.16241455078125,0.0271,-41.5,-14.6875,-19.3125,9.3,-0.26,climb_up,6
5.37,5.313902753,25,3,3,3,3,-132.0,6.32,-0.18,1.78,-2.97,0.06,-1.37,-15.8125,-8.5,695.75,0.60797119140625,0.3778076171875,0.161376953125,0.0271,-41.5,-14.6875,-19.4375,9.29,-0.24,climb_up,6
5.38,5.313902753,25,3,3,3,3,-127.0,6.39,-0.24,1.85,-2.89,-0.02,-1.62,-18.1875,-8.375,697.0,0.6072998046875,0.37701416015625,0.1602783203125,0.0271,-41.5,-14.6875,-19.5,9.29,-0.21,climb_up,6
5.39,5.328673099,25,3,3,3,3,-123.0,6.46,-0.3,1.9,-2.82,-0.11,-1.75,-19.9375,-8.625,698.375,0.606689453125,0.37615966796875,0.1590576171875,0.0271,-41.5,-14.6875,-19.5625,9.28,-0.18,climb_up,6
5.4,5.328673099,25,3,3,3,3,-123.0,6.55,-0.41,1.91,-2.73,-0.25,-1.64,-22.3125,-9.0,699.8125,0.6060791015625,0.3751220703125,0.15771484375,0.0271,-41.5,-14.6875,-19.6875,9.28,-0.15,climb_up,6
5.41,5.343723066,25,3,3,3,3,-144.0,6.88,-0.68,1.72,-2.39,-0.55,-1.41,-25.3125,-8.75,701.25,0.6055908203125,0.37396240234375,0.1561279296875,0.0254,-41.75,-15.5,-19.75,9.27,-0.12,climb_up,6
5.42,5.343723066,25,3,3,3,3,-144.0,6.88,-0.68,1.72,-2.39,-0.55,-1.41,-25.3125,-8.75,701.25,0.6055908203125,0.37396240234375,0.1561279296875,0.0254,-41.75,-15.5,-19.75,9.27,-0.12,climb_up,6
5.42,5.372659427,25,3,3,3,3,-163.0,7.21,-0.7,1.54,-2.06,-0.6,-1.16,-27.0625,-7.5,702.6875,0.60528564453125,0.37261962890625,0.15447998046875,0.0254,-41.75,-15.5,-19.875,9.27,-0.1,climb_up,6
5.43,5.372659427,25,3,3,3,3,-181.0,7.54,-0.61,1.37,-1.72,-0.53,-1.17,-26.125,-6.25,704.0,0.60504150390625,0.37127685546875,0.15301513671875,0.0254,-41.75,-15.5,-19.9375,9.27,-0.07,climb_up,6
5.44,5.375821007,25,3,3,3,3,-189.0,7.83,-0.47,1.29,-1.43,-0.43,-1.5,-24.375,-5.0625,705.375,0.6046142578125,0.36993408203125,0.1517333984375,0.0254,-41.75,-15.5,-19.9375,9.26,-0.04,climb_up,6
5.45,5.375821007,25,3,3,3,3,-207.0,8.46,-0.34,1.13,-0.8,-0.33,-1.77,-23.0625,-3.5,706.8125,0.6041259765625,0.36859130859375,0.150634765625,0.0254,-41.75,-15.5,-20.0,9.26,-0.01,climb_up,6
5.46,5.403358279,25,3,3,3,3,-216.0,8.9,-0.44,1.04,-0.35,-0.46,-2.21,-21.8125,-2.375,708.3125,0.603515625,0.3671875,0.14984130859375,0.0254,-41.75,-16.6875,-20.0,9.26,0.01,climb_up,6
5.47,5.403358279,25,3,3,3,3,-233.0,9.65,-0.8,0.88,0.38,-0.86,-2.72,-21.375,-2.625,709.9375,0.60272216796875,0.3658447265625,0.14910888671875,0.0254,-41.75,-16.6875,-20.0625,9.26,0.05,climb_up,6
5.48,5.417904218,25,3,3,3,3,-235.0,10.77,-1.3,0.86,1.51,-1.4,-2.99,-24.125,-2.625,711.75,0.601806640625,0.3642578125,0.14825439453125,0.0254,-41.75,-16.6875,-20.0625,9.26,0.1,climb_up,6
5.49,5.417904218,25,3,3,3,3,-262.0,11.0,-1.25,0.59,1.74,-1.4,-3.41,-22.3125,-2.0625,713.6875,0.60076904296875,0.36273193359375,0.14764404296875,0.0254,-41.75,-16.6875,-20.0625,9.26,0.14,climb_up,6
5.5,5.43366964,25,3,3,3,3,-294.0,11.13,-1.13,0.27,1.87,-1.33,-4.16,-17.0625,-2.25,715.625,0.59930419921875,0.3614501953125,0.1474609375,0.0254,-41.75,-16.6875,-20.125,9.26,0.19,climb_up,6
5.51,5.43366964,25,3,3,3,3,-324.0,11.13,-1.06,-0.02,1.88,-1.32,-4.77,-14.375,-3.0,717.75,0.59759521484375,0.3603515625,0.1474609375,0.0243,-42.0625,-16.6875,-20.125,9.25,0.25,climb_up,6
5.52,5.463775271,25,3,3,3,3,-350.0,11.22,-0.74,-0.27,1.97,-1.05,-4.87,-14.9375,-4.875,719.875,0.5958251953125,0.3592529296875,0.1473388671875,0.0243,-42.0625,-16.6875,-20.1875,9.25,0.31,climb_up,6
5.53,5.463775271,25,3,3,3,3,-314.0,11.27,-0.53,0.09,2.02,-0.89,-3.6,-18.125,-6.9375,721.75,0.59442138671875,0.35821533203125,0.146728515625,0.0243,-42.0625,-16.6875,-20.25,9.24,0.35,climb_up,6
5.54,5.480184655,25,3,3,3,3,-268.0,11.34,-0.28,0.56,2.09,-0.66,-1.48,-22.1875,-8.6875,723.0625,0.5938720703125,0.357177734375,0.14532470703125,0.0243,-42.0625,-16.6875,-20.3125,9.24,0.38,climb_up,6
5.55,5.480184655,25,3,3,3,3,-239.0,11.37,-0.08,0.87,2.14,-0.48,0.12,-24.0,-10.1875,723.875,0.59393310546875,0.356201171875,0.1434326171875,0.0243,-42.0625,-16.6875,-20.375,9.23,0.39,climb_up,6
5.56,5.493488488,25,3,3,3,3,-236.0,11.78,0.03,0.92,2.54,-0.37,0.75,-23.3125,-11.875,725.4375,0.596435546875,0.35162353515625,0.1368408203125,0.024,-40.6875,-18.5625,-20.5,9.23,0.4,climb_up,6
5.57,5.493488488,25,3,3,3,3,-234.0,12.1,0.01,0.95,2.87,-0.39,1.02,-23.0,-12.75,726.0,0.59674072265625,0.3509521484375,0.13470458984375,0.024,-40.6875,-18.5625,-20.625,9.22,0.4,climb_up,6
5.58,5.524173465,25,3,3,3,3,-235.0,12.22,-0.15,0.96,3.0,-0.56,1.33,-22.1875,-12.6875,726.375,0.59710693359375,0.350341796875,0.13250732421875,0.024,-40.6875,-18.5625,-20.75,9.21,0.4,climb_up,6
5.59,5.524173465,25,3,3,3,3,-248.0,12.49,-0.27,0.85,3.28,-0.67,1.97,-19.125,-12.375,726.4375,0.5977783203125,0.34991455078125,0.13037109375,0.024,-40.6875,-18.5625,-20.875,9.21,0.39,climb_up,6
5.6,5.538488528,25,3,3,3,3,-294.0,13.14,-0.43,0.4,3.93,-0.81,2.66,-17.0,-11.8125,726.1875,0.5986328125,0.34967041015625,0.12823486328125,0.024,-40.6875,-18.5625,-20.9375,9.2,0.38,climb_up,6
5.61,5.538488528,25,3,3,3,2,-338.0,13.44,-0.53,-0.01,4.24,-0.89,2.99,-16.0,-11.8125,726.5625,0.6016845703125,0.345947265625,0.12200927734375,0.0236,-41.0,-18.5625,-21.0625,9.2,0.35,climb_up,6
5.62,5.552857588,25,3,3,3,2,-396.0,13.68,-0.49,-0.56,4.48,-0.82,3.1,-11.6875,-13.0625,726.0,0.60260009765625,0.34613037109375,0.1199951171875,0.0236,-41.0,-18.5625,-21.1875,9.19,0.33,climb_up,6
5.63,5.552857588,25,3,3,3,2,-503.0,12.54,0.02,-1.61,3.35,-0.27,3.06,-2.0,-15.0625,725.1875,0.6033935546875,0.34698486328125,0.118408203125,0.0236,-41.0,-18.5625,-21.3125,9.18,0.3,climb_up,6
5.64,5.591782067,25,3,3,3,2,-586.0,12.57,0.73,-2.42,3.39,0.47,3.18,13.3125,-17.6875,723.875,0.60394287109375,0.34893798828125,0.117431640625,0.0236,-41.0,-18.5625,-21.5,9.17,0.26,climb_up,6
5.65,5.591782067,25,3,3,3,2,-631.0,12.4,1.56,-2.84,3.24,1.34,3.24,25.4375,-17.4375,722.125,0.60443115234375,0.35162353515625,0.1170654296875,0.0236,-41.0,-18.5625,-21.6875,9.16,0.21,climb_up,6
5.66,5.600441979,25,3,3,3,2,-640.0,11.65,2.27,-2.89,2.49,2.11,2.97,28.25,-16.75,720.4375,0.60479736328125,0.3543701171875,0.11700439453125,0.0222,-42.5,-17.75,-21.875,9.15,0.16,climb_up,6
5.67,5.600441979,25,3,3,3,2,-640.0,11.65,2.27,-2.89,2.49,2.11,2.97,28.25,-16.75,720.4375,0.60479736328125,0.3543701171875,0.11700439453125,0.0222,-42.5,-17.75,-21.875,9.15,0.16,climb_up,6
5.67,5.613322228,25,3,3,3,2,-546.0,10.75,2.38,-1.93,1.6,2.26,3.41,19.0,-15.75,718.8125,0.60540771484375,0.35662841796875,0.11639404296875,0.0222,-42.5,-17.75,-22.0,9.14,0.12,climb_up,6
5.68,5.613322228,25,3,3,3,2,-480.0,10.06,1.96,-1.25,0.92,1.88,4.13,3.75,-14.5,717.4375,0.60650634765625,0.35784912109375,0.11492919921875,0.0222,-42.5,-17.75,-22.1875,9.14,0.07,climb_up,6
5.69,5.628411095,25,3,3,3,2,-431.0,9.38,1.55,-0.74,0.24,1.51,4.72,-5.0,-13.3125,716.125,0.60797119140625,0.3585205078125,0.1129150390625,0.0222,-42.5,-17.75,-22.3125,9.13,0.03,climb_up,6
5.7,5.628411095,25,3,3,3,2,-400.0,8.73,1.37,-0.41,-0.38,1.38,4.74,-7.25,-10.9375,714.875,0.6094970703125,0.35894775390625,0.1109619140625,0.0222,-42.5,-17.75,-22.375,9.12,0.0,climb_up,6
5.71,5.643279259,25,3,3,3,2,-396.0,8.3,1.51,-0.36,-0.81,1.56,3.77,-2.75,-9.0625,713.75,0.6107177734375,0.3594970703125,0.1094970703125,0.024,-41.375,-16.6875,-22.5,9.12,-0.04,climb_up,6
5.72,5.643279259,25,3,3,3,2,-426.0,8.08,1.73,-0.65,-1.02,1.81,2.56,5.3125,-7.3125,712.75,0.61138916015625,0.3603515625,0.10888671875,0.024,-41.375,-16.6875,-22.5625,9.11,-0.07,climb_up,6
5.73,5.673321373,25,3,3,3,2,-469.0,7.89,1.89,-1.07,-1.21,1.99,1.56,15.0,-6.5625,711.8125,0.61163330078125,0.3616943359375,0.10894775390625,0.024,-41.375,-16.6875,-22.625,9.11,-0.09,climb_up,6
5.74,5.673321373,25,3,3,3,2,-506.0,7.77,1.95,-1.43,-1.33,2.07,1.04,23.0,-5.8125,710.75,0.61163330078125,0.36346435546875,0.10968017578125,0.024,-41.375,-16.6875,-22.6875,9.1,-0.12,climb_up,6
5.75,5.68786068,25,3,3,3,2,-539.0,7.92,2.04,-1.75,-1.18,2.18,0.86,26.5,-5.375,709.625,0.611572265625,0.3653564453125,0.110595703125,0.024,-41.375,-16.6875,-22.75,9.1,-0.14,climb_up,6
5.76,5.68786068,25,3,3,3,2,-530.0,8.07,1.8,-1.66,-1.02,1.97,0.76,24.5625,-4.75,708.625,0.6114501953125,0.3671875,0.1114501953125,0.0232,-42.0625,-14.375,-22.75,9.1,-0.17,climb_up,6
5.77,5.702904096,25,3,3,3,2,-511.0,8.06,1.46,-1.46,-1.03,1.65,0.65,19.9375,-3.3125,707.8125,0.61138916015625,0.36859130859375,0.1121826171875,0.0232,-42.0625,-14.375,-22.8125,9.09,-0.18,climb_up,6
5.78,5.702904096,25,3,3,3,2,-490.0,8.13,1.17,-1.25,-0.96,1.38,0.61,17.0625,-2.4375,707.0625,0.61138916015625,0.3697509765625,0.11285400390625,0.0232,-42.0625,-14.375,-22.8125,9.09,-0.2,climb_up,6
5.79,5.733060469,25,3,3,3,2,-455.0,8.16,0.35,-0.9,-0.93,0.58,0.71,14.8125,-1.75,706.3125,0.6114501953125,0.37078857421875,0.1134033203125,0.0232,-42.0625,-14.375,-22.8125,9.09,-0.22,climb_up,6
5.8,5.733060469,25,3,3,3,2,-444.0,8.03,-0.02,-0.78,-1.06,0.2,0.63,12.9375,-1.5625,705.75,0.61151123046875,0.3717041015625,0.11383056640625,0.0232,-42.0625,-14.375,-22.8125,9.09,-0.23,climb_up,6
5.81,5.747482588,25,3,3,3,2,-429.0,7.79,-0.39,-0.63,-1.3,-0.14,0.29,12.8125,-1.5625,705.1875,0.61138916015625,0.37255859375,0.1143798828125,0.0229,-42.5,-14.0,-22.875,9.09,-0.24,climb_up,6
5.82,5.747482588,25,3,3,3,2,-393.0,7.3,-0.92,-0.27,-1.79,-0.66,-0.21,14.9375,-1.125,704.8125,0.61114501953125,0.37347412109375,0.11517333984375,0.0229,-42.5,-14.0,-22.875,9.09,-0.25,climb_up,6
5.83,5.763390099,25,3,3,3,2,-378.0,7.21,-1.0,-0.12,-1.88,-0.74,-0.58,18.25,-0.1875,704.4375,0.6107177734375,0.37457275390625,0.11627197265625,0.0229,-42.5,-14.0,-22.875,9.09,-0.26,climb_up,6
5.84,5.763390099,25,3,3,3,2,-366.0,7.03,-0.99,0.0,-2.05,-0.72,-0.88,22.9375,0.75,703.9375,0.61016845703125,0.3758544921875,0.11773681640625,0.0229,-42.5,-14.0,-22.8125,9.09,-0.26,climb_up,6
5.85,5.794149376,25,3,3,3,2,-357.0,6.78,-0.92,0.07,-2.3,-0.65,-1.13,29.5625,1.6875,703.3125,0.6094970703125,0.37744140625,0.11962890625,0.0229,-42.5,-14.0,-22.8125,9.09,-0.27,climb_up,6
5.86,5.794149376,25,3,3,3,2,-383.0,6.15,-0.75,-0.18,-2.93,-0.47,-1.22,37.5625,2.8125,702.4375,0.6087646484375,0.37945556640625,0.1220703125,0.0222,-41.6875,-12.0625,-22.75,9.09,-0.28,climb_up,6
5.87,5.809062422,25,3,3,3,2,-411.0,5.89,-0.63,-0.47,-3.2,-0.33,-1.42,45.4375,3.1875,701.375,0.6077880859375,0.38189697265625,0.12493896484375,0.0222,-41.6875,-12.0625,-22.75,9.1,-0.29,climb_up,6
5.88,5.809062422,25,3,3,3,2,-408.0,5.78,-0.38,-0.44,-3.32,-0.06,-1.71,49.8125,2.3125,700.1875,0.606689453125,0.3846435546875,0.1280517578125,0.0222,-41.6875,-12.0625,-22.6875,9.1,-0.31,climb_up,6
5.89,5.824153649,25,3,3,3,2,-382.0,5.79,-0.05,-0.19,-3.31,0.27,-2.15,50.9375,1.0,699.1875,0.6053466796875,0.387451171875,0.13128662109375,0.0222,-41.6875,-12.0625,-22.6875,9.1,-0.32,climb_up,6
5.9,5.824153649,25,3,3,3,2,-314.0,5.58,0.06,0.47,-3.52,0.39,-3.22,51.3125,1.8125,698.4375,0.60357666015625,0.39019775390625,0.134765625,0.0222,-41.6875,-12.0625,-22.625,9.1,-0.32,climb_up,6
5.91,5.853183434,25,3,3,3,1,-295.0,5.58,0.01,0.65,-3.52,0.32,-3.97,51.75,2.75,697.9375,0.60162353515625,0.392822265625,0.13848876953125,0.022,-42.0,-11.25,-22.5625,9.1,-0.31,climb_up,6
5.92,5.853183434,25,3,3,3,1,-301.0,5.73,-0.03,0.59,-3.37,0.26,-4.52,54.0625,3.6875,697.5,0.599365234375,0.3955078125,0.14251708984375,0.022,-42.0,-11.25,-22.5,9.11,-0.3,climb_up,6
5.93,5.85635775,25,3,3,3,1,-301.0,5.73,-0.03,0.59,-3.37,0.26,-4.52,54.0625,3.6875,697.5,0.599365234375,0.3955078125,0.14251708984375,0.022,-42.0,-11.25,-22.5,9.11,-0.3,climb_up,6
5.93,5.85635775,25,3,3,3,1,-307.0,5.84,0.0,0.52,-3.26,0.29,-4.94,54.875,4.25,697.1875,0.59698486328125,0.398193359375,0.146728515625,0.022,-42.0,-11.25,-22.4375,9.11,-0.29,climb_up,6
5.94,5.883456383,25,3,3,3,1,-314.0,6.16,0.08,0.44,-2.95,0.35,-5.28,51.75,4.3125,697.0625,0.594482421875,0.40057373046875,0.15081787109375,0.022,-42.0,-11.25,-22.375,9.12,-0.27,climb_up,6
5.95,5.883456383,25,3,3,3,1,-319.0,6.25,0.12,0.38,-2.86,0.37,-5.4,48.0625,3.8125,697.0625,0.59197998046875,0.40283203125,0.15472412109375,0.022,-42.0,-11.25,-22.375,9.12,-0.24,climb_up,6
5.96,5.898454105,25,3,3,3,1,-320.0,6.37,0.16,0.37,-2.75,0.39,-4.97,44.875,3.75,697.0,0.58966064453125,0.40484619140625,0.1583251953125,0.0235,-41.25,-11.6875,-22.3125,9.12,-0.22,climb_up,6
5.97,5.898454105,25,3,3,3,1,-303.0,6.61,0.08,0.53,-2.51,0.29,-4.27,40.0625,3.6875,696.9375,0.587646484375,0.40667724609375,0.16156005859375,0.0235,-41.25,-11.6875,-22.25,9.13,-0.2,climb_up,6
5.98,5.913035607,25,3,3,3,1,-295.0,6.88,-0.05,0.6,-2.24,0.14,-3.51,34.25,3.25,696.8125,0.5859375,0.40826416015625,0.16424560546875,0.0235,-41.25,-11.6875,-22.25,9.13,-0.19,climb_up,6
5.99,5.913035607,25,3,3,3,1,-298.0,7.18,-0.1,0.57,-1.94,0.07,-2.92,29.375,2.5625,696.625,0.58453369140625,0.40960693359375,0.16656494140625,0.0235,-41.25,-11.6875,-22.1875,9.13,-0.18,climb_up,6
6.0,5.943146976,25,3,3,3,1,-318.0,7.52,-0.18,0.37,-1.61,0.0,-2.79,27.0,1.125,696.5625,0.5831298828125,0.410888671875,0.16864013671875,0.0235,-41.25,-11.6875,-22.1875,9.13,-0.17,climb_up,6
6.01,5.943146976,25,3,3,3,1,-350.0,8.05,-0.38,0.04,-1.08,-0.22,-2.92,24.625,0.0625,696.625,0.5816650390625,0.412109375,0.1705322265625,0.0229,-40.875,-11.6875,-22.1875,9.13,-0.15,climb_up,6
6.02,5.957822757,25,3,3,3,1,-358.0,8.31,-0.61,-0.02,-0.82,-0.46,-2.92,21.5625,-0.125,696.75,0.58026123046875,0.4130859375,0.17230224609375,0.0229,-40.875,-11.6875,-22.1875,9.13,-0.14,climb_up,6
6.03,5.957822757,25,3,3,3,1,-359.0,8.62,-0.81,-0.04,-0.51,-0.69,-2.82,18.125,0.0,697.0,0.57891845703125,0.4139404296875,0.173828125,0.0229,-40.875,-11.6875,-22.1875,9.13,-0.12,climb_up,6
6.04,5.973093916,25,3,3,3,1,-356.0,8.86,-1.02,0.0,-0.27,-0.91,-2.69,15.375,0.0,697.3125,0.57769775390625,0.41455078125,0.1751708984375,0.0229,-40.875,-11.6875,-22.1875,9.14,-0.1,climb_up,6
6.05,5.973093916,25,3,3,3,1,-353.0,9.23,-1.17,0.01,0.09,-1.08,-2.72,14.875,0.6875,697.625,0.57647705078125,0.4151611328125,0.17657470703125,0.0229,-40.875,-11.6875,-22.1875,9.14,-0.09,climb_up,6
6.06,6.004455976,25,3,3,3,1,-360.0,9.33,-1.12,-0.06,0.19,-1.05,-2.73,17.0,1.375,697.875,0.5751953125,0.41583251953125,0.17816162109375,0.0228,-42.0,-12.0625,-22.125,9.14,-0.07,climb_up,6
6.07,6.004455976,25,3,3,3,1,-376.0,9.47,-1.06,-0.21,0.32,-1.01,-3.04,19.4375,1.875,698.0625,0.5738525390625,0.4166259765625,0.179931640625,0.0228,-42.0,-12.0625,-22.125,9.14,-0.05,climb_up,6
6.08,6.018733198,25,3,3,3,1,-389.0,9.66,-0.94,-0.34,0.52,-0.91,-3.78,21.25,2.0625,698.5,0.57220458984375,0.41741943359375,0.18194580078125,0.0228,-42.0,-12.0625,-22.125,9.14,-0.03,climb_up,6
6.09,6.018733198,25,3,3,3,1,-413.0,9.72,-0.65,-0.59,0.57,-0.65,-4.54,22.75,2.4375,699.0,0.5701904296875,0.418212890625,0.18426513671875,0.0228,-42.0,-12.0625,-22.0625,9.14,0.0,climb_up,6
6.1,6.033705936,25,3,3,3,1,-428.0,9.92,-0.54,-0.75,0.77,-0.57,-4.9,23.125,3.0,699.6875,0.568115234375,0.4189453125,0.18670654296875,0.0228,-42.0,-12.0625,-22.0625,9.14,0.03,climb_up,6
6.11,6.033705936,25,3,3,3,0,-436.0,10.3,-0.48,-0.83,1.15,-0.55,-4.91,20.75,3.8125,702.3125,0.5703125,0.4136962890625,0.18212890625,0.0219,-41.6875,-13.6875,-22.0,9.14,0.06,climb_up,6
6.12,6.064121626,25,3,3,3,0,-442.0,10.83,-0.52,-0.9,1.68,-0.63,-4.77,16.3125,4.3125,703.1875,0.56842041015625,0.41400146484375,0.18426513671875,0.0219,-41.6875,-13.6875,-22.0,9.15,0.1,climb_up,6
6.13,6.064121626,25,3,3,3,0,-468.0,11.09,-0.8,-1.17,1.93,-0.95,-4.7,12.375,4.8125,704.125,0.566650390625,0.4140625,0.18621826171875,0.0219,-41.6875,-13.6875,-21.9375,9.15,0.14,climb_up,6
6.14,6.078315433,25,3,3,3,0,-501.0,11.4,-1.21,-1.5,2.24,-1.39,-4.43,11.875,5.0,705.0,0.56494140625,0.4140625,0.1881103515625,0.0219,-41.6875,-13.6875,-21.875,9.15,0.18,climb_up,6
6.15,6.078315433,25,3,3,3,0,-526.0,11.7,-1.37,-1.76,2.54,-1.59,-4.21,15.125,5.375,705.6875,0.56329345703125,0.414306640625,0.1900634765625,0.0219,-41.6875,-13.6875,-21.8125,9.15,0.21,climb_up,6
6.16,6.093227461,25,3,3,3,0,-549.0,12.23,-1.24,-2.0,3.07,-1.48,-4.0,18.6875,6.5,707.6875,0.56512451171875,0.41009521484375,0.1866455078125,0.0222,-41.6875,-12.875,-21.75,9.16,0.24,climb_up,6
6.17,6.093227461,25,3,3,3,0,-562.0,12.54,-1.07,-2.14,3.38,-1.34,-3.52,21.5,7.1875,707.875,0.563720703125,0.41064453125,0.18890380859375,0.0222,-41.6875,-12.875,-21.6875,9.16,0.26,climb_up,6
6.18,6.125689375,25,3,3,3,0,-575.0,12.71,-1.0,-2.28,3.54,-1.28,-2.28,23.8125,7.25,707.625,0.56268310546875,0.4114990234375,0.1910400390625,0.0222,-41.6875,-12.875,-21.625,9.16,0.27,climb_up,6
6.19,6.125689375,25,3,3,3,0,-575.0,12.67,-1.14,-2.29,3.49,-1.4,-0.41,22.375,7.6875,706.8125,0.56243896484375,0.4124755859375,0.192626953125,0.0222,-41.6875,-12.875,-21.5625,9.17,0.26,climb_up,6
6.2,6.138068241,25,3,3,3,0,-520.0,14.08,-0.71,-1.75,4.9,-0.95,1.77,16.625,9.125,705.4375,0.56317138671875,0.4132080078125,0.193603515625,0.0222,-41.6875,-12.875,-21.5,9.17,0.23,climb_up,6
6.21,6.138068241,25,3,3,3,0,-491.0,14.59,-0.13,-1.48,5.41,-0.32,3.51,10.25,10.5,705.4375,0.5682373046875,0.4088134765625,0.18798828125,0.0222,-42.375,-14.0,-21.375,9.18,0.19,climb_up,6
6.22,6.152632938,25,3,3,3,0,-491.0,14.59,-0.13,-1.48,5.41,-0.32,3.51,10.25,10.5,705.4375,0.5682373046875,0.4088134765625,0.18798828125,0.0222,-42.375,-14.0,-21.375,9.18,0.19,climb_up,6
6.22,6.152632938,25,3,3,3,0,-466.0,14.3,0.38,-1.25,5.11,0.23,4.7,5.5625,10.4375,703.5625,0.5703125,0.40911865234375,0.1878662109375,0.0222,-42.375,-14.0,-21.3125,9.19,0.14,climb_up,6
6.23,6.167733198,25,3,3,3,0,-442.0,13.97,0.69,-1.02,4.77,0.61,6.22,0.0,11.9375,701.375,0.57305908203125,0.4091796875,0.18719482421875,0.0222,-42.375,-14.0,-21.1875,9.2,0.08,climb_up,6
6.24,6.167733198,25,3,3,3,0,-468.0,15.3,1.38,-1.31,6.09,1.37,7.81,-5.9375,15.75,698.8125,0.57659912109375,0.4088134765625,0.18603515625,0.0222,-42.375,-14.0,-21.0,9.21,0.0,climb_up,6
6.25,6.183121748,25,3,3,3,0,-459.0,15.16,1.67,-1.25,5.94,1.74,8.47,-7.5625,17.5625,696.0625,0.58050537109375,0.40838623046875,0.184814453125,0.0222,-42.375,-14.0,-20.875,9.21,-0.07,climb_up,6
6.26,6.183121748,25,3,3,3,0,-405.0,14.08,2.01,-0.74,4.85,2.16,7.92,-6.875,17.875,694.9375,0.58740234375,0.40325927734375,0.17840576171875,0.0212,-42.6875,-12.5,-20.6875,9.22,-0.14,climb_up,6
6.27,6.213307091,25,3,3,3,0,-335.0,12.57,2.09,-0.06,3.33,2.31,7.17,-8.9375,17.0625,692.625,0.59075927734375,0.40252685546875,0.1773681640625,0.0212,-42.6875,-12.5,-20.5,9.23,-0.21,climb_up,6
6.28,6.213307091,25,3,3,3,0,-200.0,9.68,1.97,1.25,0.44,2.25,7.16,-15.5625,15.125,690.5625,0.59417724609375,0.40155029296875,0.1759033203125,0.0212,-42.6875,-12.5,-20.375,9.24,-0.28,climb_up,6
6.29,6.228767419,25,3,3,3,0,-142.0,9.11,2.03,1.81,-0.13,2.37,7.42,-22.9375,13.1875,688.6875,0.59771728515625,0.40020751953125,0.173828125,0.0212,-42.6875,-12.5,-20.25,9.24,-0.34,climb_up,6
6.3,6.228767419,25,3,3,3,0,-93.0,9.11,2.04,2.29,-0.13,2.44,7.45,-32.0625,12.3125,687.125,0.60137939453125,0.39837646484375,0.1712646484375,0.0212,-42.6875,-12.5,-20.125,9.25,-0.39,climb_up,6
6.31,6.243094893,25,3,3,3,0,-18.0,9.1,1.77,3.02,-0.14,2.22,7.54,-45.625,10.625,687.125,0.607666015625,0.39202880859375,0.16357421875,0.0204,-42.6875,-9.75,-20.0,9.25,-0.44,climb_up,6
6.32,6.243094893,25,3,3,3,0,-7.0,8.8,1.58,3.12,-0.45,2.08,7.54,-45.625,10.625,686.0,0.6114501953125,0.38946533203125,0.16015625,0.0204,-42.6875,-9.75,-19.9375,9.25,-0.5,climb_up,6
6.33,6.273886397,25,3,3,3,0,-20.0,8.62,1.47,2.97,-0.62,2.02,7.26,-42.25,10.5,684.875,0.614990234375,0.38702392578125,0.156982421875,0.0204,-42.6875,-9.75,-19.875,9.25,-0.54,climb_up,6
6.34,6.273886397,25,3,3,3,0,-53.0,8.61,1.44,2.63,-0.65,2.03,6.49,-34.5625,10.625,683.6875,0.61822509765625,0.385009765625,0.1544189453125,0.0204,-42.6875,-9.75,-19.75,9.26,-0.59,climb_up,6
6.35,6.287624434,25,3,3,3,0,-118.0,8.51,1.37,1.97,-0.75,2.0,5.04,-29.25,11.0,682.8125,0.62078857421875,0.38311767578125,0.15240478515625,0.0204,-42.6875,-9.75,-19.6875,9.26,-0.63,climb_up,6
6.36,6.287624434,25,3,3,3,0,-147.0,8.45,1.32,1.66,-0.81,1.96,2.02,-28.3125,12.4375,684.1875,0.62554931640625,0.37567138671875,0.1455078125,0.0186,-43.0625,-9.75,-19.5625,9.26,-0.63,climb_up,6
6.37,6.302541751,25,3,3,3,0,-170.0,8.41,1.16,1.41,-0.86,1.8,2.02,-28.3125,12.4375,684.25,0.62701416015625,0.37347412109375,0.144287109375,0.0186,-43.0625,-9.75,-19.5,9.27,-0.64,climb_up,6
6.38,6.302541751,25,3,3,3,0,-192.0,8.39,0.85,1.17,-0.88,1.49,1.13,-32.875,13.5,684.8125,0.6282958984375,0.37091064453125,0.14306640625,0.0186,-43.0625,-9.75,-19.375,9.28,-0.63,climb_up,6
6.39,6.333350304,25,3,3,3,0,-226.0,8.22,0.13,0.81,-1.06,0.75,0.35,-38.5,14.0625,685.8125,0.62933349609375,0.36785888671875,0.1417236328125,0.0186,-43.0625,-9.75,-19.25,9.28,-0.61,climb_up,6
6.4,6.333350304,25,3,3,3,0,-234.0,8.0,-0.28,0.71,-1.29,0.3,-0.65,-43.375,13.8125,687.25,0.63006591796875,0.364501953125,0.14031982421875,0.0186,-43.0625,-9.75,-19.125,9.29,-0.58,climb_up,6
6.41,6.347899946,25,3,3,3,0,-241.0,7.76,-0.7,0.63,-1.53,-0.17,-3.02,-44.4375,11.5,689.625,0.6298828125,0.36102294921875,0.13916015625,0.0173,-44.1875,-7.875,-19.0625,9.3,-0.53,climb_up,6
6.42,6.347899946,25,3,3,3,0,-249.0,7.62,-1.03,0.53,-1.68,-0.56,-3.75,-41.6875,10.625,692.1875,0.62933349609375,0.35772705078125,0.13824462890625,0.0173,-44.1875,-7.875,-18.9375,9.31,-0.47,climb_up,6
6.43,6.364009525,25,3,3,3,0,-258.0,7.09,-1.49,0.43,-2.22,-1.08,-3.8,-40.3125,9.5625,694.6875,0.628662109375,0.3544921875,0.1373291015625,0.0173,-44.1875,-7.875,-18.875,9.31,-0.41,climb_up,6
6.44,6.364009525,25,3,3,3,0,-242.0,6.76,-1.46,0.58,-2.55,-1.1,-3.11,-39.0625,8.625,696.9375,0.62823486328125,0.3514404296875,0.13629150390625,0.0173,-44.1875,-7.875,-18.8125,9.32,-0.35,climb_up,6
6.45,6.394053958,25,3,3,3,0,-225.0,6.55,-1.35,0.74,-2.77,-1.04,-2.13,-37.625,7.5,698.75,0.62811279296875,0.3486328125,0.13507080078125,0.0173,-44.1875,-7.875,-18.75,9.33,-0.31,climb_up,6
6.46,6.394053958,25,3,3,3,0,-221.0,6.43,-1.05,0.78,-2.89,-0.77,-1.57,-36.875,5.3125,700.375,0.628173828125,0.34600830078125,0.13372802734375,0.0158,-43.75,-9.375,-18.6875,9.33,-0.28,climb_up,6
6.47,6.409415083,25,3,3,3,0,-215.0,6.23,-0.96,0.83,-3.1,-0.71,-1.71,-36.0,3.0,702.0625,0.62799072265625,0.34356689453125,0.13226318359375,0.0158,-43.75,-9.375,-18.6875,9.33,-0.24,climb_up,6
6.48,6.409415083,25,3,3,3,0,-211.0,6.18,-0.92,0.87,-3.14,-0.72,-1.79,-35.6875,0.5625,703.8125,0.62774658203125,0.34124755859375,0.13067626953125,0.0158,-43.75,-9.375,-18.6875,9.33,-0.2,climb_up,6
6.49,6.424211104,25,3,3,3,0,-205.0,6.05,-1.03,0.94,-3.27,-0.86,-1.71,-35.25,-2.3125,705.5,0.62744140625,0.339111328125,0.12890625,0.0158,-43.75,-9.375,-18.6875,9.33,-0.17,climb_up,6
6.5,6.424211104,25,3,3,3,0,-187.0,6.08,-1.13,1.13,-3.24,-0.99,-1.06,-36.0,-3.875,707.0,0.6273193359375,0.33709716796875,0.126953125,0.0158,-43.75,-9.375,-18.75,9.33,-0.14,climb_up,6
6.51,6.439118656,25,3,3,3,0,-161.0,6.13,-0.98,1.39,-3.2,-0.86,-0.21,-35.9375,-4.375,708.1875,0.62750244140625,0.33514404296875,0.124755859375,0.0155,-44.1875,-10.1875,-18.8125,9.33,-0.11,climb_up,6
6.52,6.439118656,25,3,3,3,0,-161.0,6.13,-0.98,1.39,-3.2,-0.86,-0.21,-35.9375,-4.375,708.1875,0.62750244140625,0.33514404296875,0.124755859375,0.0155,-44.1875,-10.1875,-18.8125,9.33,-0.11,climb_up,6
6.52,6.453188561,25,3,3,3,0,-136.0,6.24,-0.78,1.65,-3.07,-0.68,0.21,-34.0625,-4.6875,709.1875,0.62786865234375,0.3333740234375,0.12255859375,0.0155,-44.1875,-10.1875,-18.8125,9.32,-0.1,climb_up,6
6.53,6.453188561,25,3,3,3,0,-122.0,6.47,-0.6,1.8,-2.85,-0.51,0.59,-32.8125,-3.6875,710.0,0.6282958984375,0.33160400390625,0.12042236328125,0.0155,-44.1875,-10.1875,-18.875,9.32,-0.09,climb_up,6
6.54,6.485049442,25,3,3,3,0,-118.0,7.17,-0.24,1.84,-2.14,-0.15,0.79,-31.6875,-2.625,710.6875,0.62884521484375,0.32989501953125,0.118408203125,0.0155,-44.1875,-10.1875,-18.9375,9.32,-0.08,climb_up,6
6.55,6.485049442,25,3,3,3,0,-121.0,7.31,-0.19,1.81,-2.01,-0.11,0.75,-30.0,-1.9375,711.3125,0.62939453125,0.32818603515625,0.11651611328125,0.0155,-44.1875,-10.1875,-18.9375,9.32,-0.07,climb_up,6
6.56,6.498795129,25,3,3,3,0,-135.0,7.4,-0.17,1.67,-1.91,-0.11,0.33,-28.1875,-1.625,713.0625,0.6326904296875,0.3209228515625,0.10858154296875,0.0147,-43.75,-10.5625,-18.9375,9.32,-0.06,climb_up,6
6.57,6.498795129,25,3,3,3,0,-168.0,7.69,-0.17,1.34,-1.63,-0.12,-0.27,-26.0,-1.1875,713.9375,0.63275146484375,0.31939697265625,0.10711669921875,0.0147,-43.75,-10.5625,-18.9375,9.32,-0.04,climb_up,6
6.58,6.514190718,25,3,3,3,0,-251.0,8.19,-0.37,0.52,-1.12,-0.35,-0.91,-23.125,-1.75,714.9375,0.632568359375,0.3179931640625,0.10589599609375,0.0147,-43.75,-10.5625,-19.0,9.32,-0.02,climb_up,6
6.59,6.514190718,25,3,3,3,0,-278.0,8.29,-0.44,0.26,-1.02,-0.43,-1.28,-19.875,-3.4375,716.0,0.6322021484375,0.31689453125,0.10479736328125,0.0147,-43.75,-10.5625,-19.0,9.32,0.0,climb_up,6
6.6,6.544979374,25,3,3,3,0,-305.0,8.55,-0.5,0.0,-0.76,-0.52,-1.16,-18.3125,-4.8125,716.9375,0.63177490234375,0.31597900390625,0.103759765625,0.0147,-43.75,-10.5625,-19.0625,9.31,0.01,climb_up,6
6.61,6.544979374,25,3,3,3,0,-324.0,9.02,-0.45,-0.18,-0.28,-0.49,-0.72,-20.0625,-5.8125,718.75,0.6343994140625,0.30926513671875,0.095947265625,0.0134,-43.375,-9.75,-19.125,9.31,0.03,climb_up,6
6.62,6.559995568,25,3,3,3,0,-292.0,9.73,-0.44,0.14,0.41,-0.49,0.0,-25.5,-6.0,719.5,0.63446044921875,0.3079833984375,0.09417724609375,0.0134,-43.375,-9.75,-19.1875,9.31,0.05,climb_up,6
6.63,6.559995568,25,3,3,3,0,-264.0,10.08,-0.54,0.43,0.77,-0.6,0.56,-31.75,-7.1875,720.25,0.634765625,0.30645751953125,0.0919189453125,0.0134,-43.375,-9.75,-19.25,9.3,0.06,climb_up,6
6.64,6.574585127,25,3,3,3,0,-239.0,10.32,-0.59,0.69,1.02,-0.67,0.81,-33.875,-8.75,720.9375,0.63507080078125,0.304931640625,0.08935546875,0.0134,-43.375,-9.75,-19.3125,9.3,0.07,climb_up,6
6.65,6.574585127,25,3,3,3,0,-240.0,10.69,-0.46,0.7,1.39,-0.55,0.62,-31.4375,-9.5625,721.6875,0.63531494140625,0.30352783203125,0.08697509765625,0.0134,-43.375,-9.75,-19.4375,9.29,0.08,climb_up,6
6.66,6.604861861,25,3,3,3,0,-240.0,11.04,-0.32,0.72,1.75,-0.41,-0.1,-27.1875,-11.0,723.25,0.63787841796875,0.2967529296875,0.0784912109375,0.0137,-44.1875,-10.5625,-19.5,9.29,0.09,climb_up,6
6.67,6.604861861,25,3,3,3,0,-230.0,11.11,-0.26,0.84,1.82,-0.38,-0.8,-25.9375,-12.4375,724.3125,0.637451171875,0.29583740234375,0.076416015625,0.0137,-44.1875,-10.5625,-19.625,9.28,0.12,climb_up,6
6.68,6.61904464,25,3,3,3,0,-224.0,11.09,-0.32,0.92,1.81,-0.47,-1.08,-24.6875,-14.0,725.4375,0.6368408203125,0.29498291015625,0.0743408203125,0.0137,-44.1875,-10.5625,-19.8125,9.27,0.14,climb_up,6
6.69,6.61904464,25,3,3,3,0,-229.0,11.48,-0.27,0.89,2.21,-0.44,-1.17,-21.5625,-15.375,726.5,0.6361083984375,0.29449462890625,0.0723876953125,0.0137,-44.1875,-10.5625,-19.9375,9.27,0.16,climb_up,6
6.7,6.63455876,25,3,3,3,0,-227.0,11.66,-0.29,0.94,2.4,-0.48,-1.04,-18.75,-16.8125,727.5,0.63543701171875,0.294189453125,0.07049560546875,0.0137,-44.1875,-10.5625,-20.125,9.26,0.19,climb_up,6
6.71,6.63455876,25,3,3,3,0,-225.0,11.83,-0.33,0.99,2.58,-0.54,-0.65,-16.375,-17.375,728.8125,0.6373291015625,0.2886962890625,0.06256103515625,0.0134,-44.1875,-9.75,-20.25,9.25,0.2,climb_up,6
6.72,6.664133548,25,3,3,3,0,-231.0,12.13,-0.38,0.96,2.89,-0.59,-0.17,-12.5,-18.1875,729.3125,0.6368408203125,0.28887939453125,0.060791015625,0.0134,-44.1875,-9.75,-20.4375,9.24,0.21,climb_up,6
6.73,6.664133548,25,3,3,3,0,-274.0,12.73,-0.49,0.55,3.5,-0.7,0.29,-6.3125,-18.875,729.4375,0.63653564453125,0.28955078125,0.0592041015625,0.0134,-44.1875,-9.75,-20.625,9.22,0.21,climb_up,6
6.74,6.678915205,25,3,3,3,0,-332.0,13.63,-0.49,0.01,4.41,-0.7,0.47,1.875,-19.6875,729.375,0.63623046875,0.290771484375,0.05804443359375,0.0134,-44.1875,-9.75,-20.8125,9.21,0.2,climb_up,6
6.75,6.678915205,25,3,3,3,0,-392.0,14.34,-0.36,-0.55,5.14,-0.56,0.2,12.875,-21.1875,729.0625,0.6357421875,0.292724609375,0.05743408203125,0.0134,-44.1875,-9.75,-21.0625,9.2,0.19,climb_up,6
6.76,6.694264815,25,3,3,3,0,-450.0,13.95,-0.25,-1.09,4.76,-0.43,0.29,25.375,-24.5,728.875,0.63775634765625,0.2899169921875,0.05084228515625,0.0134,-43.75,-10.5625,-21.3125,9.19,0.18,climb_up,6
6.77,6.694264815,25,3,3,3,0,-648.0,12.82,-0.05,-3.02,3.64,-0.19,1.83,32.125,-25.4375,727.5,0.63763427734375,0.29339599609375,0.05078125,0.0134,-43.75,-10.5625,-21.5625,9.17,0.14,climb_up,6
6.78,6.708893558,25,3,3,3,0,-648.0,12.82,-0.05,-3.02,3.64,-0.19,1.83,32.125,-25.4375,727.5,0.63763427734375,0.29339599609375,0.05078125,0.0134,-43.75,-10.5625,-21.5625,9.17,0.14,climb_up,6
6.78,6.708893558,25,3,3,3,0,-719.0,13.2,0.86,-3.7,4.04,0.77,3.09,31.3125,-24.5,725.6875,0.63812255859375,0.2967529296875,0.050537109375,0.0134,-43.75,-10.5625,-21.8125,9.16,0.09,climb_up,6
6.79,6.723646651,25,3,3,3,0,-727.0,12.97,1.71,-3.74,3.82,1.67,3.71,23.5,-21.875,723.8125,0.63885498046875,0.29949951171875,0.0499267578125,0.0134,-43.75,-10.5625,-22.0,9.15,0.04,climb_up,6
6.8,6.723646651,25,3,3,3,0,-615.0,11.38,1.47,-2.6,2.24,1.48,4.49,9.0,-18.0625,722.0625,0.64007568359375,0.30120849609375,0.048583984375,0.0134,-43.75,-10.5625,-22.1875,9.13,0.0,climb_up,6
6.81,6.754307865,25,3,3,3,0,-562.0,10.71,1.34,-2.03,1.58,1.4,4.92,3.0625,-15.75,720.625,0.6441650390625,0.2967529296875,0.04083251953125,0.0137,-44.5625,-8.6875,-22.375,9.12,-0.05,climb_up,6
6.82,6.754307865,25,3,3,3,0,-533.0,10.05,1.24,-1.72,0.93,1.36,5.57,7.25,-15.125,718.5,0.64593505859375,0.2982177734375,0.0394287109375,0.0137,-44.5625,-8.6875,-22.5,9.11,-0.12,climb_up,6
6.83,6.768922245,25,3,3,3,0,-529.0,9.61,1.28,-1.66,0.5,1.47,5.55,14.1875,-15.75,716.1875,0.6475830078125,0.300048828125,0.03839111328125,0.0137,-44.5625,-8.6875,-22.625,9.1,-0.18,climb_up,6
6.84,6.768922245,25,3,3,3,0,-555.0,9.41,1.62,-1.9,0.32,1.87,4.8,22.5625,-15.3125,713.875,0.64892578125,0.3023681640625,0.0379638671875,0.0137,-44.5625,-8.6875,-22.8125,9.09,-0.24,climb_up,6
6.85,6.799192468,25,3,3,3,0,-556.0,8.91,1.79,-1.89,-0.17,2.09,3.99,29.25,-13.4375,711.6875,0.6500244140625,0.30499267578125,0.03814697265625,0.0137,-44.5625,-8.6875,-22.9375,9.08,-0.3,climb_up,6
6.86,6.799192468,25,3,3,3,0,-550.0,8.58,1.82,-1.81,-0.49,2.18,3.35,31.6875,-11.5625,709.625,0.65087890625,0.30767822265625,0.03863525390625,0.0143,-44.1875,-6.0,-23.0,9.07,-0.35,climb_up,6
6.87,6.815090132,25,3,3,3,0,-535.0,8.49,1.76,-1.65,-0.58,2.16,2.59,31.875,-10.5,707.8125,0.65142822265625,0.31024169921875,0.0394287109375,0.0143,-44.1875,-6.0,-23.125,9.07,-0.4,climb_up,6
6.88,6.815090132,25,3,3,3,0,-504.0,8.56,1.34,-1.32,-0.5,1.78,1.91,32.0625,-9.875,706.3125,0.65179443359375,0.312744140625,0.04034423828125,0.0143,-44.1875,-6.0,-23.1875,9.06,-0.44,climb_up,6
6.89,6.828789921,25,3,3,3,0,-490.0,8.35,1.07,-1.18,-0.7,1.55,1.32,32.125,-8.0,704.9375,0.65191650390625,0.315185546875,0.04144287109375,0.0143,-44.1875,-6.0,-23.25,9.05,-0.47,climb_up,6
6.9,6.828789921,25,3,3,3,0,-470.0,8.14,0.79,-0.97,-0.9,1.29,0.97,31.875,-6.375,703.6875,0.65203857421875,0.31744384765625,0.042724609375,0.0143,-44.1875,-6.0,-23.3125,9.05,-0.5,climb_up,6
6.91,6.859853194,25,3,3,3,0,-447.0,8.02,0.57,-0.73,-1.02,1.11,0.71,30.8125,-5.5625,702.625,0.6519775390625,0.31964111328125,0.04400634765625,0.0162,-43.375,-5.5625,-23.3125,9.05,-0.53,climb_up,6
6.92,6.859853194,25,3,3,3,0,-403.0,7.77,0.18,-0.28,-1.26,0.73,0.34,29.375,-5.125,701.6875,0.65185546875,0.32171630859375,0.0452880859375,0.0162,-43.375,-5.5625,-23.375,9.04,-0.55,climb_up,6
6.93,6.873799523,25,3,3,3,0,-389.0,7.52,0.03,-0.14,-1.51,0.61,0.07,28.375,-4.9375,700.875,0.651611328125,0.32366943359375,0.046630859375,0.0162,-43.375,-5.5625,-23.375,9.04,-0.57,climb_up,6
6.94,6.873799523,25,3,3,3,0,-367.0,7.41,-0.09,0.07,-1.62,0.5,0.0,27.875,-4.625,700.125,0.6513671875,0.32562255859375,0.04791259765625,0.0162,-43.375,-5.5625,-23.4375,9.04,-0.59,climb_up,6
6.95,6.889243575,25,3,3,3,0,-328.0,7.15,-0.31,0.47,-1.88,0.3,-0.02,27.5,-3.5,699.3125,0.651123046875,0.32745361328125,0.04925537109375,0.0162,-43.375,-5.5625,-23.4375,9.03,-0.61,climb_up,6
6.96,6.889243575,25,3,3,3,0,-329.0,7.2,-0.56,0.45,-1.83,0.06,0.05,26.5,-1.625,698.5625,0.65093994140625,0.3291015625,0.0506591796875,0.0147,-42.6875,-4.875,-23.4375,9.03,-0.62,climb_up,6
6.97,6.921311324,25,3,3,3,0,-310.0,6.92,-0.87,0.64,-2.1,-0.22,0.39,27.1875,-0.125,697.625,0.65093994140625,0.33074951171875,0.0521240234375,0.0147,-42.6875,-4.875,-23.4375,9.03,-0.64,climb_up,6
6.98,6.921311324,25,3,3,3,0,-296.0,6.75,-0.96,0.78,-2.27,-0.29,0.52,29.0625,0.4375,696.5625,0.6510009765625,0.33245849609375,0.0537109375,0.0147,-42.6875,-4.875,-23.4375,9.03,-0.67,climb_up,6
6.99,6.937831384,25,3,3,3,0,-291.0,6.72,-1.23,0.82,-2.31,-0.53,0.45,31.0625,2.0625,695.5,0.65106201171875,0.334228515625,0.05548095703125,0.0147,-42.6875,-4.875,-23.375,9.03,-0.69,climb_up,6
7.0,6.937831384,25,3,3,3,0,-297.0,6.49,-1.39,0.75,-2.54,-0.67,-0.03,34.6875,3.0625,694.4375,0.6510009765625,0.33612060546875,0.05767822265625,0.0147,-42.6875,-4.875,-23.3125,9.03,-0.72,climb_up,6
7.01,6.950179569,25,3,3,3,0,-310.0,6.14,-1.39,0.61,-2.89,-0.65,-0.72,39.9375,2.875,693.5,0.650634765625,0.3382568359375,0.06024169921875,0.014,-42.0,-2.5625,-23.25,9.04,-0.73,climb_up,6
7.02,6.950179569,25,3,3,3,0,-317.0,5.91,-1.19,0.53,-3.12,-0.44,-1.57,43.4375,2.4375,692.75,0.64984130859375,0.34063720703125,0.0631103515625,0.014,-42.0,-2.5625,-23.1875,9.04,-0.75,climb_up,6
7.03,6.963799442,25,3,3,3,0,-317.0,5.91,-1.19,0.53,-3.12,-0.44,-1.57,43.4375,2.4375,692.75,0.64984130859375,0.34063720703125,0.0631103515625,0.014,-42.0,-2.5625,-23.1875,9.04,-0.75,climb_up,6
7.03,6.963799442,25,3,3,3,0,-287.0,5.64,-0.82,0.82,-3.4,-0.07,-2.41,44.375,2.625,692.25,0.6488037109375,0.343017578125,0.06622314453125,0.014,-42.0,-2.5625,-23.125,9.04,-0.75,climb_up,6
7.04,6.978275883,25,3,3,3,0,-270.0,5.62,-0.66,0.98,-3.43,0.09,-2.99,46.0625,3.625,691.875,0.64752197265625,0.34539794921875,0.06964111328125,0.014,-42.0,-2.5625,-23.0625,9.05,-0.75,climb_up,6
7.05,6.978275883,25,3,3,3,0,-258.0,5.64,-0.52,1.09,-3.41,0.22,-3.44,49.5,4.5625,691.5625,0.64605712890625,0.34796142578125,0.0733642578125,0.014,-42.0,-2.5625,-22.9375,9.05,-0.75,climb_up,6
7.06,6.993225915,25,3,3,3,0,-257.0,5.74,-0.41,1.09,-3.31,0.33,-3.55,53.75,5.875,691.1875,0.64459228515625,0.35064697265625,0.077392578125,0.014,-42.0,-2.5625,-22.875,9.06,-0.75,climb_up,6
7.07,6.993225915,25,3,3,3,0,-308.0,5.92,-0.07,0.56,-3.14,0.67,-4.05,56.25,5.875,690.8125,0.64288330078125,0.35345458984375,0.0816650390625,0.014,-42.0,-2.5625,-22.75,9.07,-0.74,climb_up,6
7.08,7.029882898,25,3,3,3,0,-337.0,5.85,0.03,0.25,-3.22,0.76,-4.87,52.625,4.3125,690.875,0.64080810546875,0.3560791015625,0.0858154296875,0.014,-42.0,-2.5625,-22.6875,9.07,-0.73,climb_up,6
7.09,7.029882898,25,3,3,3,0,-364.0,5.91,-0.01,-0.02,-3.17,0.69,-5.44,44.4375,2.25,691.375,0.6385498046875,0.35833740234375,0.0894775390625,0.014,-42.0,-2.5625,-22.625,9.08,-0.7,climb_up,6
7.1,7.03914661,25,3,3,3,0,-370.0,6.08,-0.25,-0.09,-3.0,0.41,-5.7,34.25,0.5625,692.3125,0.63616943359375,0.36004638671875,0.092529296875,0.014,-42.0,-2.5625,-22.5625,9.08,-0.67,climb_up,6
7.11,7.03914661,25,3,3,3,0,-345.0,6.43,-0.59,0.16,-2.65,0.04,-5.6,24.25,-0.6875,693.5,0.6339111328125,0.3612060546875,0.09490966796875,0.0134,-41.5625,-2.1875,-22.5625,9.09,-0.63,climb_up,6
7.12,7.068514611,25,3,3,3,0,-328.0,6.58,-0.79,0.33,-2.51,-0.2,-5.4,16.1875,-1.875,694.9375,0.6317138671875,0.36199951171875,0.0968017578125,0.0134,-41.5625,-2.1875,-22.5625,9.09,-0.58,climb_up,6
7.13,7.068514611,25,3,3,3,0,-317.0,6.87,-0.99,0.44,-2.22,-0.45,-5.34,10.5,-2.875,696.5,0.6295166015625,0.36248779296875,0.09820556640625,0.0134,-41.5625,-2.1875,-22.625,9.09,-0.54,climb_up,6
7.14,7.083821455,25,3,3,3,0,-297.0,7.2,-1.06,0.65,-1.89,-0.57,-5.27,7.9375,-3.375,698.125,0.62738037109375,0.3629150390625,0.0994873046875,0.0134,-41.5625,-2.1875,-22.625,9.09,-0.49,climb_up,6
7.15,7.083821455,25,3,3,3,0,-291.0,7.38,-1.01,0.71,-1.71,-0.56,-4.97,5.6875,-3.0625,699.75,0.6253662109375,0.3631591796875,0.1005859375,0.0134,-41.5625,-2.1875,-22.6875,9.09,-0.45,climb_up,6
7.16,7.098643111,25,3,3,3,0,-285.0,7.65,-0.92,0.78,-1.44,-0.51,-4.61,2.625,-2.25,701.25,0.62353515625,0.3631591796875,0.10150146484375,0.0137,-41.5625,-2.875,-22.6875,9.09,-0.4,climb_up,6
7.17,7.098643111,25,3,3,3,0,-285.0,7.99,-0.87,0.78,-1.1,-0.51,-4.12,0.25,-1.0,702.6875,0.6219482421875,0.36297607421875,0.102294921875,0.0137,-41.5625,-2.875,-22.6875,9.09,-0.36,climb_up,6
7.18,7.113490319,25,3,3,3,0,-303.0,8.62,-0.89,0.59,-0.47,-0.56,-3.48,-1.1875,0.25,703.9375,0.62066650390625,0.36273193359375,0.1029052734375,0.0137,-41.5625,-2.875,-22.6875,9.1,-0.32,climb_up,6
7.19,7.113490319,25,3,3,3,0,-333.0,8.96,-1.11,0.3,-0.13,-0.81,-2.84,-0.625,1.375,704.9375,0.61962890625,0.36248779296875,0.10345458984375,0.0137,-41.5625,-2.875,-22.6875,9.1,-0.3,climb_up,6
7.2,7.144276534,25,3,3,3,0,-362.0,9.41,-1.25,0.0,0.31,-0.98,-2.74,2.0625,2.625,705.8125,0.61865234375,0.3623046875,0.10430908203125,0.0137,-41.5625,-2.875,-22.6875,9.1,-0.27,climb_up,6
7.21,7.144276534,25,3,3,3,0,-389.0,9.93,-1.26,-0.26,0.82,-1.01,-3.3,5.625,3.875,706.75,0.61749267578125,0.36224365234375,0.10546875,0.0139,-41.5625,-3.6875,-22.625,9.1,-0.24,climb_up,6
7.22,7.158426924,25,3,3,3,0,-440.0,10.81,-1.09,-0.78,1.7,-0.88,-4.06,8.375,5.1875,707.8125,0.61602783203125,0.36224365234375,0.1070556640625,0.0139,-41.5625,-3.6875,-22.5625,9.11,-0.21,climb_up,6
7.23,7.158426924,25,3,3,3,0,-459.0,11.11,-0.92,-0.98,2.0,-0.75,-4.48,9.5,6.5,709.0,0.614501953125,0.3621826171875,0.10882568359375,0.0139,-41.5625,-3.6875,-22.5,9.11,-0.17,climb_up,6
7.24,7.173294926,25,3,3,3,0,-470.0,11.44,-0.75,-1.1,2.31,-0.61,-4.25,8.6875,8.1875,710.0625,0.613037109375,0.362060546875,0.110595703125,0.0139,-41.5625,-3.6875,-22.4375,9.12,-0.13,climb_up,6
7.25,7.173294926,25,3,3,3,0,-481.0,11.6,-0.69,-1.23,2.47,-0.59,-3.68,7.6875,10.375,711.0,0.61187744140625,0.36175537109375,0.11236572265625,0.0139,-41.5625,-3.6875,-22.3125,9.13,-0.1,climb_up,6
7.26,7.203829675,25,3,3,3,0,-521.0,11.66,-0.72,-1.66,2.52,-0.64,-3.05,8.0,12.375,711.625,0.611083984375,0.36138916015625,0.1141357421875,0.0131,-42.0,-5.1875,-22.1875,9.13,-0.07,climb_up,6
7.27,7.203829675,25,3,3,3,0,-551.0,11.73,-0.69,-1.98,2.59,-0.63,-2.53,9.625,14.0,712.0625,0.6104736328125,0.361083984375,0.11602783203125,0.0131,-42.0,-5.1875,-22.0625,9.14,-0.05,climb_up,6
7.28,7.21826335,25,3,3,3,0,-575.0,11.95,-0.56,-2.24,2.8,-0.52,-2.13,9.1875,15.0,712.3125,0.6099853515625,0.3607177734375,0.1177978515625,0.0131,-42.0,-5.1875,-21.9375,9.15,-0.04,climb_up,6
7.29,7.21826335,25,3,3,3,0,-575.0,11.95,-0.56,-2.24,2.8,-0.52,-2.13,9.1875,15.0,712.3125,0.6099853515625,0.3607177734375,0.1177978515625,0.0131,-42.0,-5.1875,-21.9375,9.15,-0.04,climb_up,6
7.29,7.234755253,25,3,3,3,0,-588.0,12.43,-0.53,-2.4,3.27,-0.49,-1.62,6.3125,15.3125,712.5,0.60980224609375,0.36016845703125,0.119384765625,0.0131,-42.0,-5.1875,-21.75,9.16,-0.03,climb_up,6
7.3,7.234755253,25,3,3,3,0,-583.0,12.77,-0.69,-2.37,3.59,-0.66,-0.48,3.125,15.375,712.375,0.61004638671875,0.3594970703125,0.12060546875,0.0131,-42.0,-5.1875,-21.625,9.17,-0.02,climb_up,6
7.31,7.248613366,25,3,3,3,0,-567.0,13.76,-0.59,-2.24,4.57,-0.55,0.83,0.4375,16.0,713.5,0.6156005859375,0.35064697265625,0.1121826171875,0.0113,-41.5625,-5.5625,-21.4375,9.18,-0.03,climb_up,6
7.32,7.248613366,25,3,3,3,0,-545.0,14.76,-0.17,-2.04,5.56,-0.12,1.51,-1.5,16.3125,712.875,0.61663818359375,0.34979248046875,0.11279296875,0.0113,-41.5625,-5.5625,-21.3125,9.19,-0.05,climb_up,6
7.33,7.262893233,25,3,3,3,0,-470.0,13.77,0.69,-1.31,4.56,0.76,1.73,-3.9375,17.5,712.25,0.617919921875,0.34869384765625,0.11334228515625,0.0113,-41.5625,-5.5625,-21.125,9.2,-0.06,climb_up,6
7.34,7.262893233,25,3,3,3,0,-430.0,12.92,1.16,-0.95,3.7,1.24,2.22,-9.6875,20.5625,711.5625,0.61944580078125,0.34716796875,0.1136474609375,0.0113,-41.5625,-5.5625,-20.9375,9.21,-0.08,climb_up,6
7.35,7.293683964,25,3,3,3,0,-422.0,13.45,1.67,-0.9,4.22,1.77,3.19,-18.4375,24.125,710.75,0.62158203125,0.34490966796875,0.11346435546875,0.0113,-41.5625,-5.5625,-20.6875,9.22,-0.1,climb_up,6
7.36,7.293683964,25,3,3,3,0,-392.0,13.74,2.03,-0.64,4.5,2.16,4.11,-24.3125,26.4375,711.125,0.62811279296875,0.3349609375,0.1048583984375,0.0109,-41.875,-3.6875,-20.4375,9.24,-0.13,climb_up,6
7.37,7.308576786,25,3,3,3,0,-253.0,12.13,2.04,0.69,2.88,2.21,4.98,-24.4375,27.625,709.8125,0.63104248046875,0.332275390625,0.104248046875,0.0109,-41.875,-3.6875,-20.125,9.25,-0.16,climb_up,6
7.38,7.308576786,25,3,3,3,0,-181.0,11.23,2.05,1.36,1.96,2.27,5.84,-22.4375,27.625,708.1875,0.63421630859375,0.3297119140625,0.1036376953125,0.0109,-41.875,-3.6875,-19.875,9.27,-0.21,climb_up,6
7.39,7.32328516,25,3,3,3,0,-124.0,10.54,2.01,1.89,1.25,2.28,6.45,-23.0,26.5,706.3125,0.63763427734375,0.32720947265625,0.102783203125,0.0109,-41.875,-3.6875,-19.625,9.28,-0.26,climb_up,6
7.4,7.32328516,25,3,3,3,0,-84.0,10.17,1.98,2.25,0.87,2.3,6.14,-24.5625,25.375,704.625,0.640869140625,0.32464599609375,0.10186767578125,0.0109,-41.875,-3.6875,-19.375,9.29,-0.31,climb_up,6
7.41,7.3538783,25,3,3,3,0,-34.0,10.32,2.13,2.71,1.01,2.48,4.42,-25.75,23.25,704.8125,0.64739990234375,0.31396484375,0.0924072265625,0.0095,-41.5,-3.6875,-19.125,9.3,-0.34,climb_up,6
7.42,7.3538783,25,3,3,3,0,-18.0,10.18,2.09,2.85,0.86,2.44,1.94,-25.125,20.25,704.6875,0.64886474609375,0.3114013671875,0.0919189453125,0.0095,-41.5,-3.6875,-18.9375,9.31,-0.35,climb_up,6
7.43,7.368987024,25,3,3,3,0,-27.0,10.13,1.89,2.72,0.8,2.23,-0.35,-22.375,17.625,705.25,0.6494140625,0.30902099609375,0.09173583984375,0.0095,-41.5,-3.6875,-18.75,9.32,-0.33,climb_up,6
7.44,7.368987024,25,3,3,3,0,-117.0,9.85,1.24,1.81,0.51,1.54,-2.18,-17.5,14.5,706.4375,0.64910888671875,0.30706787109375,0.09197998046875,0.0095,-41.5,-3.6875,-18.625,9.33,-0.3,climb_up,6
7.45,7.398547733,25,3,3,3,0,-175.0,9.51,0.74,1.2,0.17,1.01,-3.11,-11.75,11.0625,707.8125,0.6483154296875,0.3055419921875,0.092529296875,0.0095,-41.5,-3.6875,-18.5,9.34,-0.26,climb_up,6
7.46,7.398547733,25,3,3,3,0,-233.0,9.11,0.36,0.62,-0.23,0.59,-3.08,-6.1875,8.5,709.9375,0.650390625,0.29803466796875,0.0863037109375,0.0095,-41.875,-2.0625,-18.4375,9.34,-0.23,climb_up,6
7.47,7.413354293,25,3,3,3,0,-349.0,8.63,-0.27,-0.55,-0.71,-0.05,-1.47,-6.875,7.0,710.625,0.65008544921875,0.297119140625,0.08660888671875,0.0095,-41.875,-2.0625,-18.375,9.35,-0.21,climb_up,6
7.48,7.413354293,25,3,3,3,0,-374.0,8.62,-0.32,-0.82,-0.73,-0.09,2.24,-15.6875,8.3125,710.1875,0.6512451171875,0.29583740234375,0.08587646484375,0.0095,-41.875,-2.0625,-18.25,9.35,-0.22,climb_up,6
7.49,7.429580814,25,3,3,3,0,-353.0,8.75,0.36,-0.62,-0.6,0.62,3.24,-10.25,6.875,709.25,0.6527099609375,0.294921875,0.085205078125,0.0095,-41.875,-2.0625,-18.1875,9.35,-0.25,climb_up,6
7.5,7.429580814,25,3,3,3,0,-354.0,8.57,0.68,-0.63,-0.78,0.96,2.99,-8.8125,3.9375,708.375,0.65399169921875,0.2943115234375,0.08441162109375,0.0095,-41.875,-2.0625,-18.125,9.36,-0.28,climb_up,6
7.51,7.44313184,25,3,3,3,0,-344.0,8.16,0.54,-0.53,-1.2,0.83,1.94,-17.75,1.3125,708.9375,0.657958984375,0.28631591796875,0.075927734375,0.0085,-41.1875,-2.75,-18.125,9.36,-0.29,climb_up,6
7.52,7.44313184,25,3,3,3,0,-284.0,7.96,0.44,0.06,-1.39,0.73,0.72,-24.125,-0.3125,709.3125,0.65838623046875,0.284912109375,0.074462890625,0.0085,-41.1875,-2.75,-18.125,9.36,-0.28,climb_up,6
7.53,7.47405697,25,3,3,3,0,-249.0,7.74,0.23,0.41,-1.61,0.5,0.18,-27.875,-1.125,710.0,0.6585693359375,0.28326416015625,0.07275390625,0.0085,-41.1875,-2.75,-18.1875,9.36,-0.27,climb_up,6
7.54,7.47405697,25,3,3,3,0,-213.0,7.41,-0.01,0.77,-1.94,0.23,-0.5,-30.25,-1.625,710.9375,0.65850830078125,0.281494140625,0.07098388671875,0.0085,-41.1875,-2.75,-18.1875,9.35,-0.25,climb_up,6
7.55,7.487748173,25,3,3,3,0,-213.0,7.41,-0.01,0.77,-1.94,0.23,-0.5,-30.25,-1.625,710.9375,0.65850830078125,0.281494140625,0.07098388671875,0.0085,-41.1875,-2.75,-18.1875,9.35,-0.25,climb_up,6
7.56,7.487748173,25,3,3,3,0,-183.0,7.02,-0.24,1.08,-2.33,-0.01,-1.25,-29.375,-1.75,712.1875,0.658203125,0.27978515625,0.06939697265625,0.0085,-41.1875,-2.75,-18.25,9.35,-0.22,climb_up,6
7.56,7.503027429,25,3,3,3,0,-148.0,6.51,-0.53,1.43,-2.84,-0.33,-1.88,-25.3125,-2.25,714.3125,0.66070556640625,0.270751953125,0.06011962890625,0.0074,-40.0625,-2.0625,-18.25,9.35,-0.19,climb_up,6
